{"start_time":"2017-01-21 10:18:08","end_time":"2017-01-21 10:19:30","points_phase0":2,"points_phase1":4,"phase_order":0,"age":78,"gender":"m","tries":1,"during":"Eating","worker_id":"0980981","assignment_id":"098098","data":[{"rt":1194,"url":"\/tickets\/utils\/consent.html","trial_type":"html","trial_index":0,"time_elapsed":1198,"internal_node_id":"0.0-0.0"},{"age":78,"gender":"m","trial_type":"age","trial_index":1,"time_elapsed":3951,"internal_node_id":"0.0-1.0"},{"tries":1,"trial_type":"instructions_check","trial_index":2,"time_elapsed":6695,"internal_node_id":"0.0-2.0"},{"rt":460,"url":"\/tickets\/utils\/start.html","trial_type":"html","trial_index":3,"time_elapsed":8158,"internal_node_id":"0.0-3.0"},{"responses":[{"value":0,"offby":0,"category":"$106 - $134","category_index":0},{"value":0,"offby":-1,"category":"$135 - $150","category_index":1},{"value":0,"offby":-3,"category":"$151 - $165","category_index":2},{"value":0,"offby":-6,"category":"$166 - $180","category_index":3},{"value":0,"offby":-6,"category":"$181 - $195","category_index":4},{"value":0,"offby":-3,"category":"$196 - $210","category_index":5},{"value":0,"offby":-1,"category":"$211 - $225","category_index":6}],"phase":0,"number":0,"trial_type":"bar-choose","trial_index":4,"time_elapsed":10654,"internal_node_id":"0.0-4.0"},{"rt":533,"url":"\/tickets\/\/utils\/testing.html","trial_type":"html","trial_index":5,"time_elapsed":12189,"internal_node_id":"0.0-5.0"},{"phase":0,"order":[33,11,24,22,0,12,17,29,41,40,34,43,38,15,39,13,25,6,32,18,8,27,42,48,37,21,28,31,1,47,10,14,7,16,9,2,30,44,4,26,20,49,5,23,3,35,19,46,45,36],"trial_type":"store_order","trial_index":6,"time_elapsed":13191,"internal_node_id":"0.0-6.0"},{"result":184,"points":1,"place":4,"phase":0,"sequence":-1,"times":[1114],"next_num":1,"trial_type":"ticket-choose","trial_index":7,"time_elapsed":15950,"internal_node_id":"0.0-7.0"},{"rt":493,"url":"\/tickets\/utils\/testing_after.html","trial_type":"html","trial_index":8,"time_elapsed":17446,"internal_node_id":"0.0-8.0"},{"result":169,"points":1,"place":2,"phase":0,"sequence":0,"times":[564,279,263,255,239,239,711,351,567,1488],"next_num":11,"trial_type":"ticket-choose","trial_index":9,"time_elapsed":25974,"internal_node_id":"0.0-9.0"},{"result":207,"points":0,"place":8,"phase":0,"sequence":1,"times":[563,271,239,231,687,287,359,375,1631,368],"next_num":11,"trial_type":"ticket-choose","trial_index":10,"time_elapsed":34686,"internal_node_id":"0.0-10.0"},{"result":185,"points":1,"place":4,"phase":0,"sequence":2,"times":[851,263,255,351,223,255,215,263,303,279],"next_num":10,"trial_type":"ticket-choose","trial_index":11,"time_elapsed":41462,"internal_node_id":"0.0-11.0"},{"responses":[{"value":0,"offby":0,"category":"$106 - $134","category_index":0},{"value":0,"offby":-1,"category":"$135 - $150","category_index":1},{"value":0,"offby":-3,"category":"$151 - $165","category_index":2},{"value":0,"offby":-6,"category":"$166 - $180","category_index":3},{"value":0,"offby":-6,"category":"$181 - $195","category_index":4},{"value":0,"offby":-3,"category":"$196 - $210","category_index":5},{"value":0,"offby":-1,"category":"$211 - $225","category_index":6}],"phase":0,"number":1,"trial_type":"bar-choose","trial_index":12,"time_elapsed":43614,"internal_node_id":"0.0-12.0"},{"rt":469,"url":"\/tickets\/utils\/start2.html","trial_type":"html","trial_index":13,"time_elapsed":45085,"internal_node_id":"0.0-13.0"},{"responses":[{"value":0,"offby":-1,"category":"$105 - $130","category_index":0},{"value":0,"offby":-2,"category":"$131 - $155","category_index":1},{"value":0,"offby":-2,"category":"$156 - $180","category_index":2},{"value":0,"offby":-5,"category":"$181 - $205","category_index":3},{"value":0,"offby":-5,"category":"$206 - $230","category_index":4},{"value":0,"offby":-3,"category":"$231 - $255","category_index":5},{"value":0,"offby":-2,"category":"$256 - $280","category_index":6}],"phase":1,"number":0,"trial_type":"bar-choose","trial_index":14,"time_elapsed":46726,"internal_node_id":"0.0-14.0"},{"rt":365,"url":"\/tickets\/utils\/testing2.html","trial_type":"html","trial_index":15,"time_elapsed":48094,"internal_node_id":"0.0-15.0"},{"phase":1,"order":[43,32,20,12,18,41,8,16,24,26,13,39,29,49,38,14,22,21,3,27,0,44,37,46,7,6,2,35,9,5,40,15,30,45,19,48,11,25,17,36,31,1,10,23,47,4,34,42,28,33],"trial_type":"store_order","trial_index":16,"time_elapsed":49094,"internal_node_id":"0.0-16.0"},{"result":181,"points":1,"place":2,"phase":1,"sequence":0,"times":[684,223,263,271,415,262,311,287,271,704],"next_num":10,"trial_type":"ticket-choose","trial_index":17,"time_elapsed":56518,"internal_node_id":"0.0-17.0"},{"result":240,"points":0,"place":5,"phase":1,"sequence":1,"times":[467,255,247,255,263,271,303,319,319,351],"next_num":11,"trial_type":"ticket-choose","trial_index":18,"time_elapsed":63270,"internal_node_id":"0.0-18.0"},{"result":162,"points":3,"place":0,"phase":1,"sequence":2,"times":[412],"next_num":1,"trial_type":"ticket-choose","trial_index":19,"time_elapsed":65022,"internal_node_id":"0.0-19.0"},{"responses":[{"value":0,"offby":-1,"category":"$105 - $130","category_index":0},{"value":0,"offby":-2,"category":"$131 - $155","category_index":1},{"value":0,"offby":-2,"category":"$156 - $180","category_index":2},{"value":0,"offby":-5,"category":"$181 - $205","category_index":3},{"value":0,"offby":-5,"category":"$206 - $230","category_index":4},{"value":0,"offby":-3,"category":"$231 - $255","category_index":5},{"value":0,"offby":-2,"category":"$256 - $280","category_index":6}],"phase":1,"number":1,"trial_type":"bar-choose","trial_index":20,"time_elapsed":66742,"internal_node_id":"0.0-20.0"},{"during":"Eating","bonus":8,"trial_type":"final","trial_index":21,"time_elapsed":79575,"internal_node_id":"0.0-21.0"}],"bonus":8}