{"start_time":"2017-01-18 16:47:15","end_time":"2017-01-18 16:49:05","points_phase0":3,"points_phase1":5,"phase_order":0,"age":33,"gender":"f","tries":1,"during":"Nothing","subject_id":"111","data":[{"rt":2852,"url":"\/tickets\/utils\/consent.html","trial_type":"html","trial_index":0,"time_elapsed":2944,"internal_node_id":"0.0-0.0"},{"age":33,"gender":"f","trial_type":"age","trial_index":1,"time_elapsed":8246,"internal_node_id":"0.0-1.0"},{"tries":1,"trial_type":"instructions_check","trial_index":2,"time_elapsed":12148,"internal_node_id":"0.0-2.0"},{"rt":1037,"url":"\/tickets\/utils\/start.html","trial_type":"html","trial_index":3,"time_elapsed":14340,"internal_node_id":"0.0-3.0"},{"responses":[{"value":0,"offby":0,"category":"$106 - $134","category_index":0},{"value":0,"offby":-1,"category":"$135 - $150","category_index":1},{"value":0,"offby":-3,"category":"$151 - $165","category_index":2},{"value":8,"offby":2,"category":"$166 - $180","category_index":3},{"value":0,"offby":-6,"category":"$181 - $195","category_index":4},{"value":0,"offby":-3,"category":"$196 - $210","category_index":5},{"value":0,"offby":-1,"category":"$211 - $225","category_index":6}],"phase":0,"number":0,"trial_type":"bar-choose","trial_index":4,"time_elapsed":22703,"internal_node_id":"0.0-4.0"},{"rt":1765,"url":"\/tickets\/\/utils\/testing.html","trial_type":"html","trial_index":5,"time_elapsed":25646,"internal_node_id":"0.0-5.0"},{"phase":0,"order":[0,41,33,45,18,5,31,36,39,46,10,20,13,4,19,47,6,9,42,22,8,1,49,32,37,34,17,27,44,15,14,3,21,26,29,16,40,48,35,11,38,24,23,25,43,28,30,12,7,2],"trial_type":"store_order","trial_index":6,"time_elapsed":26648,"internal_node_id":"0.0-6.0"},{"result":126,"points":3,"place":0,"phase":0,"sequence":-1,"times":[1181,454,334,376,558,578,525,510,708,842],"trial_type":"ticket-choose","trial_index":7,"time_elapsed":36677,"internal_node_id":"0.0-7.0"},{"rt":2465,"url":"\/tickets\/utils\/testing_after.html","trial_type":"html","trial_index":8,"time_elapsed":40324,"internal_node_id":"0.0-8.0"},{"result":158,"points":2,"place":1,"phase":0,"sequence":0,"times":[1621,613,1152],"trial_type":"ticket-choose","trial_index":9,"time_elapsed":46402,"internal_node_id":"0.0-9.0"},{"result":156,"points":1,"place":2,"phase":0,"sequence":1,"times":[859,536,445,438,1027],"trial_type":"ticket-choose","trial_index":10,"time_elapsed":52617,"internal_node_id":"0.0-10.0"},{"result":181,"points":0,"place":5,"phase":0,"sequence":2,"times":[662,363,910],"trial_type":"ticket-choose","trial_index":11,"time_elapsed":56657,"internal_node_id":"0.0-11.0"},{"responses":[{"value":0,"offby":0,"category":"$106 - $134","category_index":0},{"value":0,"offby":-1,"category":"$135 - $150","category_index":1},{"value":0,"offby":-3,"category":"$151 - $165","category_index":2},{"value":0,"offby":-6,"category":"$166 - $180","category_index":3},{"value":0,"offby":-6,"category":"$181 - $195","category_index":4},{"value":0,"offby":-3,"category":"$196 - $210","category_index":5},{"value":0,"offby":-1,"category":"$211 - $225","category_index":6}],"phase":0,"number":1,"trial_type":"bar-choose","trial_index":12,"time_elapsed":61256,"internal_node_id":"0.0-12.0"},{"rt":678,"url":"\/tickets\/utils\/start2.html","trial_type":"html","trial_index":13,"time_elapsed":63114,"internal_node_id":"0.0-13.0"},{"responses":[{"value":0,"offby":-1,"category":"$105 - $130","category_index":0},{"value":0,"offby":-2,"category":"$131 - $155","category_index":1},{"value":0,"offby":-2,"category":"$156 - $180","category_index":2},{"value":6,"offby":1,"category":"$181 - $205","category_index":3},{"value":0,"offby":-5,"category":"$206 - $230","category_index":4},{"value":0,"offby":-3,"category":"$231 - $255","category_index":5},{"value":0,"offby":-2,"category":"$256 - $280","category_index":6}],"phase":1,"number":0,"trial_type":"bar-choose","trial_index":14,"time_elapsed":68744,"internal_node_id":"0.0-14.0"},{"rt":649,"url":"\/tickets\/utils\/testing2.html","trial_type":"html","trial_index":15,"time_elapsed":70573,"internal_node_id":"0.0-15.0"},{"phase":1,"order":[],"trial_type":"store_order","trial_index":16,"time_elapsed":71574,"internal_node_id":"0.0-16.0"},{"result":157,"points":2,"place":1,"phase":1,"sequence":0,"times":[951,551,1025],"trial_type":"ticket-choose","trial_index":17,"time_elapsed":76261,"internal_node_id":"0.0-17.0"},{"result":165,"points":2,"place":1,"phase":1,"sequence":1,"times":[726,519,832],"trial_type":"ticket-choose","trial_index":18,"time_elapsed":80811,"internal_node_id":"0.0-18.0"},{"result":188,"points":1,"place":3,"phase":1,"sequence":2,"times":[922,511,1161],"trial_type":"ticket-choose","trial_index":19,"time_elapsed":85599,"internal_node_id":"0.0-19.0"},{"responses":[{"value":0,"offby":-1,"category":"$105 - $130","category_index":0},{"value":0,"offby":-2,"category":"$131 - $155","category_index":1},{"value":0,"offby":-2,"category":"$156 - $180","category_index":2},{"value":8,"offby":3,"category":"$181 - $205","category_index":3},{"value":5,"offby":0,"category":"$206 - $230","category_index":4},{"value":0,"offby":-3,"category":"$231 - $255","category_index":5},{"value":0,"offby":-2,"category":"$256 - $280","category_index":6}],"phase":1,"number":1,"trial_type":"bar-choose","trial_index":20,"time_elapsed":93842,"internal_node_id":"0.0-20.0"},{"during":"Nothing","trial_type":"final","trial_index":21,"time_elapsed":106718,"internal_node_id":"0.0-21.0"}]}