{"start_time":"2017-01-19 17:16:04","end_time":"2017-01-19 17:16:58","points_phase0":3,"points_phase1":3,"phase_order":1,"age":4,"gender":"m","tries":1,"during":"Nothing","worker_id":"123123123","assignment_id":"9876987","data":[{"rt":1211,"url":"\/tickets\/utils\/consent.html","trial_type":"html","trial_index":0,"time_elapsed":1216,"internal_node_id":"0.0-0.0"},{"age":4,"gender":"m","trial_type":"age","trial_index":1,"time_elapsed":4025,"internal_node_id":"0.0-1.0"},{"tries":1,"trial_type":"instructions_check","trial_index":2,"time_elapsed":6793,"internal_node_id":"0.0-2.0"},{"rt":484,"url":"\/tickets\/utils\/start.html","trial_type":"html","trial_index":3,"time_elapsed":8280,"internal_node_id":"0.0-3.0"},{"responses":[{"value":0,"offby":-1,"category":"$105 - $130","category_index":0},{"value":0,"offby":-2,"category":"$131 - $155","category_index":1},{"value":0,"offby":-2,"category":"$156 - $180","category_index":2},{"value":0,"offby":-5,"category":"$181 - $205","category_index":3},{"value":0,"offby":-5,"category":"$206 - $230","category_index":4},{"value":0,"offby":-3,"category":"$231 - $255","category_index":5},{"value":0,"offby":-2,"category":"$256 - $280","category_index":6}],"phase":0,"number":0,"trial_type":"bar-choose","trial_index":4,"time_elapsed":10328,"internal_node_id":"0.0-4.0"},{"rt":541,"url":"\/tickets\/\/utils\/testing.html","trial_type":"html","trial_index":5,"time_elapsed":11872,"internal_node_id":"0.0-5.0"},{"phase":0,"order":[12,10,31,26,23,40,19,9,13,38,35,24,25,17,29,18,2,34,5,16,8,37,1,42,11,43,32,6,14,49,47,46,36,22,41,33,48,28,21,45,0,44,27,7,20,39,4,15,3,30],"trial_type":"store_order","trial_index":6,"time_elapsed":12873,"internal_node_id":"0.0-6.0"},{"result":126,"points":3,"place":0,"phase":0,"sequence":-1,"times":[1081,286,343,327,334,319,343,303,351,400],"trial_type":"ticket-choose","trial_index":7,"time_elapsed":20824,"internal_node_id":"0.0-7.0"},{"rt":637,"url":"\/tickets\/utils\/testing_after.html","trial_type":"html","trial_index":8,"time_elapsed":22464,"internal_node_id":"0.0-8.0"},{"result":154,"points":3,"place":0,"phase":0,"sequence":0,"times":[166],"trial_type":"ticket-choose","trial_index":9,"time_elapsed":23968,"internal_node_id":"0.0-9.0"},{"result":216,"points":0,"place":6,"phase":0,"sequence":1,"times":[163],"trial_type":"ticket-choose","trial_index":10,"time_elapsed":25392,"internal_node_id":"0.0-10.0"},{"result":218,"points":0,"place":7,"phase":0,"sequence":2,"times":[83],"trial_type":"ticket-choose","trial_index":11,"time_elapsed":26752,"internal_node_id":"0.0-11.0"},{"responses":[{"value":0,"offby":-1,"category":"$105 - $130","category_index":0},{"value":0,"offby":-2,"category":"$131 - $155","category_index":1},{"value":0,"offby":-2,"category":"$156 - $180","category_index":2},{"value":0,"offby":-5,"category":"$181 - $205","category_index":3},{"value":0,"offby":-5,"category":"$206 - $230","category_index":4},{"value":0,"offby":-3,"category":"$231 - $255","category_index":5},{"value":0,"offby":-2,"category":"$256 - $280","category_index":6}],"phase":0,"number":1,"trial_type":"bar-choose","trial_index":12,"time_elapsed":28584,"internal_node_id":"0.0-12.0"},{"rt":533,"url":"\/tickets\/utils\/start2.html","trial_type":"html","trial_index":13,"time_elapsed":30119,"internal_node_id":"0.0-13.0"},{"responses":[{"value":0,"offby":0,"category":"$106 - $134","category_index":0},{"value":0,"offby":-1,"category":"$135 - $150","category_index":1},{"value":0,"offby":-3,"category":"$151 - $165","category_index":2},{"value":0,"offby":-6,"category":"$166 - $180","category_index":3},{"value":0,"offby":-6,"category":"$181 - $195","category_index":4},{"value":0,"offby":-3,"category":"$196 - $210","category_index":5},{"value":0,"offby":-1,"category":"$211 - $225","category_index":6}],"phase":1,"number":0,"trial_type":"bar-choose","trial_index":14,"time_elapsed":32104,"internal_node_id":"0.0-14.0"},{"rt":437,"url":"\/tickets\/utils\/testing2.html","trial_type":"html","trial_index":15,"time_elapsed":33544,"internal_node_id":"0.0-15.0"},{"phase":1,"order":[],"trial_type":"store_order","trial_index":16,"time_elapsed":34544,"internal_node_id":"0.0-16.0"},{"result":181,"points":1,"place":4,"phase":1,"sequence":0,"times":[572],"trial_type":"ticket-choose","trial_index":17,"time_elapsed":36440,"internal_node_id":"0.0-17.0"},{"result":164,"points":1,"place":4,"phase":1,"sequence":1,"times":[27],"trial_type":"ticket-choose","trial_index":18,"time_elapsed":37744,"internal_node_id":"0.0-18.0"},{"result":162,"points":1,"place":2,"phase":1,"sequence":2,"times":[212],"trial_type":"ticket-choose","trial_index":19,"time_elapsed":39248,"internal_node_id":"0.0-19.0"},{"responses":[{"value":0,"offby":0,"category":"$106 - $134","category_index":0},{"value":0,"offby":-1,"category":"$135 - $150","category_index":1},{"value":0,"offby":-3,"category":"$151 - $165","category_index":2},{"value":0,"offby":-6,"category":"$166 - $180","category_index":3},{"value":0,"offby":-6,"category":"$181 - $195","category_index":4},{"value":0,"offby":-3,"category":"$196 - $210","category_index":5},{"value":0,"offby":-1,"category":"$211 - $225","category_index":6}],"phase":1,"number":1,"trial_type":"bar-choose","trial_index":20,"time_elapsed":41168,"internal_node_id":"0.0-20.0"},{"during":"Nothing","trial_type":"final","trial_index":21,"time_elapsed":52481,"internal_node_id":"0.0-21.0"}]}