{"start_time":"2017-01-19 17:18:18","end_time":"2017-01-19 17:20:51","points_phase0":54,"points_phase1":2,"phase_order":0,"age":67,"gender":"m","tries":1,"during":"Nothing","worker_id":"12333","assignment_id":"7567","data":[{"rt":1129,"url":"\/tickets\/utils\/consent.html","trial_type":"html","trial_index":0,"time_elapsed":1134,"internal_node_id":"0.0-0.0"},{"age":67,"gender":"m","trial_type":"age","trial_index":1,"time_elapsed":4103,"internal_node_id":"0.0-1.0"},{"tries":1,"trial_type":"instructions_check","trial_index":2,"time_elapsed":6654,"internal_node_id":"0.0-2.0"},{"rt":548,"url":"\/tickets\/utils\/start.html","trial_type":"html","trial_index":3,"time_elapsed":8205,"internal_node_id":"0.0-3.0"},{"responses":[{"value":0,"offby":0,"category":"$106 - $134","category_index":0},{"value":0,"offby":-1,"category":"$135 - $150","category_index":1},{"value":0,"offby":-3,"category":"$151 - $165","category_index":2},{"value":0,"offby":-6,"category":"$166 - $180","category_index":3},{"value":0,"offby":-6,"category":"$181 - $195","category_index":4},{"value":0,"offby":-3,"category":"$196 - $210","category_index":5},{"value":0,"offby":-1,"category":"$211 - $225","category_index":6}],"phase":0,"number":0,"trial_type":"bar-choose","trial_index":4,"time_elapsed":11118,"internal_node_id":"0.0-4.0"},{"rt":21493,"url":"\/tickets\/\/utils\/testing.html","trial_type":"html","trial_index":5,"time_elapsed":33613,"internal_node_id":"0.0-5.0"},{"phase":0,"order":[26,16,4,14,24,42,48,25,41,22,13,40,17,32,3,34,18,6,20,37,21,0,31,45,36,11,33,5,9,12,7,47,44,46,29,23,2,27,1,10,43,8,19,30,28,39,35,38,15,49],"trial_type":"store_order","trial_index":6,"time_elapsed":34614,"internal_node_id":"0.0-6.0"},{"result":184,"points":1,"place":4,"phase":0,"sequence":-1,"times":[738],"trial_type":"ticket-choose","trial_index":7,"time_elapsed":37101,"internal_node_id":"0.0-7.0"},{"rt":469,"url":"\/tickets\/utils\/testing_after.html","trial_type":"html","trial_index":8,"time_elapsed":38573,"internal_node_id":"0.0-8.0"},{"result":157,"points":3,"place":0,"phase":0,"sequence":0,"times":[453],"trial_type":"ticket-choose","trial_index":9,"time_elapsed":40797,"internal_node_id":"0.0-9.0"},{"result":182,"points":0,"place":6,"phase":0,"sequence":1,"times":[484,15],"trial_type":"ticket-choose","trial_index":10,"time_elapsed":43541,"internal_node_id":"0.0-10.0"},{"result":198,"points":0,"place":6,"phase":0,"sequence":2,"times":[300,22],"trial_type":"ticket-choose","trial_index":11,"time_elapsed":45973,"internal_node_id":"0.0-11.0"},{"result":184,"points":1,"place":4,"phase":0,"sequence":3,"times":[92],"trial_type":"ticket-choose","trial_index":12,"time_elapsed":47325,"internal_node_id":"0.0-12.0"},{"result":169,"points":3,"place":0,"phase":0,"sequence":4,"times":[165],"trial_type":"ticket-choose","trial_index":13,"time_elapsed":48789,"internal_node_id":"0.0-13.0"},{"result":222,"points":0,"place":9,"phase":0,"sequence":5,"times":[83],"trial_type":"ticket-choose","trial_index":14,"time_elapsed":50149,"internal_node_id":"0.0-14.0"},{"result":181,"points":0,"place":5,"phase":0,"sequence":6,"times":[44],"trial_type":"ticket-choose","trial_index":15,"time_elapsed":51461,"internal_node_id":"0.0-15.0"},{"result":150,"points":3,"place":0,"phase":0,"sequence":7,"times":[92],"trial_type":"ticket-choose","trial_index":16,"time_elapsed":52821,"internal_node_id":"0.0-16.0"},{"result":201,"points":0,"place":7,"phase":0,"sequence":8,"times":[172],"trial_type":"ticket-choose","trial_index":17,"time_elapsed":54278,"internal_node_id":"0.0-17.0"},{"result":152,"points":3,"place":0,"phase":0,"sequence":9,"times":[58],"trial_type":"ticket-choose","trial_index":18,"time_elapsed":55597,"internal_node_id":"0.0-18.0"},{"result":170,"points":1,"place":4,"phase":0,"sequence":10,"times":[52],"trial_type":"ticket-choose","trial_index":19,"time_elapsed":56917,"internal_node_id":"0.0-19.0"},{"result":189,"points":0,"place":5,"phase":0,"sequence":11,"times":[76],"trial_type":"ticket-choose","trial_index":20,"time_elapsed":58253,"internal_node_id":"0.0-20.0"},{"result":169,"points":1,"place":4,"phase":0,"sequence":12,"times":[124],"trial_type":"ticket-choose","trial_index":21,"time_elapsed":59717,"internal_node_id":"0.0-21.0"},{"result":182,"points":1,"place":3,"phase":0,"sequence":13,"times":[221],"trial_type":"ticket-choose","trial_index":22,"time_elapsed":61205,"internal_node_id":"0.0-22.0"},{"result":180,"points":1,"place":4,"phase":0,"sequence":14,"times":[108],"trial_type":"ticket-choose","trial_index":23,"time_elapsed":62589,"internal_node_id":"0.0-23.0"},{"result":181,"points":0,"place":6,"phase":0,"sequence":15,"times":[147],"trial_type":"ticket-choose","trial_index":24,"time_elapsed":64021,"internal_node_id":"0.0-24.0"},{"result":186,"points":1,"place":4,"phase":0,"sequence":16,"times":[205],"trial_type":"ticket-choose","trial_index":25,"time_elapsed":65509,"internal_node_id":"0.0-25.0"},{"result":173,"points":1,"place":4,"phase":0,"sequence":17,"times":[156],"trial_type":"ticket-choose","trial_index":26,"time_elapsed":66949,"internal_node_id":"0.0-26.0"},{"result":161,"points":3,"place":0,"phase":0,"sequence":18,"times":[124],"trial_type":"ticket-choose","trial_index":27,"time_elapsed":68373,"internal_node_id":"0.0-27.0"},{"result":198,"points":0,"place":8,"phase":0,"sequence":19,"times":[100],"trial_type":"ticket-choose","trial_index":28,"time_elapsed":69773,"internal_node_id":"0.0-28.0"},{"result":156,"points":3,"place":0,"phase":0,"sequence":20,"times":[123],"trial_type":"ticket-choose","trial_index":29,"time_elapsed":71189,"internal_node_id":"0.0-29.0"},{"result":178,"points":1,"place":4,"phase":0,"sequence":21,"times":[115],"trial_type":"ticket-choose","trial_index":30,"time_elapsed":72597,"internal_node_id":"0.0-30.0"},{"result":162,"points":1,"place":2,"phase":0,"sequence":22,"times":[148],"trial_type":"ticket-choose","trial_index":31,"time_elapsed":74037,"internal_node_id":"0.0-31.0"},{"result":212,"points":0,"place":9,"phase":0,"sequence":23,"times":[133],"trial_type":"ticket-choose","trial_index":32,"time_elapsed":75445,"internal_node_id":"0.0-32.0"},{"result":188,"points":0,"place":6,"phase":0,"sequence":24,"times":[123],"trial_type":"ticket-choose","trial_index":33,"time_elapsed":76869,"internal_node_id":"0.0-33.0"},{"result":175,"points":1,"place":4,"phase":0,"sequence":25,"times":[107],"trial_type":"ticket-choose","trial_index":34,"time_elapsed":78285,"internal_node_id":"0.0-34.0"},{"result":197,"points":0,"place":7,"phase":0,"sequence":26,"times":[141],"trial_type":"ticket-choose","trial_index":35,"time_elapsed":79701,"internal_node_id":"0.0-35.0"},{"result":175,"points":1,"place":4,"phase":0,"sequence":27,"times":[132],"trial_type":"ticket-choose","trial_index":36,"time_elapsed":81141,"internal_node_id":"0.0-36.0"},{"result":177,"points":1,"place":4,"phase":0,"sequence":28,"times":[196],"trial_type":"ticket-choose","trial_index":37,"time_elapsed":82629,"internal_node_id":"0.0-37.0"},{"result":181,"points":1,"place":4,"phase":0,"sequence":29,"times":[44],"trial_type":"ticket-choose","trial_index":38,"time_elapsed":83973,"internal_node_id":"0.0-38.0"},{"result":183,"points":1,"place":4,"phase":0,"sequence":30,"times":[203],"trial_type":"ticket-choose","trial_index":39,"time_elapsed":85494,"internal_node_id":"0.0-39.0"},{"result":200,"points":0,"place":8,"phase":0,"sequence":31,"times":[208],"trial_type":"ticket-choose","trial_index":40,"time_elapsed":87013,"internal_node_id":"0.0-40.0"},{"result":180,"points":0,"place":6,"phase":0,"sequence":32,"times":[227],"trial_type":"ticket-choose","trial_index":41,"time_elapsed":88549,"internal_node_id":"0.0-41.0"},{"result":210,"points":0,"place":7,"phase":0,"sequence":33,"times":[82],"trial_type":"ticket-choose","trial_index":42,"time_elapsed":89949,"internal_node_id":"0.0-42.0"},{"result":159,"points":3,"place":0,"phase":0,"sequence":34,"times":[221],"trial_type":"ticket-choose","trial_index":43,"time_elapsed":91477,"internal_node_id":"0.0-43.0"},{"result":168,"points":3,"place":0,"phase":0,"sequence":35,"times":[99],"trial_type":"ticket-choose","trial_index":44,"time_elapsed":93293,"internal_node_id":"0.0-44.0"},{"result":153,"points":3,"place":0,"phase":0,"sequence":36,"times":[540,262,271,239,279,255,272,272,368,1584],"trial_type":"ticket-choose","trial_index":45,"time_elapsed":101517,"internal_node_id":"0.0-45.0"},{"result":148,"points":3,"place":0,"phase":0,"sequence":37,"times":[588],"trial_type":"ticket-choose","trial_index":46,"time_elapsed":103485,"internal_node_id":"0.0-46.0"},{"result":169,"points":1,"place":4,"phase":0,"sequence":38,"times":[189],"trial_type":"ticket-choose","trial_index":47,"time_elapsed":104973,"internal_node_id":"0.0-47.0"},{"result":164,"points":1,"place":4,"phase":0,"sequence":39,"times":[84],"trial_type":"ticket-choose","trial_index":48,"time_elapsed":106349,"internal_node_id":"0.0-48.0"},{"result":201,"points":0,"place":9,"phase":0,"sequence":40,"times":[237],"trial_type":"ticket-choose","trial_index":49,"time_elapsed":107901,"internal_node_id":"0.0-49.0"},{"result":178,"points":1,"place":4,"phase":0,"sequence":41,"times":[124],"trial_type":"ticket-choose","trial_index":50,"time_elapsed":109309,"internal_node_id":"0.0-50.0"},{"result":188,"points":1,"place":4,"phase":0,"sequence":42,"times":[132],"trial_type":"ticket-choose","trial_index":51,"time_elapsed":110726,"internal_node_id":"0.0-51.0"},{"result":203,"points":0,"place":8,"phase":0,"sequence":43,"times":[60],"trial_type":"ticket-choose","trial_index":52,"time_elapsed":112069,"internal_node_id":"0.0-52.0"},{"result":161,"points":3,"place":0,"phase":0,"sequence":44,"times":[164],"trial_type":"ticket-choose","trial_index":53,"time_elapsed":113509,"internal_node_id":"0.0-53.0"},{"result":189,"points":0,"place":7,"phase":0,"sequence":45,"times":[148],"trial_type":"ticket-choose","trial_index":54,"time_elapsed":114981,"internal_node_id":"0.0-54.0"},{"result":168,"points":1,"place":2,"phase":0,"sequence":46,"times":[180],"trial_type":"ticket-choose","trial_index":55,"time_elapsed":116461,"internal_node_id":"0.0-55.0"},{"result":168,"points":1,"place":2,"phase":0,"sequence":47,"times":[541],"trial_type":"ticket-choose","trial_index":56,"time_elapsed":118909,"internal_node_id":"0.0-56.0"},{"result":178,"points":1,"place":4,"phase":0,"sequence":48,"times":[557],"trial_type":"ticket-choose","trial_index":57,"time_elapsed":121245,"internal_node_id":"0.0-57.0"},{"result":183,"points":0,"place":6,"phase":0,"sequence":49,"times":[612],"trial_type":"ticket-choose","trial_index":58,"time_elapsed":123765,"internal_node_id":"0.0-58.0"},{"responses":[{"value":0,"offby":0,"category":"$106 - $134","category_index":0},{"value":0,"offby":-1,"category":"$135 - $150","category_index":1},{"value":0,"offby":-3,"category":"$151 - $165","category_index":2},{"value":0,"offby":-6,"category":"$166 - $180","category_index":3},{"value":0,"offby":-6,"category":"$181 - $195","category_index":4},{"value":0,"offby":-3,"category":"$196 - $210","category_index":5},{"value":0,"offby":-1,"category":"$211 - $225","category_index":6}],"phase":0,"number":1,"trial_type":"bar-choose","trial_index":59,"time_elapsed":126149,"internal_node_id":"0.0-59.0"},{"rt":589,"url":"\/tickets\/utils\/start2.html","trial_type":"html","trial_index":60,"time_elapsed":127741,"internal_node_id":"0.0-60.0"},{"responses":[{"value":0,"offby":-1,"category":"$105 - $130","category_index":0},{"value":0,"offby":-2,"category":"$131 - $155","category_index":1},{"value":0,"offby":-2,"category":"$156 - $180","category_index":2},{"value":0,"offby":-5,"category":"$181 - $205","category_index":3},{"value":0,"offby":-5,"category":"$206 - $230","category_index":4},{"value":0,"offby":-3,"category":"$231 - $255","category_index":5},{"value":0,"offby":-2,"category":"$256 - $280","category_index":6}],"phase":1,"number":0,"trial_type":"bar-choose","trial_index":61,"time_elapsed":130501,"internal_node_id":"0.0-61.0"},{"rt":749,"url":"\/tickets\/utils\/testing2.html","trial_type":"html","trial_index":62,"time_elapsed":132253,"internal_node_id":"0.0-62.0"},{"phase":1,"order":[],"trial_type":"store_order","trial_index":63,"time_elapsed":133254,"internal_node_id":"0.0-63.0"},{"result":194,"points":1,"place":4,"phase":1,"sequence":0,"times":[491],"trial_type":"ticket-choose","trial_index":64,"time_elapsed":135101,"internal_node_id":"0.0-64.0"},{"result":181,"points":1,"place":4,"phase":1,"sequence":1,"times":[187],"trial_type":"ticket-choose","trial_index":65,"time_elapsed":136565,"internal_node_id":"0.0-65.0"},{"result":202,"points":0,"place":5,"phase":1,"sequence":2,"times":[116],"trial_type":"ticket-choose","trial_index":66,"time_elapsed":137941,"internal_node_id":"0.0-66.0"},{"responses":[{"value":0,"offby":-1,"category":"$105 - $130","category_index":0},{"value":0,"offby":-2,"category":"$131 - $155","category_index":1},{"value":0,"offby":-2,"category":"$156 - $180","category_index":2},{"value":0,"offby":-5,"category":"$181 - $205","category_index":3},{"value":0,"offby":-5,"category":"$206 - $230","category_index":4},{"value":0,"offby":-3,"category":"$231 - $255","category_index":5},{"value":0,"offby":-2,"category":"$256 - $280","category_index":6}],"phase":1,"number":1,"trial_type":"bar-choose","trial_index":67,"time_elapsed":139750,"internal_node_id":"0.0-67.0"},{"during":"Nothing","trial_type":"final","trial_index":68,"time_elapsed":151718,"internal_node_id":"0.0-68.0"}]}