{"start_time":"2017-01-18 15:56:44","end_time":"2017-01-18 15:57:55","points_phase0":1,"points_phase1":3,"phase_order":0,"age":23,"gender":"m","tries":1,"during":"Nothing","subject_id":"1234","data":[{"rt":2481,"url":"\/tickets\/utils\/consent.html","trial_type":"html","trial_index":0,"time_elapsed":2494,"internal_node_id":"0.0-0.0"},{"age":23,"gender":"m","trial_type":"age","trial_index":1,"time_elapsed":5165,"internal_node_id":"0.0-1.0"},{"tries":1,"trial_type":"instructions_check","trial_index":2,"time_elapsed":7952,"internal_node_id":"0.0-2.0"},{"rt":604,"url":"\/tickets\/utils\/start.html","trial_type":"html","trial_index":3,"time_elapsed":9572,"internal_node_id":"0.0-3.0"},{"responses":[{"value":0,"offby":0,"category":"$106 - $134","category_index":0},{"value":0,"offby":-1,"category":"$135 - $150","category_index":1},{"value":0,"offby":-3,"category":"$151 - $165","category_index":2},{"value":0,"offby":-6,"category":"$166 - $180","category_index":3},{"value":0,"offby":-6,"category":"$181 - $195","category_index":4},{"value":0,"offby":-3,"category":"$196 - $210","category_index":5},{"value":0,"offby":-1,"category":"$211 - $225","category_index":6}],"phase":0,"number":0,"trial_type":"bar-choose","trial_index":4,"time_elapsed":13158,"internal_node_id":"0.0-4.0"},{"rt":575,"url":"\/tickets\/\/utils\/testing.html","trial_type":"html","trial_index":5,"time_elapsed":14745,"internal_node_id":"0.0-5.0"},{"phase":0,"order":[49,30,15,32,43,38,22,21,34,6,37,27,0,19,47,17,33,36,29,26,40,8,18,11,14,10,42,35,39,5,9,41,16,13,44,3,24,4,46,31,23,25,20,7,1,2,28,48,12,45],"trial_type":"store_order","trial_index":6,"time_elapsed":15761,"internal_node_id":"0.0-6.0"},{"result":180,"points":1,"place":2,"phase":0,"sequence":-1,"times":[1009,225],"trial_type":"ticket-choose","trial_index":7,"time_elapsed":19059,"internal_node_id":"0.0-7.0"},{"rt":878,"url":"\/tickets\/utils\/testing_after.html","trial_type":"html","trial_index":8,"time_elapsed":20955,"internal_node_id":"0.0-8.0"},{"result":183,"points":0,"place":6,"phase":0,"sequence":0,"times":[1176],"trial_type":"ticket-choose","trial_index":9,"time_elapsed":23898,"internal_node_id":"0.0-9.0"},{"result":196,"points":0,"place":7,"phase":0,"sequence":1,"times":[564,121],"trial_type":"ticket-choose","trial_index":10,"time_elapsed":26488,"internal_node_id":"0.0-10.0"},{"result":178,"points":1,"place":4,"phase":0,"sequence":2,"times":[670],"trial_type":"ticket-choose","trial_index":11,"time_elapsed":29021,"internal_node_id":"0.0-11.0"},{"responses":[{"value":0,"offby":0,"category":"$106 - $134","category_index":0},{"value":0,"offby":-1,"category":"$135 - $150","category_index":1},{"value":0,"offby":-3,"category":"$151 - $165","category_index":2},{"value":0,"offby":-6,"category":"$166 - $180","category_index":3},{"value":0,"offby":-6,"category":"$181 - $195","category_index":4},{"value":0,"offby":-3,"category":"$196 - $210","category_index":5},{"value":0,"offby":-1,"category":"$211 - $225","category_index":6}],"phase":0,"number":1,"trial_type":"bar-choose","trial_index":12,"time_elapsed":33022,"internal_node_id":"0.0-12.0"},{"rt":946,"url":"\/tickets\/utils\/start2.html","trial_type":"html","trial_index":13,"time_elapsed":34984,"internal_node_id":"0.0-13.0"},{"responses":[{"value":0,"offby":-1,"category":"$105 - $130","category_index":0},{"value":0,"offby":-2,"category":"$131 - $155","category_index":1},{"value":0,"offby":-2,"category":"$156 - $180","category_index":2},{"value":0,"offby":-5,"category":"$181 - $205","category_index":3},{"value":0,"offby":-5,"category":"$206 - $230","category_index":4},{"value":0,"offby":-3,"category":"$231 - $255","category_index":5},{"value":0,"offby":-2,"category":"$256 - $280","category_index":6}],"phase":1,"number":0,"trial_type":"bar-choose","trial_index":14,"time_elapsed":38916,"internal_node_id":"0.0-14.0"},{"rt":546,"url":"\/tickets\/utils\/testing2.html","trial_type":"html","trial_index":15,"time_elapsed":40479,"internal_node_id":"0.0-15.0"},{"phase":1,"order":[],"trial_type":"store_order","trial_index":16,"time_elapsed":41484,"internal_node_id":"0.0-16.0"},{"result":242,"points":0,"place":7,"phase":1,"sequence":0,"times":[672],"trial_type":"ticket-choose","trial_index":17,"time_elapsed":44899,"internal_node_id":"0.0-17.0"},{"result":154,"points":3,"place":0,"phase":1,"sequence":1,"times":[2148],"trial_type":"ticket-choose","trial_index":18,"time_elapsed":50023,"internal_node_id":"0.0-18.0"},{"result":205,"points":0,"place":6,"phase":1,"sequence":2,"times":[809,139],"trial_type":"ticket-choose","trial_index":19,"time_elapsed":52955,"internal_node_id":"0.0-19.0"},{"responses":[{"value":0,"offby":-1,"category":"$105 - $130","category_index":0},{"value":0,"offby":-2,"category":"$131 - $155","category_index":1},{"value":0,"offby":-2,"category":"$156 - $180","category_index":2},{"value":0,"offby":-5,"category":"$181 - $205","category_index":3},{"value":0,"offby":-5,"category":"$206 - $230","category_index":4},{"value":0,"offby":-3,"category":"$231 - $255","category_index":5},{"value":0,"offby":-2,"category":"$256 - $280","category_index":6}],"phase":1,"number":1,"trial_type":"bar-choose","trial_index":20,"time_elapsed":56905,"internal_node_id":"0.0-20.0"},{"during":"Nothing","trial_type":"final","trial_index":21,"time_elapsed":69090,"internal_node_id":"0.0-21.0"}]}