{"start_time":"2017-01-20 09:16:50","end_time":"2017-01-20 09:18:03","points_phase0":2,"points_phase1":1,"phase_order":0,"age":33,"gender":"m","tries":1,"during":"Nothing","worker_id":"1239999999","assignment_id":"","data":[{"rt":2937,"url":"\/tickets\/utils\/consent.html","trial_type":"html","trial_index":0,"time_elapsed":3115,"internal_node_id":"0.0-0.0"},{"age":33,"gender":"m","trial_type":"age","trial_index":1,"time_elapsed":6615,"internal_node_id":"0.0-1.0"},{"tries":1,"trial_type":"instructions_check","trial_index":2,"time_elapsed":10022,"internal_node_id":"0.0-2.0"},{"rt":866,"url":"\/tickets\/utils\/start.html","trial_type":"html","trial_index":3,"time_elapsed":12067,"internal_node_id":"0.0-3.0"},{"responses":[{"value":0,"offby":0,"category":"$106 - $134","category_index":0},{"value":0,"offby":-1,"category":"$135 - $150","category_index":1},{"value":0,"offby":-3,"category":"$151 - $165","category_index":2},{"value":0,"offby":-6,"category":"$166 - $180","category_index":3},{"value":0,"offby":-6,"category":"$181 - $195","category_index":4},{"value":0,"offby":-3,"category":"$196 - $210","category_index":5},{"value":0,"offby":-1,"category":"$211 - $225","category_index":6}],"phase":0,"number":0,"trial_type":"bar-choose","trial_index":4,"time_elapsed":17897,"internal_node_id":"0.0-4.0"},{"rt":687,"url":"\/tickets\/\/utils\/testing.html","trial_type":"html","trial_index":5,"time_elapsed":19765,"internal_node_id":"0.0-5.0"},{"phase":0,"order":[39,4,7,49,14,16,19,29,30,47,28,43,15,8,41,32,0,22,20,5,48,11,9,1,17,33,13,46,40,36,31,25,3,38,42,37,27,34,45,6,23,21,18,2,26,12,24,35,44,10],"trial_type":"store_order","trial_index":6,"time_elapsed":20766,"internal_node_id":"0.0-6.0"},{"result":184,"points":1,"place":4,"phase":0,"sequence":-1,"times":[1189],"trial_type":"ticket-choose","trial_index":7,"time_elapsed":23708,"internal_node_id":"0.0-7.0"},{"rt":552,"url":"\/tickets\/utils\/testing_after.html","trial_type":"html","trial_index":8,"time_elapsed":25356,"internal_node_id":"0.0-8.0"},{"result":189,"points":0,"place":7,"phase":0,"sequence":0,"times":[667],"trial_type":"ticket-choose","trial_index":9,"time_elapsed":27920,"internal_node_id":"0.0-9.0"},{"result":179,"points":1,"place":4,"phase":0,"sequence":1,"times":[695],"trial_type":"ticket-choose","trial_index":10,"time_elapsed":30599,"internal_node_id":"0.0-10.0"},{"result":183,"points":1,"place":4,"phase":0,"sequence":2,"times":[403],"trial_type":"ticket-choose","trial_index":11,"time_elapsed":32687,"internal_node_id":"0.0-11.0"},{"responses":[{"value":0,"offby":0,"category":"$106 - $134","category_index":0},{"value":0,"offby":-1,"category":"$135 - $150","category_index":1},{"value":0,"offby":-3,"category":"$151 - $165","category_index":2},{"value":0,"offby":-6,"category":"$166 - $180","category_index":3},{"value":0,"offby":-6,"category":"$181 - $195","category_index":4},{"value":0,"offby":-3,"category":"$196 - $210","category_index":5},{"value":0,"offby":-1,"category":"$211 - $225","category_index":6}],"phase":0,"number":1,"trial_type":"bar-choose","trial_index":12,"time_elapsed":38266,"internal_node_id":"0.0-12.0"},{"rt":583,"url":"\/tickets\/utils\/start2.html","trial_type":"html","trial_index":13,"time_elapsed":40029,"internal_node_id":"0.0-13.0"},{"responses":[{"value":0,"offby":-1,"category":"$105 - $130","category_index":0},{"value":0,"offby":-2,"category":"$131 - $155","category_index":1},{"value":0,"offby":-2,"category":"$156 - $180","category_index":2},{"value":0,"offby":-5,"category":"$181 - $205","category_index":3},{"value":0,"offby":-5,"category":"$206 - $230","category_index":4},{"value":0,"offby":-3,"category":"$231 - $255","category_index":5},{"value":0,"offby":-2,"category":"$256 - $280","category_index":6}],"phase":1,"number":0,"trial_type":"bar-choose","trial_index":14,"time_elapsed":44650,"internal_node_id":"0.0-14.0"},{"rt":641,"url":"\/tickets\/utils\/testing2.html","trial_type":"html","trial_index":15,"time_elapsed":46469,"internal_node_id":"0.0-15.0"},{"phase":1,"order":[],"trial_type":"store_order","trial_index":16,"time_elapsed":47470,"internal_node_id":"0.0-16.0"},{"result":284,"points":0,"place":9,"phase":1,"sequence":0,"times":[1052],"trial_type":"ticket-choose","trial_index":17,"time_elapsed":50239,"internal_node_id":"0.0-17.0"},{"result":202,"points":0,"place":6,"phase":1,"sequence":1,"times":[470],"trial_type":"ticket-choose","trial_index":18,"time_elapsed":52366,"internal_node_id":"0.0-18.0"},{"result":196,"points":1,"place":4,"phase":1,"sequence":2,"times":[482],"trial_type":"ticket-choose","trial_index":19,"time_elapsed":54525,"internal_node_id":"0.0-19.0"},{"responses":[{"value":0,"offby":-1,"category":"$105 - $130","category_index":0},{"value":0,"offby":-2,"category":"$131 - $155","category_index":1},{"value":0,"offby":-2,"category":"$156 - $180","category_index":2},{"value":0,"offby":-5,"category":"$181 - $205","category_index":3},{"value":0,"offby":-5,"category":"$206 - $230","category_index":4},{"value":0,"offby":-3,"category":"$231 - $255","category_index":5},{"value":0,"offby":-2,"category":"$256 - $280","category_index":6}],"phase":1,"number":1,"trial_type":"bar-choose","trial_index":20,"time_elapsed":59074,"internal_node_id":"0.0-20.0"},{"during":"Nothing","trial_type":"final","trial_index":21,"time_elapsed":71006,"internal_node_id":"0.0-21.0"}]}