{"start_time":"2017-01-18 17:52:38","end_time":"2017-01-18 17:54:07","points_phase0":3,"points_phase1":6,"phase_order":1,"age":33,"gender":"m","tries":1,"during":"Nothing","subject_id":"123","data":[{"rt":2282,"url":"\/tickets\/utils\/consent.html","trial_type":"html","trial_index":0,"time_elapsed":2286,"internal_node_id":"0.0-0.0"},{"age":33,"gender":"m","trial_type":"age","trial_index":1,"time_elapsed":6114,"internal_node_id":"0.0-1.0"},{"tries":1,"trial_type":"instructions_check","trial_index":2,"time_elapsed":15757,"internal_node_id":"0.0-2.0"},{"rt":754,"url":"\/tickets\/utils\/start.html","trial_type":"html","trial_index":3,"time_elapsed":17664,"internal_node_id":"0.0-3.0"},{"responses":[{"value":0,"offby":-1,"category":"$105 - $130","category_index":0},{"value":0,"offby":-2,"category":"$131 - $155","category_index":1},{"value":0,"offby":-2,"category":"$156 - $180","category_index":2},{"value":10,"offby":5,"category":"$181 - $205","category_index":3},{"value":0,"offby":-5,"category":"$206 - $230","category_index":4},{"value":0,"offby":-3,"category":"$231 - $255","category_index":5},{"value":0,"offby":-2,"category":"$256 - $280","category_index":6}],"phase":0,"number":0,"trial_type":"bar-choose","trial_index":4,"time_elapsed":25159,"internal_node_id":"0.0-4.0"},{"rt":742,"url":"\/tickets\/\/utils\/testing.html","trial_type":"html","trial_index":5,"time_elapsed":27079,"internal_node_id":"0.0-5.0"},{"phase":0,"order":[24,35,7,27,16,41,1,33,30,17,3,8,15,48,45,9,4,13,28,21,49,39,37,29,32,38,23,18,44,6,2,26,19,40,47,10,0,14,42,20,46,22,12,5,25,31,43,11,34,36],"trial_type":"store_order","trial_index":6,"time_elapsed":28080,"internal_node_id":"0.0-6.0"},{"result":180,"points":1,"place":2,"phase":0,"sequence":-1,"times":[1111,826],"trial_type":"ticket-choose","trial_index":7,"time_elapsed":32067,"internal_node_id":"0.0-7.0"},{"rt":748,"url":"\/tickets\/utils\/testing_after.html","trial_type":"html","trial_index":8,"time_elapsed":33968,"internal_node_id":"0.0-8.0"},{"result":233,"points":0,"place":6,"phase":0,"sequence":0,"times":[628,389],"trial_type":"ticket-choose","trial_index":9,"time_elapsed":37026,"internal_node_id":"0.0-9.0"},{"result":270,"points":0,"place":9,"phase":0,"sequence":1,"times":[592,376],"trial_type":"ticket-choose","trial_index":10,"time_elapsed":40007,"internal_node_id":"0.0-10.0"},{"result":158,"points":3,"place":0,"phase":0,"sequence":2,"times":[589],"trial_type":"ticket-choose","trial_index":11,"time_elapsed":42326,"internal_node_id":"0.0-11.0"},{"responses":[{"value":0,"offby":-1,"category":"$105 - $130","category_index":0},{"value":0,"offby":-2,"category":"$131 - $155","category_index":1},{"value":0,"offby":-2,"category":"$156 - $180","category_index":2},{"value":0,"offby":-5,"category":"$181 - $205","category_index":3},{"value":0,"offby":-5,"category":"$206 - $230","category_index":4},{"value":0,"offby":-3,"category":"$231 - $255","category_index":5},{"value":0,"offby":-2,"category":"$256 - $280","category_index":6}],"phase":0,"number":1,"trial_type":"bar-choose","trial_index":12,"time_elapsed":46705,"internal_node_id":"0.0-12.0"},{"rt":605,"url":"\/tickets\/utils\/start2.html","trial_type":"html","trial_index":13,"time_elapsed":48459,"internal_node_id":"0.0-13.0"},{"responses":[{"value":0,"offby":0,"category":"$106 - $134","category_index":0},{"value":0,"offby":-1,"category":"$135 - $150","category_index":1},{"value":0,"offby":-3,"category":"$151 - $165","category_index":2},{"value":6,"offby":0,"category":"$166 - $180","category_index":3},{"value":0,"offby":-6,"category":"$181 - $195","category_index":4},{"value":0,"offby":-3,"category":"$196 - $210","category_index":5},{"value":0,"offby":-1,"category":"$211 - $225","category_index":6}],"phase":1,"number":0,"trial_type":"bar-choose","trial_index":14,"time_elapsed":53743,"internal_node_id":"0.0-14.0"},{"rt":642,"url":"\/tickets\/utils\/testing2.html","trial_type":"html","trial_index":15,"time_elapsed":55562,"internal_node_id":"0.0-15.0"},{"phase":1,"order":[],"trial_type":"store_order","trial_index":16,"time_elapsed":56564,"internal_node_id":"0.0-16.0"},{"result":169,"points":3,"place":0,"phase":1,"sequence":0,"times":[1173],"trial_type":"ticket-choose","trial_index":17,"time_elapsed":60290,"internal_node_id":"0.0-17.0"},{"result":154,"points":2,"place":1,"phase":1,"sequence":1,"times":[1445,410],"trial_type":"ticket-choose","trial_index":18,"time_elapsed":64166,"internal_node_id":"0.0-18.0"},{"result":183,"points":1,"place":4,"phase":1,"sequence":2,"times":[821],"trial_type":"ticket-choose","trial_index":19,"time_elapsed":66712,"internal_node_id":"0.0-19.0"},{"responses":[{"value":0,"offby":0,"category":"$106 - $134","category_index":0},{"value":0,"offby":-1,"category":"$135 - $150","category_index":1},{"value":0,"offby":-3,"category":"$151 - $165","category_index":2},{"value":0,"offby":-6,"category":"$166 - $180","category_index":3},{"value":0,"offby":-6,"category":"$181 - $195","category_index":4},{"value":0,"offby":-3,"category":"$196 - $210","category_index":5},{"value":0,"offby":-1,"category":"$211 - $225","category_index":6}],"phase":1,"number":1,"trial_type":"bar-choose","trial_index":20,"time_elapsed":72275,"internal_node_id":"0.0-20.0"},{"during":"Nothing","trial_type":"final","trial_index":21,"time_elapsed":86826,"internal_node_id":"0.0-21.0"}]}