{"start_time":"2017-01-21 10:23:41","end_time":"2017-01-21 10:25:03","points_phase0":4,"points_phase1":0,"phase_order":1,"age":78,"gender":"m","tries":1,"during":"Eating","worker_id":"456456","assignment_id":"45645","data":[{"rt":972,"url":"\/tickets\/utils\/consent.html","trial_type":"html","trial_index":0,"time_elapsed":978,"internal_node_id":"0.0-0.0"},{"age":78,"gender":"m","trial_type":"age","trial_index":1,"time_elapsed":3835,"internal_node_id":"0.0-1.0"},{"tries":1,"trial_type":"instructions_check","trial_index":2,"time_elapsed":6362,"internal_node_id":"0.0-2.0"},{"rt":473,"url":"\/tickets\/utils\/start.html","trial_type":"html","trial_index":3,"time_elapsed":7841,"internal_node_id":"0.0-3.0"},{"responses":[{"value":0,"offby":-1,"category":"$105 - $130","category_index":0},{"value":0,"offby":-2,"category":"$131 - $155","category_index":1},{"value":0,"offby":-2,"category":"$156 - $180","category_index":2},{"value":0,"offby":-5,"category":"$181 - $205","category_index":3},{"value":0,"offby":-5,"category":"$206 - $230","category_index":4},{"value":0,"offby":-3,"category":"$231 - $255","category_index":5},{"value":0,"offby":-2,"category":"$256 - $280","category_index":6}],"phase":0,"number":0,"trial_type":"bar-choose","trial_index":4,"time_elapsed":9841,"internal_node_id":"0.0-4.0"},{"rt":557,"url":"\/tickets\/\/utils\/testing.html","trial_type":"html","trial_index":5,"time_elapsed":11401,"internal_node_id":"0.0-5.0"},{"phase":0,"order":[6,0,20,47,11,46,29,34,42,22,44,1,40,31,2,35,37,18,38,48,32,26,49,8,14,13,17,9,24,3,5,4,43,15,39,25,19,45,27,33,7,23,41,30,21,28,16,10,12,36],"trial_type":"store_order","trial_index":6,"time_elapsed":12402,"internal_node_id":"0.0-6.0"},{"result":180,"points":1,"place":2,"phase":0,"sequence":-1,"times":[706,15],"next_num":2,"trial_type":"ticket-choose","trial_index":7,"time_elapsed":14961,"internal_node_id":"0.0-7.0"},{"rt":413,"url":"\/tickets\/utils\/testing_after.html","trial_type":"html","trial_index":8,"time_elapsed":16377,"internal_node_id":"0.0-8.0"},{"result":196,"points":1,"place":4,"phase":0,"sequence":0,"times":[540],"next_num":1,"trial_type":"ticket-choose","trial_index":9,"time_elapsed":18577,"internal_node_id":"0.0-9.0"},{"result":202,"points":0,"place":6,"phase":0,"sequence":1,"times":[436],"next_num":1,"trial_type":"ticket-choose","trial_index":10,"time_elapsed":20737,"internal_node_id":"0.0-10.0"},{"result":154,"points":3,"place":0,"phase":0,"sequence":2,"times":[460],"next_num":1,"trial_type":"ticket-choose","trial_index":11,"time_elapsed":22969,"internal_node_id":"0.0-11.0"},{"responses":[{"value":0,"offby":-1,"category":"$105 - $130","category_index":0},{"value":0,"offby":-2,"category":"$131 - $155","category_index":1},{"value":0,"offby":-2,"category":"$156 - $180","category_index":2},{"value":0,"offby":-5,"category":"$181 - $205","category_index":3},{"value":0,"offby":-5,"category":"$206 - $230","category_index":4},{"value":0,"offby":-3,"category":"$231 - $255","category_index":5},{"value":0,"offby":-2,"category":"$256 - $280","category_index":6}],"phase":0,"number":1,"trial_type":"bar-choose","trial_index":12,"time_elapsed":24825,"internal_node_id":"0.0-12.0"},{"rt":517,"url":"\/tickets\/utils\/start2.html","trial_type":"html","trial_index":13,"time_elapsed":26345,"internal_node_id":"0.0-13.0"},{"responses":[{"value":0,"offby":0,"category":"$106 - $134","category_index":0},{"value":0,"offby":-1,"category":"$135 - $150","category_index":1},{"value":0,"offby":-3,"category":"$151 - $165","category_index":2},{"value":0,"offby":-6,"category":"$166 - $180","category_index":3},{"value":0,"offby":-6,"category":"$181 - $195","category_index":4},{"value":0,"offby":-3,"category":"$196 - $210","category_index":5},{"value":0,"offby":-1,"category":"$211 - $225","category_index":6}],"phase":1,"number":0,"trial_type":"bar-choose","trial_index":14,"time_elapsed":28713,"internal_node_id":"0.0-14.0"},{"rt":589,"url":"\/tickets\/utils\/testing2.html","trial_type":"html","trial_index":15,"time_elapsed":30305,"internal_node_id":"0.0-15.0"},{"phase":1,"order":[0,34,26,48,15,35,11,49,16,44,10,40,4,19,3,22,36,45,30,38,27,29,32,46,24,25,39,37,43,9,23,17,6,7,8,2,13,47,21,33,31,12,1,41,42,20,18,14,5,28],"trial_type":"store_order","trial_index":16,"time_elapsed":31305,"internal_node_id":"0.0-16.0"},{"result":206,"points":0,"place":8,"phase":1,"sequence":0,"times":[732,551,535,615,567,559,775,559,936],"next_num":9,"trial_type":"ticket-choose","trial_index":17,"time_elapsed":41009,"internal_node_id":"0.0-17.0"},{"result":200,"points":0,"place":8,"phase":1,"sequence":1,"times":[693,527,543,647,439,591,599,646,1159],"next_num":9,"trial_type":"ticket-choose","trial_index":18,"time_elapsed":50401,"internal_node_id":"0.0-18.0"},{"result":224,"points":0,"place":9,"phase":1,"sequence":2,"times":[772,1320,544,584,591,800],"next_num":6,"trial_type":"ticket-choose","trial_index":19,"time_elapsed":58137,"internal_node_id":"0.0-19.0"},{"responses":[{"value":0,"offby":0,"category":"$106 - $134","category_index":0},{"value":0,"offby":-1,"category":"$135 - $150","category_index":1},{"value":0,"offby":-3,"category":"$151 - $165","category_index":2},{"value":0,"offby":-6,"category":"$166 - $180","category_index":3},{"value":0,"offby":-6,"category":"$181 - $195","category_index":4},{"value":0,"offby":-3,"category":"$196 - $210","category_index":5},{"value":0,"offby":-1,"category":"$211 - $225","category_index":6}],"phase":1,"number":1,"trial_type":"bar-choose","trial_index":20,"time_elapsed":60225,"internal_node_id":"0.0-20.0"},{"during":"Eating","bonus":4,"trial_type":"final","trial_index":21,"time_elapsed":79850,"internal_node_id":"0.0-21.0"}],"bonus":4}