{"start_time":"2017-01-17 20:34:11","end_time":"2017-01-17 20:35:11","points_phase0":5,"points_phase1":6,"phase_order":1,"age":23,"gender":"m","tries":1,"during":"Nothing","subject_id":"50768","data":[{"rt":3314,"url":"\/tickets\/utils\/consent.html","trial_type":"html","trial_index":0,"time_elapsed":3319,"internal_node_id":"0.0-0.0"},{"age":23,"gender":"m","trial_type":"age","trial_index":1,"time_elapsed":6048,"internal_node_id":"0.0-1.0"},{"tries":1,"trial_type":"instructions_check","trial_index":2,"time_elapsed":10728,"internal_node_id":"0.0-2.0"},{"rt":508,"url":"\/tickets\/utils\/start.html","trial_type":"html","trial_index":3,"time_elapsed":12238,"internal_node_id":"0.0-3.0"},{"responses":[{"value":0,"offby":-1,"category":"$105 - $130","category_index":0},{"value":0,"offby":-2,"category":"$131 - $155","category_index":1},{"value":0,"offby":-2,"category":"$156 - $180","category_index":2},{"value":0,"offby":-5,"category":"$181 - $205","category_index":3},{"value":0,"offby":-5,"category":"$206 - $230","category_index":4},{"value":0,"offby":-3,"category":"$231 - $255","category_index":5},{"value":0,"offby":-2,"category":"$256 - $280","category_index":6}],"phase":0,"number":0,"trial_type":"bar-choose","trial_index":4,"time_elapsed":14903,"internal_node_id":"0.0-4.0"},{"rt":805,"url":"\/tickets\/\/utils\/testing.html","trial_type":"html","trial_index":5,"time_elapsed":16710,"internal_node_id":"0.0-5.0"},{"0":20,"1":26,"2":23,"3":47,"4":8,"5":49,"6":24,"7":12,"8":4,"9":37,"10":21,"11":33,"12":18,"13":1,"14":14,"15":46,"16":45,"17":42,"18":5,"19":30,"20":17,"21":34,"22":19,"23":27,"24":48,"25":16,"26":0,"27":31,"28":9,"29":11,"30":35,"31":38,"32":40,"33":22,"34":15,"35":10,"36":13,"37":32,"38":36,"39":41,"40":6,"41":25,"42":39,"43":44,"44":43,"45":2,"46":7,"47":28,"48":3,"49":29,"data_tag":"p1_testing_order","data":[20,26,23,47,8,49,24,12,4,37,21,33,18,1,14,46,45,42,5,30,17,34,19,27,48,16,0,31,9,11,35,38,40,22,15,10,13,32,36,41,6,25,39,44,43,2,7,28,3,29],"trial_type":"store_data","trial_index":6,"time_elapsed":17712,"internal_node_id":"0.0-6.0"},{"result":184,"points":1,"place":4,"phase":0,"sequence":-1,"times":[785],"trial_type":"ticket-choose","trial_index":7,"time_elapsed":20215,"internal_node_id":"0.0-7.0"},{"rt":517,"url":"\/tickets\/utils\/testing_after.html","trial_type":"html","trial_index":8,"time_elapsed":21734,"internal_node_id":"0.0-8.0"},{"result":145,"points":3,"place":0,"phase":0,"sequence":0,"times":[549],"trial_type":"ticket-choose","trial_index":9,"time_elapsed":23982,"internal_node_id":"0.0-9.0"},{"result":198,"points":1,"place":4,"phase":0,"sequence":1,"times":[492],"trial_type":"ticket-choose","trial_index":10,"time_elapsed":26222,"internal_node_id":"0.0-10.0"},{"result":194,"points":1,"place":4,"phase":0,"sequence":2,"times":[420],"trial_type":"ticket-choose","trial_index":11,"time_elapsed":28654,"internal_node_id":"0.0-11.0"},{"responses":[{"value":0,"offby":-1,"category":"$105 - $130","category_index":0},{"value":0,"offby":-2,"category":"$131 - $155","category_index":1},{"value":0,"offby":-2,"category":"$156 - $180","category_index":2},{"value":0,"offby":-5,"category":"$181 - $205","category_index":3},{"value":0,"offby":-5,"category":"$206 - $230","category_index":4},{"value":0,"offby":-3,"category":"$231 - $255","category_index":5},{"value":0,"offby":-2,"category":"$256 - $280","category_index":6}],"phase":0,"number":1,"trial_type":"bar-choose","trial_index":12,"time_elapsed":30983,"internal_node_id":"0.0-12.0"},{"rt":574,"url":"\/tickets\/utils\/start2.html","trial_type":"html","trial_index":13,"time_elapsed":32558,"internal_node_id":"0.0-13.0"},{"responses":[{"value":0,"offby":0,"category":"$106 - $134","category_index":0},{"value":0,"offby":-1,"category":"$135 - $150","category_index":1},{"value":0,"offby":-3,"category":"$151 - $165","category_index":2},{"value":0,"offby":-6,"category":"$166 - $180","category_index":3},{"value":0,"offby":-6,"category":"$181 - $195","category_index":4},{"value":0,"offby":-3,"category":"$196 - $210","category_index":5},{"value":0,"offby":-1,"category":"$211 - $225","category_index":6}],"phase":1,"number":0,"trial_type":"bar-choose","trial_index":14,"time_elapsed":34871,"internal_node_id":"0.0-14.0"},{"rt":590,"url":"\/tickets\/utils\/testing2.html","trial_type":"html","trial_index":15,"time_elapsed":36462,"internal_node_id":"0.0-15.0"},{"0":22,"1":4,"2":9,"3":1,"4":2,"5":0,"6":23,"7":18,"8":33,"9":36,"10":48,"11":15,"12":28,"13":34,"14":20,"15":5,"16":45,"17":24,"18":12,"19":44,"20":14,"21":7,"22":32,"23":3,"24":10,"25":39,"26":40,"27":38,"28":19,"29":42,"30":11,"31":46,"32":27,"33":35,"34":29,"35":31,"36":17,"37":26,"38":37,"39":8,"40":41,"41":6,"42":21,"43":13,"44":47,"45":49,"46":30,"47":25,"48":43,"49":16,"data_tag":"p2_testing_order","data":[22,4,9,1,2,0,23,18,33,36,48,15,28,34,20,5,45,24,12,44,14,7,32,3,10,39,40,38,19,42,11,46,27,35,29,31,17,26,37,8,41,6,21,13,47,49,30,25,43,16],"trial_type":"store_data","trial_index":16,"time_elapsed":37463,"internal_node_id":"0.0-16.0"},{"result":193,"points":0,"place":6,"phase":1,"sequence":0,"times":[812,31],"trial_type":"ticket-choose","trial_index":17,"time_elapsed":40318,"internal_node_id":"0.0-17.0"},{"result":157,"points":3,"place":0,"phase":1,"sequence":1,"times":[476],"trial_type":"ticket-choose","trial_index":18,"time_elapsed":42406,"internal_node_id":"0.0-18.0"},{"result":168,"points":3,"place":0,"phase":1,"sequence":2,"times":[524],"trial_type":"ticket-choose","trial_index":19,"time_elapsed":44639,"internal_node_id":"0.0-19.0"},{"responses":[{"value":0,"offby":0,"category":"$106 - $134","category_index":0},{"value":0,"offby":-1,"category":"$135 - $150","category_index":1},{"value":0,"offby":-3,"category":"$151 - $165","category_index":2},{"value":0,"offby":-6,"category":"$166 - $180","category_index":3},{"value":0,"offby":-6,"category":"$181 - $195","category_index":4},{"value":0,"offby":-3,"category":"$196 - $210","category_index":5},{"value":0,"offby":-1,"category":"$211 - $225","category_index":6}],"phase":1,"number":1,"trial_type":"bar-choose","trial_index":20,"time_elapsed":46743,"internal_node_id":"0.0-20.0"},{"during":"Nothing","trial_type":"final","trial_index":21,"time_elapsed":58879,"internal_node_id":"0.0-21.0"}]}