{"start_time":"2017-01-20 22:41:31","end_time":"2017-01-20 22:42:53","points_phase0":0,"points_phase1":2,"phase_order":0,"age":78,"gender":"m","tries":1,"during":"Talking with a friend","worker_id":"987987","assignment_id":"1287663","data":[{"rt":10003,"url":"\/tickets\/utils\/consent.html","trial_type":"html","trial_index":0,"time_elapsed":10009,"internal_node_id":"0.0-0.0"},{"age":78,"gender":"m","trial_type":"age","trial_index":1,"time_elapsed":12817,"internal_node_id":"0.0-1.0"},{"tries":1,"trial_type":"instructions_check","trial_index":2,"time_elapsed":15369,"internal_node_id":"0.0-2.0"},{"rt":532,"url":"\/tickets\/utils\/start.html","trial_type":"html","trial_index":3,"time_elapsed":16904,"internal_node_id":"0.0-3.0"},{"responses":[{"value":0,"offby":0,"category":"$106 - $134","category_index":0},{"value":0,"offby":-1,"category":"$135 - $150","category_index":1},{"value":0,"offby":-3,"category":"$151 - $165","category_index":2},{"value":0,"offby":-6,"category":"$166 - $180","category_index":3},{"value":0,"offby":-6,"category":"$181 - $195","category_index":4},{"value":0,"offby":-3,"category":"$196 - $210","category_index":5},{"value":0,"offby":-1,"category":"$211 - $225","category_index":6}],"phase":0,"number":0,"trial_type":"bar-choose","trial_index":4,"time_elapsed":19834,"internal_node_id":"0.0-4.0"},{"rt":627,"url":"\/tickets\/\/utils\/testing.html","trial_type":"html","trial_index":5,"time_elapsed":21464,"internal_node_id":"0.0-5.0"},{"phase":0,"order":[11,33,22,23,17,3,9,44,45,2,1,49,15,26,10,0,20,25,34,27,30,19,42,28,21,36,29,37,4,5,8,39,13,32,12,18,24,6,41,35,47,31,14,43,40,48,16,7,46,38],"trial_type":"store_order","trial_index":6,"time_elapsed":22466,"internal_node_id":"0.0-6.0"},{"result":184,"points":1,"place":4,"phase":0,"sequence":-1,"times":[1296],"trial_type":"ticket-choose","trial_index":7,"time_elapsed":26065,"internal_node_id":"0.0-7.0"},{"rt":525,"url":"\/tickets\/utils\/testing_after.html","trial_type":"html","trial_index":8,"time_elapsed":27592,"internal_node_id":"0.0-8.0"},{"result":207,"points":0,"place":8,"phase":0,"sequence":0,"times":[460,269,270,334,302,294,302,358,326,366],"trial_type":"ticket-choose","trial_index":9,"time_elapsed":34544,"internal_node_id":"0.0-9.0"},{"result":197,"points":0,"place":7,"phase":0,"sequence":1,"times":[946],"trial_type":"ticket-choose","trial_index":10,"time_elapsed":37128,"internal_node_id":"0.0-10.0"},{"result":200,"points":0,"place":6,"phase":0,"sequence":2,"times":[523,32],"trial_type":"ticket-choose","trial_index":11,"time_elapsed":39528,"internal_node_id":"0.0-11.0"},{"responses":[{"value":0,"offby":0,"category":"$106 - $134","category_index":0},{"value":0,"offby":-1,"category":"$135 - $150","category_index":1},{"value":0,"offby":-3,"category":"$151 - $165","category_index":2},{"value":0,"offby":-6,"category":"$166 - $180","category_index":3},{"value":0,"offby":-6,"category":"$181 - $195","category_index":4},{"value":0,"offby":-3,"category":"$196 - $210","category_index":5},{"value":0,"offby":-1,"category":"$211 - $225","category_index":6}],"phase":0,"number":1,"trial_type":"bar-choose","trial_index":12,"time_elapsed":42441,"internal_node_id":"0.0-12.0"},{"rt":661,"url":"\/tickets\/utils\/start2.html","trial_type":"html","trial_index":13,"time_elapsed":44248,"internal_node_id":"0.0-13.0"},{"responses":[{"value":0,"offby":-1,"category":"$105 - $130","category_index":0},{"value":0,"offby":-2,"category":"$131 - $155","category_index":1},{"value":0,"offby":-2,"category":"$156 - $180","category_index":2},{"value":0,"offby":-5,"category":"$181 - $205","category_index":3},{"value":0,"offby":-5,"category":"$206 - $230","category_index":4},{"value":0,"offby":-3,"category":"$231 - $255","category_index":5},{"value":0,"offby":-2,"category":"$256 - $280","category_index":6}],"phase":1,"number":0,"trial_type":"bar-choose","trial_index":14,"time_elapsed":48073,"internal_node_id":"0.0-14.0"},{"rt":3800,"url":"\/tickets\/utils\/testing2.html","trial_type":"html","trial_index":15,"time_elapsed":53024,"internal_node_id":"0.0-15.0"},{"phase":1,"order":[21,49,9,35,7,30,11,24,4,43,5,8,1,0,44,23,33,34,40,14,26,41,29,25,45,31,46,20,13,27,37,10,28,36,42,6,17,16,48,32,3,18,38,19,12,47,22,2,39,15],"trial_type":"store_order","trial_index":16,"time_elapsed":54026,"internal_node_id":"0.0-16.0"},{"result":198,"points":1,"place":4,"phase":1,"sequence":0,"times":[651,655,398,358,302,334,383,304,320,470],"trial_type":"ticket-choose","trial_index":17,"time_elapsed":61978,"internal_node_id":"0.0-17.0"},{"result":206,"points":0,"place":6,"phase":1,"sequence":1,"times":[467],"trial_type":"ticket-choose","trial_index":18,"time_elapsed":64097,"internal_node_id":"0.0-18.0"},{"result":194,"points":1,"place":4,"phase":1,"sequence":2,"times":[450],"trial_type":"ticket-choose","trial_index":19,"time_elapsed":66201,"internal_node_id":"0.0-19.0"},{"responses":[{"value":0,"offby":-1,"category":"$105 - $130","category_index":0},{"value":0,"offby":-2,"category":"$131 - $155","category_index":1},{"value":0,"offby":-2,"category":"$156 - $180","category_index":2},{"value":0,"offby":-5,"category":"$181 - $205","category_index":3},{"value":0,"offby":-5,"category":"$206 - $230","category_index":4},{"value":0,"offby":-3,"category":"$231 - $255","category_index":5},{"value":0,"offby":-2,"category":"$256 - $280","category_index":6}],"phase":1,"number":1,"trial_type":"bar-choose","trial_index":20,"time_elapsed":68211,"internal_node_id":"0.0-20.0"},{"during":"Talking with a friend","trial_type":"final","trial_index":21,"time_elapsed":80858,"internal_node_id":"0.0-21.0"}]}