{"start_time":"2017-01-20 09:21:14","end_time":"2017-01-20 09:33:21","points_phase0":86,"points_phase1":87,"phase_order":1,"age":22,"gender":"m","tries":1,"during":"Nothing","worker_id":"9999999","assignment_id":"","data":[{"rt":2564,"url":"\/tickets\/utils\/consent.html","trial_type":"html","trial_index":0,"time_elapsed":2567,"internal_node_id":"0.0-0.0"},{"age":22,"gender":"m","trial_type":"age","trial_index":1,"time_elapsed":5619,"internal_node_id":"0.0-1.0"},{"tries":1,"trial_type":"instructions_check","trial_index":2,"time_elapsed":8908,"internal_node_id":"0.0-2.0"},{"rt":1331,"url":"\/tickets\/utils\/start.html","trial_type":"html","trial_index":3,"time_elapsed":11390,"internal_node_id":"0.0-3.0"},{"result":"error","trial_type":"number-animation","trial_index":4,"time_elapsed":12390,"internal_node_id":"0.0-4.0"},{"trial_type":"number-animation","trial_index":5,"time_elapsed":19034,"internal_node_id":"0.0-5.0"},{"phase":0,"sequence":0,"avg":184,"response":170,"trial_type":"training_avg","trial_index":6,"time_elapsed":22235,"internal_node_id":"0.0-6.0"},{"trial_type":"number-animation","trial_index":7,"time_elapsed":30009,"internal_node_id":"0.0-7.0"},{"phase":0,"sequence":1,"avg":199,"response":175,"trial_type":"training_avg","trial_index":8,"time_elapsed":34427,"internal_node_id":"0.0-8.0"},{"trial_type":"number-animation","trial_index":9,"time_elapsed":41416,"internal_node_id":"0.0-9.0"},{"phase":0,"sequence":2,"avg":199,"response":170,"trial_type":"training_avg","trial_index":10,"time_elapsed":44292,"internal_node_id":"0.0-10.0"},{"trial_type":"number-animation","trial_index":11,"time_elapsed":51504,"internal_node_id":"0.0-11.0"},{"phase":0,"sequence":3,"avg":210,"response":170,"trial_type":"training_avg","trial_index":12,"time_elapsed":54390,"internal_node_id":"0.0-12.0"},{"trial_type":"number-animation","trial_index":13,"time_elapsed":60992,"internal_node_id":"0.0-13.0"},{"phase":0,"sequence":4,"avg":202,"response":170,"trial_type":"training_avg","trial_index":14,"time_elapsed":63490,"internal_node_id":"0.0-14.0"},{"responses":[{"value":0,"offby":-1,"category":"$105 - $130","category_index":0},{"value":0,"offby":-2,"category":"$131 - $155","category_index":1},{"value":0,"offby":-2,"category":"$156 - $180","category_index":2},{"value":6,"offby":1,"category":"$181 - $205","category_index":3},{"value":0,"offby":-5,"category":"$206 - $230","category_index":4},{"value":0,"offby":-3,"category":"$231 - $255","category_index":5},{"value":0,"offby":-2,"category":"$256 - $280","category_index":6}],"phase":0,"number":0,"trial_type":"bar-choose","trial_index":15,"time_elapsed":69660,"internal_node_id":"0.0-15.0"},{"rt":1024,"url":"\/tickets\/\/utils\/testing.html","trial_type":"html","trial_index":16,"time_elapsed":71835,"internal_node_id":"0.0-16.0"},{"phase":0,"order":[27,41,43,17,39,8,7,30,19,44,38,35,12,37,13,11,33,5,40,14,20,36,42,22,48,3,21,1,45,31,23,32,9,49,25,16,0,26,18,4,29,34,2,46,6,28,47,10,15,24],"trial_type":"store_order","trial_index":17,"time_elapsed":72836,"internal_node_id":"0.0-17.0"},{"result":165,"points":2,"place":1,"phase":0,"sequence":-1,"times":[3579,319,380,755],"trial_type":"ticket-choose","trial_index":18,"time_elapsed":80983,"internal_node_id":"0.0-18.0"},{"rt":7856,"url":"\/tickets\/utils\/testing_after.html","trial_type":"html","trial_index":19,"time_elapsed":90019,"internal_node_id":"0.0-19.0"},{"result":259,"points":0,"place":8,"phase":0,"sequence":0,"times":[1198,305,416,504,339,320,306,540,408,456],"trial_type":"ticket-choose","trial_index":20,"time_elapsed":98351,"internal_node_id":"0.0-20.0"},{"result":145,"points":3,"place":0,"phase":0,"sequence":1,"times":[814],"trial_type":"ticket-choose","trial_index":21,"time_elapsed":100944,"internal_node_id":"0.0-21.0"},{"result":156,"points":3,"place":0,"phase":0,"sequence":2,"times":[715,579,448,422,444,450,388,432,1338,430],"trial_type":"ticket-choose","trial_index":22,"time_elapsed":110158,"internal_node_id":"0.0-22.0"},{"result":153,"points":1,"place":2,"phase":0,"sequence":3,"times":[734,303,221,430,738],"trial_type":"ticket-choose","trial_index":23,"time_elapsed":115088,"internal_node_id":"0.0-23.0"},{"result":188,"points":1,"place":4,"phase":0,"sequence":4,"times":[590,305,335,511,426,477,503,477,881],"trial_type":"ticket-choose","trial_index":24,"time_elapsed":122920,"internal_node_id":"0.0-24.0"},{"result":209,"points":0,"place":7,"phase":0,"sequence":5,"times":[552,254,343,288,275,322,459,682,433,525],"trial_type":"ticket-choose","trial_index":25,"time_elapsed":130862,"internal_node_id":"0.0-25.0"},{"result":179,"points":1,"place":4,"phase":0,"sequence":6,"times":[625],"trial_type":"ticket-choose","trial_index":26,"time_elapsed":133124,"internal_node_id":"0.0-26.0"},{"result":136,"points":3,"place":0,"phase":0,"sequence":7,"times":[748,435,650,468,464,524,748,448,809],"trial_type":"ticket-choose","trial_index":27,"time_elapsed":142074,"internal_node_id":"0.0-27.0"},{"result":181,"points":1,"place":2,"phase":0,"sequence":8,"times":[1054,597,404,422,470,551,543,610,396,520],"trial_type":"ticket-choose","trial_index":28,"time_elapsed":151848,"internal_node_id":"0.0-28.0"},{"result":148,"points":2,"place":1,"phase":0,"sequence":9,"times":[1300,453,886],"trial_type":"ticket-choose","trial_index":29,"time_elapsed":156555,"internal_node_id":"0.0-29.0"},{"result":147,"points":3,"place":0,"phase":0,"sequence":10,"times":[588,335,601,681,478,454,509,488,431,807],"trial_type":"ticket-choose","trial_index":30,"time_elapsed":165828,"internal_node_id":"0.0-30.0"},{"result":158,"points":3,"place":0,"phase":0,"sequence":11,"times":[800],"trial_type":"ticket-choose","trial_index":31,"time_elapsed":168533,"internal_node_id":"0.0-31.0"},{"result":156,"points":2,"place":1,"phase":0,"sequence":12,"times":[699,368,763,750,590,541,1013],"trial_type":"ticket-choose","trial_index":32,"time_elapsed":176203,"internal_node_id":"0.0-32.0"},{"result":148,"points":3,"place":0,"phase":0,"sequence":13,"times":[786,454,423,707,700,630,603,990],"trial_type":"ticket-choose","trial_index":33,"time_elapsed":184847,"internal_node_id":"0.0-33.0"},{"result":140,"points":2,"place":1,"phase":0,"sequence":14,"times":[1511,554,1241],"trial_type":"ticket-choose","trial_index":34,"time_elapsed":190589,"internal_node_id":"0.0-34.0"},{"result":149,"points":2,"place":1,"phase":0,"sequence":15,"times":[841,280,630,415,415,512,525,850],"trial_type":"ticket-choose","trial_index":35,"time_elapsed":198258,"internal_node_id":"0.0-35.0"},{"result":176,"points":1,"place":2,"phase":0,"sequence":16,"times":[1076,455,493,534,531,582,453,1039],"trial_type":"ticket-choose","trial_index":36,"time_elapsed":206606,"internal_node_id":"0.0-36.0"},{"result":141,"points":3,"place":0,"phase":0,"sequence":17,"times":[704],"trial_type":"ticket-choose","trial_index":37,"time_elapsed":209044,"internal_node_id":"0.0-37.0"},{"result":239,"points":0,"place":5,"phase":0,"sequence":18,"times":[722,446,486,430,482,478,680],"trial_type":"ticket-choose","trial_index":38,"time_elapsed":215656,"internal_node_id":"0.0-38.0"},{"result":212,"points":1,"place":4,"phase":0,"sequence":19,"times":[640,542,744,776,567,555,459,550,490,619],"trial_type":"ticket-choose","trial_index":39,"time_elapsed":225621,"internal_node_id":"0.0-39.0"},{"result":169,"points":3,"place":0,"phase":0,"sequence":20,"times":[1175,349,306,414,424,542,809,935],"trial_type":"ticket-choose","trial_index":40,"time_elapsed":234096,"internal_node_id":"0.0-40.0"},{"result":116,"points":3,"place":0,"phase":0,"sequence":21,"times":[644,407,306,518,609,857],"trial_type":"ticket-choose","trial_index":41,"time_elapsed":240208,"internal_node_id":"0.0-41.0"},{"result":159,"points":2,"place":1,"phase":0,"sequence":22,"times":[523,306,429,452,397,534,803,542,832],"trial_type":"ticket-choose","trial_index":42,"time_elapsed":248473,"internal_node_id":"0.0-42.0"},{"result":240,"points":0,"place":5,"phase":0,"sequence":23,"times":[575,345,334,613,580,501,533,631,668,610],"trial_type":"ticket-choose","trial_index":43,"time_elapsed":257809,"internal_node_id":"0.0-43.0"},{"result":156,"points":2,"place":1,"phase":0,"sequence":24,"times":[634,304,374,509,446,733,648,595,903],"trial_type":"ticket-choose","trial_index":44,"time_elapsed":266293,"internal_node_id":"0.0-44.0"},{"result":148,"points":2,"place":1,"phase":0,"sequence":25,"times":[587,421,500,416,666,551,980],"trial_type":"ticket-choose","trial_index":45,"time_elapsed":273509,"internal_node_id":"0.0-45.0"},{"result":165,"points":1,"place":2,"phase":0,"sequence":26,"times":[731],"trial_type":"ticket-choose","trial_index":46,"time_elapsed":275994,"internal_node_id":"0.0-46.0"},{"result":179,"points":1,"place":4,"phase":0,"sequence":27,"times":[1224],"trial_type":"ticket-choose","trial_index":47,"time_elapsed":278911,"internal_node_id":"0.0-47.0"},{"result":177,"points":1,"place":2,"phase":0,"sequence":28,"times":[868],"trial_type":"ticket-choose","trial_index":48,"time_elapsed":281497,"internal_node_id":"0.0-48.0"},{"result":228,"points":0,"place":8,"phase":0,"sequence":29,"times":[681,242,471,724,556,579,518,481,525,643],"trial_type":"ticket-choose","trial_index":49,"time_elapsed":290586,"internal_node_id":"0.0-49.0"},{"result":178,"points":1,"place":3,"phase":0,"sequence":30,"times":[672,562,1097],"trial_type":"ticket-choose","trial_index":50,"time_elapsed":295018,"internal_node_id":"0.0-50.0"},{"result":134,"points":3,"place":0,"phase":0,"sequence":31,"times":[658,320,944,597,567,1173,614,659,848,923],"trial_type":"ticket-choose","trial_index":51,"time_elapsed":305920,"internal_node_id":"0.0-51.0"},{"result":171,"points":3,"place":0,"phase":0,"sequence":32,"times":[622,413,684,591,894],"trial_type":"ticket-choose","trial_index":52,"time_elapsed":311715,"internal_node_id":"0.0-52.0"},{"result":177,"points":1,"place":2,"phase":0,"sequence":33,"times":[849],"trial_type":"ticket-choose","trial_index":53,"time_elapsed":314318,"internal_node_id":"0.0-53.0"},{"result":150,"points":3,"place":0,"phase":0,"sequence":34,"times":[834,493,662,573,628,619,635,1304,553,770],"trial_type":"ticket-choose","trial_index":54,"time_elapsed":325886,"internal_node_id":"0.0-54.0"},{"result":256,"points":0,"place":8,"phase":0,"sequence":35,"times":[664,478,400,336,314,511,472,373,581,518],"trial_type":"ticket-choose","trial_index":55,"time_elapsed":334419,"internal_node_id":"0.0-55.0"},{"result":137,"points":3,"place":0,"phase":0,"sequence":36,"times":[902],"trial_type":"ticket-choose","trial_index":56,"time_elapsed":337060,"internal_node_id":"0.0-56.0"},{"result":180,"points":1,"place":2,"phase":0,"sequence":37,"times":[728,359,415,398,375,558,564,768],"trial_type":"ticket-choose","trial_index":57,"time_elapsed":344373,"internal_node_id":"0.0-57.0"},{"result":191,"points":1,"place":3,"phase":0,"sequence":38,"times":[1130,536,417,431,552,473,492,879],"trial_type":"ticket-choose","trial_index":58,"time_elapsed":352427,"internal_node_id":"0.0-58.0"},{"result":158,"points":1,"place":2,"phase":0,"sequence":39,"times":[658,932],"trial_type":"ticket-choose","trial_index":59,"time_elapsed":355893,"internal_node_id":"0.0-59.0"},{"result":178,"points":3,"place":0,"phase":0,"sequence":40,"times":[737],"trial_type":"ticket-choose","trial_index":60,"time_elapsed":358349,"internal_node_id":"0.0-60.0"},{"result":170,"points":2,"place":1,"phase":0,"sequence":41,"times":[636,576,883],"trial_type":"ticket-choose","trial_index":61,"time_elapsed":362571,"internal_node_id":"0.0-61.0"},{"result":169,"points":1,"place":4,"phase":0,"sequence":42,"times":[1002],"trial_type":"ticket-choose","trial_index":62,"time_elapsed":365281,"internal_node_id":"0.0-62.0"},{"result":153,"points":3,"place":0,"phase":0,"sequence":43,"times":[752],"trial_type":"ticket-choose","trial_index":63,"time_elapsed":367679,"internal_node_id":"0.0-63.0"},{"result":194,"points":1,"place":4,"phase":0,"sequence":44,"times":[726],"trial_type":"ticket-choose","trial_index":64,"time_elapsed":370090,"internal_node_id":"0.0-64.0"},{"result":217,"points":1,"place":4,"phase":0,"sequence":45,"times":[515,289,722,366,283,334,383,509,485,548],"trial_type":"ticket-choose","trial_index":65,"time_elapsed":378143,"internal_node_id":"0.0-65.0"},{"result":179,"points":1,"place":4,"phase":0,"sequence":46,"times":[612],"trial_type":"ticket-choose","trial_index":66,"time_elapsed":380391,"internal_node_id":"0.0-66.0"},{"result":208,"points":1,"place":4,"phase":0,"sequence":47,"times":[484,1331,618,525,668,571,572,561,579,548],"trial_type":"ticket-choose","trial_index":67,"time_elapsed":390850,"internal_node_id":"0.0-67.0"},{"result":154,"points":3,"place":0,"phase":0,"sequence":48,"times":[794],"trial_type":"ticket-choose","trial_index":68,"time_elapsed":393418,"internal_node_id":"0.0-68.0"},{"result":156,"points":3,"place":0,"phase":0,"sequence":49,"times":[778,351,485,311,306,294,322,415,939],"trial_type":"ticket-choose","trial_index":69,"time_elapsed":400994,"internal_node_id":"0.0-69.0"},{"responses":[{"value":0,"offby":-1,"category":"$105 - $130","category_index":0},{"value":0,"offby":-2,"category":"$131 - $155","category_index":1},{"value":0,"offby":-2,"category":"$156 - $180","category_index":2},{"value":9,"offby":4,"category":"$181 - $205","category_index":3},{"value":8,"offby":3,"category":"$206 - $230","category_index":4},{"value":3,"offby":0,"category":"$231 - $255","category_index":5},{"value":0,"offby":-2,"category":"$256 - $280","category_index":6}],"phase":0,"number":1,"trial_type":"bar-choose","trial_index":70,"time_elapsed":410871,"internal_node_id":"0.0-70.0"},{"rt":1037,"url":"\/tickets\/utils\/start2.html","trial_type":"html","trial_index":71,"time_elapsed":413088,"internal_node_id":"0.0-71.0"},{"result":"error","trial_type":"number-animation","trial_index":72,"time_elapsed":414090,"internal_node_id":"0.0-72.0"},{"trial_type":"number-animation","trial_index":73,"time_elapsed":417181,"internal_node_id":"0.0-73.0"},{"phase":1,"sequence":0,"avg":181,"response":168,"trial_type":"training_avg","trial_index":74,"time_elapsed":422415,"internal_node_id":"0.0-74.0"},{"trial_type":"number-animation","trial_index":75,"time_elapsed":429893,"internal_node_id":"0.0-75.0"},{"phase":1,"sequence":1,"avg":188,"response":163,"trial_type":"training_avg","trial_index":76,"time_elapsed":434128,"internal_node_id":"0.0-76.0"},{"trial_type":"number-animation","trial_index":77,"time_elapsed":440972,"internal_node_id":"0.0-77.0"},{"phase":1,"sequence":2,"avg":188,"response":163,"trial_type":"training_avg","trial_index":78,"time_elapsed":444992,"internal_node_id":"0.0-78.0"},{"trial_type":"number-animation","trial_index":79,"time_elapsed":451052,"internal_node_id":"0.0-79.0"},{"phase":1,"sequence":3,"avg":177,"response":162,"trial_type":"training_avg","trial_index":80,"time_elapsed":455198,"internal_node_id":"0.0-80.0"},{"trial_type":"number-animation","trial_index":81,"time_elapsed":461796,"internal_node_id":"0.0-81.0"},{"phase":1,"sequence":4,"avg":182,"response":163,"trial_type":"training_avg","trial_index":82,"time_elapsed":466146,"internal_node_id":"0.0-82.0"},{"responses":[{"value":0,"offby":0,"category":"$106 - $134","category_index":0},{"value":0,"offby":-1,"category":"$135 - $150","category_index":1},{"value":0,"offby":-3,"category":"$151 - $165","category_index":2},{"value":13,"offby":7,"category":"$166 - $180","category_index":3},{"value":6,"offby":0,"category":"$181 - $195","category_index":4},{"value":0,"offby":-3,"category":"$196 - $210","category_index":5},{"value":0,"offby":-1,"category":"$211 - $225","category_index":6}],"phase":1,"number":0,"trial_type":"bar-choose","trial_index":83,"time_elapsed":473657,"internal_node_id":"0.0-83.0"},{"rt":762,"url":"\/tickets\/utils\/testing2.html","trial_type":"html","trial_index":84,"time_elapsed":475599,"internal_node_id":"0.0-84.0"},{"phase":1,"order":[],"trial_type":"store_order","trial_index":85,"time_elapsed":476600,"internal_node_id":"0.0-85.0"},{"result":148,"points":3,"place":0,"phase":1,"sequence":0,"times":[1168],"trial_type":"ticket-choose","trial_index":86,"time_elapsed":479564,"internal_node_id":"0.0-86.0"},{"result":156,"points":1,"place":2,"phase":1,"sequence":1,"times":[986,423,271,305,856],"trial_type":"ticket-choose","trial_index":87,"time_elapsed":484862,"internal_node_id":"0.0-87.0"},{"result":184,"points":1,"place":4,"phase":1,"sequence":2,"times":[670,242,270,819],"trial_type":"ticket-choose","trial_index":88,"time_elapsed":489113,"internal_node_id":"0.0-88.0"},{"result":168,"points":1,"place":3,"phase":1,"sequence":3,"times":[866,310,842],"trial_type":"ticket-choose","trial_index":89,"time_elapsed":493191,"internal_node_id":"0.0-89.0"},{"result":165,"points":3,"place":0,"phase":1,"sequence":4,"times":[998,519,636,675,888],"trial_type":"ticket-choose","trial_index":90,"time_elapsed":499358,"internal_node_id":"0.0-90.0"},{"result":147,"points":3,"place":0,"phase":1,"sequence":5,"times":[501,356,618,554,596,558,843,513,1133,751],"trial_type":"ticket-choose","trial_index":91,"time_elapsed":509880,"internal_node_id":"0.0-91.0"},{"result":155,"points":3,"place":0,"phase":1,"sequence":6,"times":[634,319,266,306,388,352,295,327,443,918],"trial_type":"ticket-choose","trial_index":92,"time_elapsed":517821,"internal_node_id":"0.0-92.0"},{"result":138,"points":3,"place":0,"phase":1,"sequence":7,"times":[668,388,436,739,414,793],"trial_type":"ticket-choose","trial_index":93,"time_elapsed":523937,"internal_node_id":"0.0-93.0"},{"result":208,"points":0,"place":7,"phase":1,"sequence":8,"times":[619,311,272,319,281,816],"trial_type":"ticket-choose","trial_index":94,"time_elapsed":529268,"internal_node_id":"0.0-94.0"},{"result":180,"points":0,"place":6,"phase":1,"sequence":9,"times":[954],"trial_type":"ticket-choose","trial_index":95,"time_elapsed":532103,"internal_node_id":"0.0-95.0"},{"result":191,"points":1,"place":4,"phase":1,"sequence":10,"times":[511,478,303,281,275,314,266,418,583],"trial_type":"ticket-choose","trial_index":96,"time_elapsed":538863,"internal_node_id":"0.0-96.0"},{"result":184,"points":1,"place":4,"phase":1,"sequence":11,"times":[488,298,541,469,452,433,478],"trial_type":"ticket-choose","trial_index":97,"time_elapsed":544915,"internal_node_id":"0.0-97.0"},{"result":148,"points":3,"place":0,"phase":1,"sequence":12,"times":[893,304,241,282,253,320,590,479,1121],"trial_type":"ticket-choose","trial_index":98,"time_elapsed":552751,"internal_node_id":"0.0-98.0"},{"result":191,"points":0,"place":6,"phase":1,"sequence":13,"times":[542,256,244,684,445,345,314,561,338],"trial_type":"ticket-choose","trial_index":99,"time_elapsed":559789,"internal_node_id":"0.0-99.0"},{"result":154,"points":2,"place":1,"phase":1,"sequence":14,"times":[730,297,244,309,531,327,976],"trial_type":"ticket-choose","trial_index":100,"time_elapsed":566107,"internal_node_id":"0.0-100.0"},{"result":167,"points":2,"place":1,"phase":1,"sequence":15,"times":[662,283,240,226,376,535,775],"trial_type":"ticket-choose","trial_index":101,"time_elapsed":572111,"internal_node_id":"0.0-101.0"},{"result":187,"points":0,"place":6,"phase":1,"sequence":16,"times":[421,233,491,574],"trial_type":"ticket-choose","trial_index":102,"time_elapsed":576090,"internal_node_id":"0.0-102.0"},{"result":175,"points":1,"place":4,"phase":1,"sequence":17,"times":[826],"trial_type":"ticket-choose","trial_index":103,"time_elapsed":578504,"internal_node_id":"0.0-103.0"},{"result":160,"points":1,"place":2,"phase":1,"sequence":18,"times":[522,233,416,453],"trial_type":"ticket-choose","trial_index":104,"time_elapsed":582403,"internal_node_id":"0.0-104.0"},{"result":163,"points":3,"place":0,"phase":1,"sequence":19,"times":[526,314,535,516,506,462,502,328,827],"trial_type":"ticket-choose","trial_index":105,"time_elapsed":590237,"internal_node_id":"0.0-105.0"},{"result":161,"points":3,"place":0,"phase":1,"sequence":20,"times":[1041],"trial_type":"ticket-choose","trial_index":106,"time_elapsed":592962,"internal_node_id":"0.0-106.0"},{"result":165,"points":2,"place":1,"phase":1,"sequence":21,"times":[661,433,880],"trial_type":"ticket-choose","trial_index":107,"time_elapsed":596988,"internal_node_id":"0.0-107.0"},{"result":222,"points":0,"place":9,"phase":1,"sequence":22,"times":[766],"trial_type":"ticket-choose","trial_index":108,"time_elapsed":599678,"internal_node_id":"0.0-108.0"},{"result":152,"points":3,"place":0,"phase":1,"sequence":23,"times":[1031],"trial_type":"ticket-choose","trial_index":109,"time_elapsed":602330,"internal_node_id":"0.0-109.0"},{"result":147,"points":3,"place":0,"phase":1,"sequence":24,"times":[604,443,510,764],"trial_type":"ticket-choose","trial_index":110,"time_elapsed":606917,"internal_node_id":"0.0-110.0"},{"result":154,"points":2,"place":1,"phase":1,"sequence":25,"times":[646,471,840],"trial_type":"ticket-choose","trial_index":111,"time_elapsed":610921,"internal_node_id":"0.0-111.0"},{"result":156,"points":3,"place":0,"phase":1,"sequence":26,"times":[710],"trial_type":"ticket-choose","trial_index":112,"time_elapsed":613357,"internal_node_id":"0.0-112.0"},{"result":169,"points":1,"place":4,"phase":1,"sequence":27,"times":[578],"trial_type":"ticket-choose","trial_index":113,"time_elapsed":615541,"internal_node_id":"0.0-113.0"},{"result":167,"points":2,"place":1,"phase":1,"sequence":28,"times":[401,399,517,483,752],"trial_type":"ticket-choose","trial_index":114,"time_elapsed":620520,"internal_node_id":"0.0-114.0"},{"result":196,"points":0,"place":7,"phase":1,"sequence":29,"times":[601,863,469],"trial_type":"ticket-choose","trial_index":115,"time_elapsed":624543,"internal_node_id":"0.0-115.0"},{"result":168,"points":3,"place":0,"phase":1,"sequence":30,"times":[552],"trial_type":"ticket-choose","trial_index":116,"time_elapsed":626710,"internal_node_id":"0.0-116.0"},{"result":182,"points":1,"place":3,"phase":1,"sequence":31,"times":[597],"trial_type":"ticket-choose","trial_index":117,"time_elapsed":628937,"internal_node_id":"0.0-117.0"},{"result":138,"points":3,"place":0,"phase":1,"sequence":32,"times":[611,389,555,360,447,434,416,636,499,833],"trial_type":"ticket-choose","trial_index":118,"time_elapsed":638861,"internal_node_id":"0.0-118.0"},{"result":148,"points":3,"place":0,"phase":1,"sequence":33,"times":[819,328,453,461,521,516],"trial_type":"ticket-choose","trial_index":119,"time_elapsed":645245,"internal_node_id":"0.0-119.0"},{"result":150,"points":3,"place":0,"phase":1,"sequence":34,"times":[876],"trial_type":"ticket-choose","trial_index":120,"time_elapsed":647939,"internal_node_id":"0.0-120.0"},{"result":169,"points":1,"place":4,"phase":1,"sequence":35,"times":[663],"trial_type":"ticket-choose","trial_index":121,"time_elapsed":650207,"internal_node_id":"0.0-121.0"},{"result":178,"points":1,"place":4,"phase":1,"sequence":36,"times":[479],"trial_type":"ticket-choose","trial_index":122,"time_elapsed":652270,"internal_node_id":"0.0-122.0"},{"result":157,"points":3,"place":0,"phase":1,"sequence":37,"times":[611],"trial_type":"ticket-choose","trial_index":123,"time_elapsed":654530,"internal_node_id":"0.0-123.0"},{"result":186,"points":1,"place":4,"phase":1,"sequence":38,"times":[635],"trial_type":"ticket-choose","trial_index":124,"time_elapsed":656796,"internal_node_id":"0.0-124.0"},{"result":140,"points":3,"place":0,"phase":1,"sequence":39,"times":[701,278,290,354,383,277,242,268,249,338],"trial_type":"ticket-choose","trial_index":125,"time_elapsed":664908,"internal_node_id":"0.0-125.0"},{"result":159,"points":3,"place":0,"phase":1,"sequence":40,"times":[764],"trial_type":"ticket-choose","trial_index":126,"time_elapsed":667302,"internal_node_id":"0.0-126.0"},{"result":161,"points":1,"place":2,"phase":1,"sequence":41,"times":[563,249,217,884],"trial_type":"ticket-choose","trial_index":127,"time_elapsed":671532,"internal_node_id":"0.0-127.0"},{"result":182,"points":1,"place":4,"phase":1,"sequence":42,"times":[649],"trial_type":"ticket-choose","trial_index":128,"time_elapsed":673804,"internal_node_id":"0.0-128.0"},{"result":210,"points":0,"place":7,"phase":1,"sequence":43,"times":[610],"trial_type":"ticket-choose","trial_index":129,"time_elapsed":676002,"internal_node_id":"0.0-129.0"},{"result":173,"points":1,"place":4,"phase":1,"sequence":44,"times":[987],"trial_type":"ticket-choose","trial_index":130,"time_elapsed":679060,"internal_node_id":"0.0-130.0"},{"result":161,"points":3,"place":0,"phase":1,"sequence":45,"times":[752],"trial_type":"ticket-choose","trial_index":131,"time_elapsed":681494,"internal_node_id":"0.0-131.0"},{"result":154,"points":2,"place":1,"phase":1,"sequence":46,"times":[765,709,314,250,500,265,268,858],"trial_type":"ticket-choose","trial_index":132,"time_elapsed":688520,"internal_node_id":"0.0-132.0"},{"result":164,"points":1,"place":4,"phase":1,"sequence":47,"times":[643],"trial_type":"ticket-choose","trial_index":133,"time_elapsed":690806,"internal_node_id":"0.0-133.0"},{"result":178,"points":1,"place":4,"phase":1,"sequence":48,"times":[701],"trial_type":"ticket-choose","trial_index":134,"time_elapsed":693117,"internal_node_id":"0.0-134.0"},{"result":185,"points":1,"place":4,"phase":1,"sequence":49,"times":[844,251,464,294,319,510,209,271,775,473],"trial_type":"ticket-choose","trial_index":135,"time_elapsed":701448,"internal_node_id":"0.0-135.0"},{"responses":[{"value":0,"offby":0,"category":"$106 - $134","category_index":0},{"value":0,"offby":-1,"category":"$135 - $150","category_index":1},{"value":0,"offby":-3,"category":"$151 - $165","category_index":2},{"value":7,"offby":1,"category":"$166 - $180","category_index":3},{"value":7,"offby":1,"category":"$181 - $195","category_index":4},{"value":4,"offby":1,"category":"$196 - $210","category_index":5},{"value":0,"offby":-1,"category":"$211 - $225","category_index":6}],"phase":1,"number":1,"trial_type":"bar-choose","trial_index":136,"time_elapsed":711582,"internal_node_id":"0.0-136.0"},{"during":"Nothing","trial_type":"final","trial_index":137,"time_elapsed":724739,"internal_node_id":"0.0-137.0"}]}