{"start_time":"2017-01-20 10:48:17","end_time":"2017-01-20 11:05:13","points_phase0":110,"points_phase1":110,"phase_order":1,"age":28,"gender":"f","tries":2,"during":"Browsing the internet","worker_id":"","assignment_id":"","data":[{"rt":9911,"url":"\/tickets\/utils\/consent.html","trial_type":"html","trial_index":0,"time_elapsed":10030,"internal_node_id":"0.0-0.0"},{"age":28,"gender":"f","trial_type":"age","trial_index":1,"time_elapsed":15264,"internal_node_id":"0.0-1.0"},{"tries":2,"trial_type":"instructions_check","trial_index":2,"time_elapsed":46572,"internal_node_id":"0.0-2.0"},{"rt":2222,"url":"\/tickets\/utils\/start.html","trial_type":"html","trial_index":3,"time_elapsed":49895,"internal_node_id":"0.0-3.0"},{"result":"error","trial_type":"number-animation","trial_index":4,"time_elapsed":50898,"internal_node_id":"0.0-4.0"},{"trial_type":"number-animation","trial_index":5,"time_elapsed":60525,"internal_node_id":"0.0-5.0"},{"phase":0,"sequence":0,"avg":184,"response":190,"trial_type":"training_avg","trial_index":6,"time_elapsed":71530,"internal_node_id":"0.0-6.0"},{"trial_type":"number-animation","trial_index":7,"time_elapsed":79571,"internal_node_id":"0.0-7.0"},{"phase":0,"sequence":1,"avg":199,"response":209,"trial_type":"training_avg","trial_index":8,"time_elapsed":84748,"internal_node_id":"0.0-8.0"},{"trial_type":"number-animation","trial_index":9,"time_elapsed":92671,"internal_node_id":"0.0-9.0"},{"phase":0,"sequence":2,"avg":199,"response":201,"trial_type":"training_avg","trial_index":10,"time_elapsed":98056,"internal_node_id":"0.0-10.0"},{"trial_type":"number-animation","trial_index":11,"time_elapsed":106713,"internal_node_id":"0.0-11.0"},{"phase":0,"sequence":3,"avg":210,"response":199,"trial_type":"training_avg","trial_index":12,"time_elapsed":112068,"internal_node_id":"0.0-12.0"},{"trial_type":"number-animation","trial_index":13,"time_elapsed":120573,"internal_node_id":"0.0-13.0"},{"phase":0,"sequence":4,"avg":202,"response":179,"trial_type":"training_avg","trial_index":14,"time_elapsed":125264,"internal_node_id":"0.0-14.0"},{"responses":[{"value":0,"offby":-1,"category":"$105 - $130","category_index":0},{"value":2,"offby":0,"category":"$131 - $155","category_index":1},{"value":8,"offby":6,"category":"$156 - $180","category_index":2},{"value":5,"offby":0,"category":"$181 - $205","category_index":3},{"value":4,"offby":-1,"category":"$206 - $230","category_index":4},{"value":1,"offby":-2,"category":"$231 - $255","category_index":5},{"value":0,"offby":-2,"category":"$256 - $280","category_index":6}],"phase":0,"number":0,"trial_type":"bar-choose","trial_index":15,"time_elapsed":167925,"internal_node_id":"0.0-15.0"},{"rt":11301,"url":"\/tickets\/\/utils\/testing.html","trial_type":"html","trial_index":16,"time_elapsed":180346,"internal_node_id":"0.0-16.0"},{"phase":0,"order":[24,36,35,13,26,14,0,10,15,25,43,19,23,48,32,16,39,7,37,40,30,46,11,29,21,5,1,20,44,47,6,9,2,18,31,38,42,49,12,33,45,17,28,41,27,34,4,8,3,22],"trial_type":"store_order","trial_index":17,"time_elapsed":181355,"internal_node_id":"0.0-17.0"},{"result":180,"points":1,"place":2,"phase":0,"sequence":-1,"times":[4192,2753],"trial_type":"ticket-choose","trial_index":18,"time_elapsed":190852,"internal_node_id":"0.0-18.0"},{"rt":5704,"url":"\/tickets\/utils\/testing_after.html","trial_type":"html","trial_index":19,"time_elapsed":197678,"internal_node_id":"0.0-19.0"},{"result":170,"points":2,"place":1,"phase":0,"sequence":0,"times":[1757,758,2988,590,622,745,1167],"trial_type":"ticket-choose","trial_index":20,"time_elapsed":210346,"internal_node_id":"0.0-20.0"},{"result":141,"points":3,"place":0,"phase":0,"sequence":1,"times":[2203],"trial_type":"ticket-choose","trial_index":21,"time_elapsed":215643,"internal_node_id":"0.0-21.0"},{"result":193,"points":1,"place":4,"phase":0,"sequence":2,"times":[1047,577,693,624,625,587,1636,720,581,999],"trial_type":"ticket-choose","trial_index":22,"time_elapsed":227901,"internal_node_id":"0.0-22.0"},{"result":184,"points":1,"place":2,"phase":0,"sequence":3,"times":[785,580,880,573,523,549,958],"trial_type":"ticket-choose","trial_index":23,"time_elapsed":235961,"internal_node_id":"0.0-23.0"},{"result":180,"points":2,"place":1,"phase":0,"sequence":4,"times":[658,617,1036,532,531,536,863],"trial_type":"ticket-choose","trial_index":24,"time_elapsed":243911,"internal_node_id":"0.0-24.0"},{"result":178,"points":3,"place":0,"phase":0,"sequence":5,"times":[1488],"trial_type":"ticket-choose","trial_index":25,"time_elapsed":247413,"internal_node_id":"0.0-25.0"},{"result":157,"points":2,"place":1,"phase":0,"sequence":6,"times":[1119,542,876],"trial_type":"ticket-choose","trial_index":26,"time_elapsed":252255,"internal_node_id":"0.0-26.0"},{"result":182,"points":2,"place":1,"phase":0,"sequence":7,"times":[983,537,1280],"trial_type":"ticket-choose","trial_index":27,"time_elapsed":257319,"internal_node_id":"0.0-27.0"},{"result":158,"points":1,"place":2,"phase":0,"sequence":8,"times":[879,885],"trial_type":"ticket-choose","trial_index":28,"time_elapsed":261070,"internal_node_id":"0.0-28.0"},{"result":135,"points":3,"place":0,"phase":0,"sequence":9,"times":[677,463,1108,939],"trial_type":"ticket-choose","trial_index":29,"time_elapsed":266777,"internal_node_id":"0.0-29.0"},{"result":155,"points":3,"place":0,"phase":0,"sequence":10,"times":[692,544,885],"trial_type":"ticket-choose","trial_index":30,"time_elapsed":271111,"internal_node_id":"0.0-30.0"},{"result":140,"points":2,"place":1,"phase":0,"sequence":11,"times":[621,563,865],"trial_type":"ticket-choose","trial_index":31,"time_elapsed":275268,"internal_node_id":"0.0-31.0"},{"result":134,"points":3,"place":0,"phase":0,"sequence":12,"times":[854,502,765,542,553,542,929,717,637,698],"trial_type":"ticket-choose","trial_index":32,"time_elapsed":285825,"internal_node_id":"0.0-32.0"},{"result":153,"points":1,"place":2,"phase":0,"sequence":13,"times":[596,530,587,604,875],"trial_type":"ticket-choose","trial_index":33,"time_elapsed":291699,"internal_node_id":"0.0-33.0"},{"result":126,"points":3,"place":0,"phase":0,"sequence":14,"times":[526,507,566,522,838],"trial_type":"ticket-choose","trial_index":34,"time_elapsed":297235,"internal_node_id":"0.0-34.0"},{"result":147,"points":3,"place":0,"phase":0,"sequence":15,"times":[706,538,686,572,582,563,536,550,585,627],"trial_type":"ticket-choose","trial_index":35,"time_elapsed":306813,"internal_node_id":"0.0-35.0"},{"result":149,"points":2,"place":1,"phase":0,"sequence":16,"times":[2071,973],"trial_type":"ticket-choose","trial_index":36,"time_elapsed":311805,"internal_node_id":"0.0-36.0"},{"result":148,"points":3,"place":0,"phase":0,"sequence":17,"times":[762,543,975,617,560,769,714,873],"trial_type":"ticket-choose","trial_index":37,"time_elapsed":320830,"internal_node_id":"0.0-37.0"},{"result":171,"points":3,"place":0,"phase":0,"sequence":18,"times":[659,1079,506,564,940],"trial_type":"ticket-choose","trial_index":38,"time_elapsed":327227,"internal_node_id":"0.0-38.0"},{"result":167,"points":3,"place":0,"phase":0,"sequence":19,"times":[875,522,492,548,549,576,494,1000],"trial_type":"ticket-choose","trial_index":39,"time_elapsed":335449,"internal_node_id":"0.0-39.0"},{"result":136,"points":3,"place":0,"phase":0,"sequence":20,"times":[643,1316,445,501,729,845],"trial_type":"ticket-choose","trial_index":40,"time_elapsed":342603,"internal_node_id":"0.0-40.0"},{"result":137,"points":3,"place":0,"phase":0,"sequence":21,"times":[1096],"trial_type":"ticket-choose","trial_index":41,"time_elapsed":345580,"internal_node_id":"0.0-41.0"},{"result":175,"points":1,"place":2,"phase":0,"sequence":22,"times":[740,583,726,583,542,575,1120],"trial_type":"ticket-choose","trial_index":42,"time_elapsed":353508,"internal_node_id":"0.0-42.0"},{"result":191,"points":2,"place":1,"phase":0,"sequence":23,"times":[783,567,573,530,517,580,1190],"trial_type":"ticket-choose","trial_index":43,"time_elapsed":361850,"internal_node_id":"0.0-43.0"},{"result":182,"points":2,"place":1,"phase":0,"sequence":24,"times":[944,574,474,565,516,603,853],"trial_type":"ticket-choose","trial_index":44,"time_elapsed":369354,"internal_node_id":"0.0-44.0"},{"result":163,"points":3,"place":0,"phase":0,"sequence":25,"times":[1690],"trial_type":"ticket-choose","trial_index":45,"time_elapsed":372834,"internal_node_id":"0.0-45.0"},{"result":151,"points":3,"place":0,"phase":0,"sequence":26,"times":[649,1488],"trial_type":"ticket-choose","trial_index":46,"time_elapsed":376880,"internal_node_id":"0.0-46.0"},{"result":167,"points":1,"place":3,"phase":0,"sequence":27,"times":[781,587,955],"trial_type":"ticket-choose","trial_index":47,"time_elapsed":381325,"internal_node_id":"0.0-47.0"},{"result":148,"points":3,"place":0,"phase":0,"sequence":28,"times":[729,532,1008,596,650,608,879,673,702,665],"trial_type":"ticket-choose","trial_index":48,"time_elapsed":391921,"internal_node_id":"0.0-48.0"},{"result":157,"points":2,"place":1,"phase":0,"sequence":29,"times":[694,897,854],"trial_type":"ticket-choose","trial_index":49,"time_elapsed":396599,"internal_node_id":"0.0-49.0"},{"result":116,"points":3,"place":0,"phase":0,"sequence":30,"times":[28758,526,877,565,523,828],"trial_type":"ticket-choose","trial_index":50,"time_elapsed":432037,"internal_node_id":"0.0-50.0"},{"result":156,"points":3,"place":0,"phase":0,"sequence":31,"times":[1093,756,505,524,727,928],"trial_type":"ticket-choose","trial_index":51,"time_elapsed":439270,"internal_node_id":"0.0-51.0"},{"result":161,"points":2,"place":1,"phase":0,"sequence":32,"times":[782,543,555,646,575,948],"trial_type":"ticket-choose","trial_index":52,"time_elapsed":446102,"internal_node_id":"0.0-52.0"},{"result":157,"points":2,"place":1,"phase":0,"sequence":33,"times":[1295,525,606,715,596,665,1028],"trial_type":"ticket-choose","trial_index":53,"time_elapsed":454503,"internal_node_id":"0.0-53.0"},{"result":148,"points":2,"place":1,"phase":0,"sequence":34,"times":[541,545,877],"trial_type":"ticket-choose","trial_index":54,"time_elapsed":458557,"internal_node_id":"0.0-54.0"},{"result":180,"points":1,"place":4,"phase":0,"sequence":35,"times":[931,514,544,586,535,546,756,614,586,616],"trial_type":"ticket-choose","trial_index":55,"time_elapsed":468767,"internal_node_id":"0.0-55.0"},{"result":208,"points":1,"place":4,"phase":0,"sequence":36,"times":[639,528,625,506,554,536,565,576,575,565],"trial_type":"ticket-choose","trial_index":56,"time_elapsed":478274,"internal_node_id":"0.0-56.0"},{"result":140,"points":2,"place":1,"phase":0,"sequence":37,"times":[1325,555,887,777,1592,877,867],"trial_type":"ticket-choose","trial_index":57,"time_elapsed":488173,"internal_node_id":"0.0-57.0"},{"result":174,"points":1,"place":3,"phase":0,"sequence":38,"times":[664,545,937],"trial_type":"ticket-choose","trial_index":58,"time_elapsed":492547,"internal_node_id":"0.0-58.0"},{"result":167,"points":2,"place":1,"phase":0,"sequence":39,"times":[721,464,1088,807],"trial_type":"ticket-choose","trial_index":59,"time_elapsed":497970,"internal_node_id":"0.0-59.0"},{"result":175,"points":2,"place":1,"phase":0,"sequence":40,"times":[701,525,545,546,897],"trial_type":"ticket-choose","trial_index":60,"time_elapsed":503764,"internal_node_id":"0.0-60.0"},{"result":180,"points":2,"place":1,"phase":0,"sequence":41,"times":[762,545,856],"trial_type":"ticket-choose","trial_index":61,"time_elapsed":507998,"internal_node_id":"0.0-61.0"},{"result":133,"points":3,"place":0,"phase":0,"sequence":42,"times":[632,525,793],"trial_type":"ticket-choose","trial_index":62,"time_elapsed":512143,"internal_node_id":"0.0-62.0"},{"result":198,"points":1,"place":4,"phase":0,"sequence":43,"times":[700,534,1088,524,546,493,1401,575,544,544],"trial_type":"ticket-choose","trial_index":63,"time_elapsed":522906,"internal_node_id":"0.0-63.0"},{"result":144,"points":3,"place":0,"phase":0,"sequence":44,"times":[1364,595,525,787],"trial_type":"ticket-choose","trial_index":64,"time_elapsed":528588,"internal_node_id":"0.0-64.0"},{"result":140,"points":3,"place":0,"phase":0,"sequence":45,"times":[662,857],"trial_type":"ticket-choose","trial_index":65,"time_elapsed":532089,"internal_node_id":"0.0-65.0"},{"result":175,"points":2,"place":1,"phase":0,"sequence":46,"times":[708,596,816,565,715,595,837],"trial_type":"ticket-choose","trial_index":66,"time_elapsed":539974,"internal_node_id":"0.0-66.0"},{"result":150,"points":2,"place":1,"phase":0,"sequence":47,"times":[660,776],"trial_type":"ticket-choose","trial_index":67,"time_elapsed":543334,"internal_node_id":"0.0-67.0"},{"result":170,"points":2,"place":1,"phase":0,"sequence":48,"times":[692,586,1852],"trial_type":"ticket-choose","trial_index":68,"time_elapsed":548584,"internal_node_id":"0.0-68.0"},{"result":173,"points":2,"place":1,"phase":0,"sequence":49,"times":[851,555,998,545,556,977,948],"trial_type":"ticket-choose","trial_index":69,"time_elapsed":557043,"internal_node_id":"0.0-69.0"},{"responses":[{"value":0,"offby":-1,"category":"$105 - $130","category_index":0},{"value":1,"offby":-1,"category":"$131 - $155","category_index":1},{"value":8,"offby":6,"category":"$156 - $180","category_index":2},{"value":6,"offby":1,"category":"$181 - $205","category_index":3},{"value":5,"offby":0,"category":"$206 - $230","category_index":4},{"value":0,"offby":-3,"category":"$231 - $255","category_index":5},{"value":0,"offby":-2,"category":"$256 - $280","category_index":6}],"phase":0,"number":1,"trial_type":"bar-choose","trial_index":70,"time_elapsed":581016,"internal_node_id":"0.0-70.0"},{"rt":2850,"url":"\/tickets\/utils\/start2.html","trial_type":"html","trial_index":71,"time_elapsed":584998,"internal_node_id":"0.0-71.0"},{"result":"error","trial_type":"number-animation","trial_index":72,"time_elapsed":586417,"internal_node_id":"0.0-72.0"},{"trial_type":"number-animation","trial_index":73,"time_elapsed":594210,"internal_node_id":"0.0-73.0"},{"phase":1,"sequence":0,"avg":181,"response":182,"trial_type":"training_avg","trial_index":74,"time_elapsed":599068,"internal_node_id":"0.0-74.0"},{"trial_type":"number-animation","trial_index":75,"time_elapsed":605817,"internal_node_id":"0.0-75.0"},{"phase":1,"sequence":1,"avg":188,"response":191,"trial_type":"training_avg","trial_index":76,"time_elapsed":610835,"internal_node_id":"0.0-76.0"},{"trial_type":"number-animation","trial_index":77,"time_elapsed":618337,"internal_node_id":"0.0-77.0"},{"phase":1,"sequence":2,"avg":188,"response":184,"trial_type":"training_avg","trial_index":78,"time_elapsed":622924,"internal_node_id":"0.0-78.0"},{"trial_type":"number-animation","trial_index":79,"time_elapsed":629601,"internal_node_id":"0.0-79.0"},{"phase":1,"sequence":3,"avg":177,"response":175,"trial_type":"training_avg","trial_index":80,"time_elapsed":634458,"internal_node_id":"0.0-80.0"},{"trial_type":"number-animation","trial_index":81,"time_elapsed":641065,"internal_node_id":"0.0-81.0"},{"phase":1,"sequence":4,"avg":182,"response":189,"trial_type":"training_avg","trial_index":82,"time_elapsed":645289,"internal_node_id":"0.0-82.0"},{"responses":[{"value":0,"offby":0,"category":"$106 - $134","category_index":0},{"value":0,"offby":-1,"category":"$135 - $150","category_index":1},{"value":1,"offby":-2,"category":"$151 - $165","category_index":2},{"value":6,"offby":0,"category":"$166 - $180","category_index":3},{"value":11,"offby":5,"category":"$181 - $195","category_index":4},{"value":2,"offby":-1,"category":"$196 - $210","category_index":5},{"value":0,"offby":-1,"category":"$211 - $225","category_index":6}],"phase":1,"number":0,"trial_type":"bar-choose","trial_index":83,"time_elapsed":661500,"internal_node_id":"0.0-83.0"},{"rt":1812,"url":"\/tickets\/utils\/testing2.html","trial_type":"html","trial_index":84,"time_elapsed":664446,"internal_node_id":"0.0-84.0"},{"phase":1,"order":[],"trial_type":"store_order","trial_index":85,"time_elapsed":665448,"internal_node_id":"0.0-85.0"},{"result":185,"points":1,"place":4,"phase":1,"sequence":0,"times":[2235,562,543,736,555,545,655,604,515,666],"trial_type":"ticket-choose","trial_index":86,"time_elapsed":676836,"internal_node_id":"0.0-86.0"},{"result":165,"points":2,"place":1,"phase":1,"sequence":1,"times":[1081,555,795],"trial_type":"ticket-choose","trial_index":87,"time_elapsed":681883,"internal_node_id":"0.0-87.0"},{"result":154,"points":2,"place":1,"phase":1,"sequence":2,"times":[3906,765],"trial_type":"ticket-choose","trial_index":88,"time_elapsed":688470,"internal_node_id":"0.0-88.0"},{"result":154,"points":2,"place":1,"phase":1,"sequence":3,"times":[832,596,575,565,575,655,766],"trial_type":"ticket-choose","trial_index":89,"time_elapsed":695961,"internal_node_id":"0.0-89.0"},{"result":157,"points":3,"place":0,"phase":1,"sequence":4,"times":[1063],"trial_type":"ticket-choose","trial_index":90,"time_elapsed":698767,"internal_node_id":"0.0-90.0"},{"result":171,"points":2,"place":1,"phase":1,"sequence":5,"times":[650,505,584,555,836,575,745],"trial_type":"ticket-choose","trial_index":91,"time_elapsed":706139,"internal_node_id":"0.0-91.0"},{"result":158,"points":2,"place":1,"phase":1,"sequence":6,"times":[837,444,786],"trial_type":"ticket-choose","trial_index":92,"time_elapsed":710301,"internal_node_id":"0.0-92.0"},{"result":161,"points":1,"place":3,"phase":1,"sequence":7,"times":[541,503,1340],"trial_type":"ticket-choose","trial_index":93,"time_elapsed":714746,"internal_node_id":"0.0-93.0"},{"result":166,"points":2,"place":1,"phase":1,"sequence":8,"times":[897,474,565,585,575,576,847],"trial_type":"ticket-choose","trial_index":94,"time_elapsed":722268,"internal_node_id":"0.0-94.0"},{"result":150,"points":3,"place":0,"phase":1,"sequence":9,"times":[881],"trial_type":"ticket-choose","trial_index":95,"time_elapsed":724812,"internal_node_id":"0.0-95.0"},{"result":157,"points":3,"place":0,"phase":1,"sequence":10,"times":[684,414,816],"trial_type":"ticket-choose","trial_index":96,"time_elapsed":728804,"internal_node_id":"0.0-96.0"},{"result":158,"points":3,"place":0,"phase":1,"sequence":11,"times":[1044,925,424,595,615,534,826,655,857],"trial_type":"ticket-choose","trial_index":97,"time_elapsed":738687,"internal_node_id":"0.0-97.0"},{"result":186,"points":1,"place":4,"phase":1,"sequence":12,"times":[1071,464,565,555,513,616,535,665,585,485],"trial_type":"ticket-choose","trial_index":98,"time_elapsed":748260,"internal_node_id":"0.0-98.0"},{"result":147,"points":3,"place":0,"phase":1,"sequence":13,"times":[554,585,897,817],"trial_type":"ticket-choose","trial_index":99,"time_elapsed":753368,"internal_node_id":"0.0-99.0"},{"result":146,"points":3,"place":0,"phase":1,"sequence":14,"times":[646,543,876],"trial_type":"ticket-choose","trial_index":100,"time_elapsed":757661,"internal_node_id":"0.0-100.0"},{"result":162,"points":2,"place":1,"phase":1,"sequence":15,"times":[665,524,736,776,716,555,817],"trial_type":"ticket-choose","trial_index":101,"time_elapsed":765363,"internal_node_id":"0.0-101.0"},{"result":167,"points":2,"place":1,"phase":1,"sequence":16,"times":[889,855],"trial_type":"ticket-choose","trial_index":102,"time_elapsed":768963,"internal_node_id":"0.0-102.0"},{"result":172,"points":1,"place":2,"phase":1,"sequence":17,"times":[739,574,536,585,605,565,896],"trial_type":"ticket-choose","trial_index":103,"time_elapsed":776373,"internal_node_id":"0.0-103.0"},{"result":163,"points":2,"place":1,"phase":1,"sequence":18,"times":[1223,545,545,866],"trial_type":"ticket-choose","trial_index":104,"time_elapsed":781823,"internal_node_id":"0.0-104.0"},{"result":150,"points":3,"place":0,"phase":1,"sequence":19,"times":[598,815],"trial_type":"ticket-choose","trial_index":105,"time_elapsed":785089,"internal_node_id":"0.0-105.0"},{"result":138,"points":3,"place":0,"phase":1,"sequence":20,"times":[690,653,1047,564,736,796],"trial_type":"ticket-choose","trial_index":106,"time_elapsed":792268,"internal_node_id":"0.0-106.0"},{"result":158,"points":3,"place":0,"phase":1,"sequence":21,"times":[1608,656,554,615,543,935],"trial_type":"ticket-choose","trial_index":107,"time_elapsed":799900,"internal_node_id":"0.0-107.0"},{"result":167,"points":2,"place":1,"phase":1,"sequence":22,"times":[670,574,605,542,555,625,908],"trial_type":"ticket-choose","trial_index":108,"time_elapsed":807321,"internal_node_id":"0.0-108.0"},{"result":159,"points":3,"place":0,"phase":1,"sequence":23,"times":[851],"trial_type":"ticket-choose","trial_index":109,"time_elapsed":809814,"internal_node_id":"0.0-109.0"},{"result":156,"points":3,"place":0,"phase":1,"sequence":24,"times":[722],"trial_type":"ticket-choose","trial_index":110,"time_elapsed":812307,"internal_node_id":"0.0-110.0"},{"result":150,"points":2,"place":1,"phase":1,"sequence":25,"times":[779,525,1287],"trial_type":"ticket-choose","trial_index":111,"time_elapsed":817073,"internal_node_id":"0.0-111.0"},{"result":165,"points":1,"place":2,"phase":1,"sequence":26,"times":[656,574,1057,4536,585,615,847],"trial_type":"ticket-choose","trial_index":112,"time_elapsed":828866,"internal_node_id":"0.0-112.0"},{"result":184,"points":1,"place":4,"phase":1,"sequence":27,"times":[1796,534,585,505,605,525,515,575,515,766],"trial_type":"ticket-choose","trial_index":113,"time_elapsed":839444,"internal_node_id":"0.0-113.0"},{"result":159,"points":1,"place":2,"phase":1,"sequence":28,"times":[650,766],"trial_type":"ticket-choose","trial_index":114,"time_elapsed":842773,"internal_node_id":"0.0-114.0"},{"result":152,"points":3,"place":0,"phase":1,"sequence":29,"times":[567,524,545,847],"trial_type":"ticket-choose","trial_index":115,"time_elapsed":847467,"internal_node_id":"0.0-115.0"},{"result":155,"points":3,"place":0,"phase":1,"sequence":30,"times":[650,525,928,544,545,586,535,563,595,524],"trial_type":"ticket-choose","trial_index":116,"time_elapsed":856991,"internal_node_id":"0.0-116.0"},{"result":167,"points":1,"place":2,"phase":1,"sequence":31,"times":[646,605,806,505,544,574,928],"trial_type":"ticket-choose","trial_index":117,"time_elapsed":864510,"internal_node_id":"0.0-117.0"},{"result":153,"points":3,"place":0,"phase":1,"sequence":32,"times":[760,545,504,585,676,545,635,656,544,525],"trial_type":"ticket-choose","trial_index":118,"time_elapsed":874001,"internal_node_id":"0.0-118.0"},{"result":165,"points":2,"place":1,"phase":1,"sequence":33,"times":[519,544,616,545,605,636,865],"trial_type":"ticket-choose","trial_index":119,"time_elapsed":881250,"internal_node_id":"0.0-119.0"},{"result":160,"points":2,"place":1,"phase":1,"sequence":34,"times":[864,493,575,514,564,847],"trial_type":"ticket-choose","trial_index":120,"time_elapsed":887794,"internal_node_id":"0.0-120.0"},{"result":163,"points":3,"place":0,"phase":1,"sequence":35,"times":[672,513,606,545,654,584,566,917],"trial_type":"ticket-choose","trial_index":121,"time_elapsed":896038,"internal_node_id":"0.0-121.0"},{"result":143,"points":3,"place":0,"phase":1,"sequence":36,"times":[587,515,645,575,886],"trial_type":"ticket-choose","trial_index":122,"time_elapsed":901728,"internal_node_id":"0.0-122.0"},{"result":163,"points":1,"place":2,"phase":1,"sequence":37,"times":[615,967],"trial_type":"ticket-choose","trial_index":123,"time_elapsed":905618,"internal_node_id":"0.0-123.0"},{"result":148,"points":3,"place":0,"phase":1,"sequence":38,"times":[628,524,896,575,555,557,723,585,968],"trial_type":"ticket-choose","trial_index":124,"time_elapsed":915049,"internal_node_id":"0.0-124.0"},{"result":155,"points":3,"place":0,"phase":1,"sequence":39,"times":[968,1741],"trial_type":"ticket-choose","trial_index":125,"time_elapsed":919692,"internal_node_id":"0.0-125.0"},{"result":167,"points":2,"place":1,"phase":1,"sequence":40,"times":[666,565,625,605,867],"trial_type":"ticket-choose","trial_index":126,"time_elapsed":925654,"internal_node_id":"0.0-126.0"},{"result":150,"points":2,"place":1,"phase":1,"sequence":41,"times":[691,544,1037,635,845,595,1077],"trial_type":"ticket-choose","trial_index":127,"time_elapsed":934120,"internal_node_id":"0.0-127.0"},{"result":188,"points":1,"place":4,"phase":1,"sequence":42,"times":[698,535,715,585,534,535,535,595,615,554],"trial_type":"ticket-choose","trial_index":128,"time_elapsed":943558,"internal_node_id":"0.0-128.0"},{"result":155,"points":2,"place":1,"phase":1,"sequence":43,"times":[617,495,785],"trial_type":"ticket-choose","trial_index":129,"time_elapsed":947559,"internal_node_id":"0.0-129.0"},{"result":148,"points":3,"place":0,"phase":1,"sequence":44,"times":[1106],"trial_type":"ticket-choose","trial_index":130,"time_elapsed":950452,"internal_node_id":"0.0-130.0"},{"result":155,"points":2,"place":1,"phase":1,"sequence":45,"times":[651,777],"trial_type":"ticket-choose","trial_index":131,"time_elapsed":953771,"internal_node_id":"0.0-131.0"},{"result":171,"points":1,"place":2,"phase":1,"sequence":46,"times":[668,554,544,544,555,534,966],"trial_type":"ticket-choose","trial_index":132,"time_elapsed":961159,"internal_node_id":"0.0-132.0"},{"result":147,"points":3,"place":0,"phase":1,"sequence":47,"times":[790,545,494,615,625,565,604,514,555,545],"trial_type":"ticket-choose","trial_index":133,"time_elapsed":970587,"internal_node_id":"0.0-133.0"},{"result":154,"points":2,"place":1,"phase":1,"sequence":48,"times":[691,644,865],"trial_type":"ticket-choose","trial_index":134,"time_elapsed":974960,"internal_node_id":"0.0-134.0"},{"result":152,"points":3,"place":0,"phase":1,"sequence":49,"times":[900],"trial_type":"ticket-choose","trial_index":135,"time_elapsed":977645,"internal_node_id":"0.0-135.0"},{"responses":[{"value":0,"offby":0,"category":"$106 - $134","category_index":0},{"value":0,"offby":-1,"category":"$135 - $150","category_index":1},{"value":1,"offby":-2,"category":"$151 - $165","category_index":2},{"value":12,"offby":6,"category":"$166 - $180","category_index":3},{"value":7,"offby":1,"category":"$181 - $195","category_index":4},{"value":0,"offby":-3,"category":"$196 - $210","category_index":5},{"value":0,"offby":-1,"category":"$211 - $225","category_index":6}],"phase":1,"number":1,"trial_type":"bar-choose","trial_index":136,"time_elapsed":995578,"internal_node_id":"0.0-136.0"},{"during":"Browsing the internet","trial_type":"final","trial_index":137,"time_elapsed":1014047,"internal_node_id":"0.0-137.0"}]}