{"start_time":"2017-01-18 15:21:34","end_time":"2017-01-18 15:22:57","points_phase0":0,"points_phase1":6,"phase_order":1,"age":23,"gender":"m","tries":1,"during":"Nothing","subject_id":"","data":[{"rt":1368,"url":"\/tickets\/utils\/consent.html","trial_type":"html","trial_index":0,"time_elapsed":1377,"internal_node_id":"0.0-0.0"},{"age":23,"gender":"m","trial_type":"age","trial_index":1,"time_elapsed":4050,"internal_node_id":"0.0-1.0"},{"tries":1,"trial_type":"instructions_check","trial_index":2,"time_elapsed":6815,"internal_node_id":"0.0-2.0"},{"rt":714,"url":"\/tickets\/utils\/start.html","trial_type":"html","trial_index":3,"time_elapsed":8544,"internal_node_id":"0.0-3.0"},{"responses":[{"value":0,"offby":-1,"category":"$105 - $130","category_index":0},{"value":0,"offby":-2,"category":"$131 - $155","category_index":1},{"value":0,"offby":-2,"category":"$156 - $180","category_index":2},{"value":0,"offby":-5,"category":"$181 - $205","category_index":3},{"value":0,"offby":-5,"category":"$206 - $230","category_index":4},{"value":0,"offby":-3,"category":"$231 - $255","category_index":5},{"value":0,"offby":-2,"category":"$256 - $280","category_index":6}],"phase":0,"number":0,"trial_type":"bar-choose","trial_index":4,"time_elapsed":15222,"internal_node_id":"0.0-4.0"},{"rt":1369,"url":"\/tickets\/\/utils\/testing.html","trial_type":"html","trial_index":5,"time_elapsed":17608,"internal_node_id":"0.0-5.0"},{"0":24,"1":21,"2":47,"3":32,"4":6,"5":48,"6":35,"7":17,"8":0,"9":14,"10":28,"11":11,"12":4,"13":40,"14":10,"15":26,"16":33,"17":3,"18":42,"19":25,"20":41,"21":19,"22":1,"23":27,"24":34,"25":20,"26":39,"27":8,"28":29,"29":15,"30":37,"31":36,"32":13,"33":43,"34":16,"35":23,"36":31,"37":30,"38":44,"39":2,"40":49,"41":45,"42":12,"43":7,"44":9,"45":46,"46":22,"47":18,"48":5,"49":38,"phase":0,"order":[],"trial_type":"store_order","trial_index":6,"time_elapsed":18624,"internal_node_id":"0.0-6.0"},{"result":184,"points":1,"place":4,"phase":0,"sequence":-1,"times":[3482],"trial_type":"ticket-choose","trial_index":7,"time_elapsed":25089,"internal_node_id":"0.0-7.0"},{"rt":557,"url":"\/tickets\/utils\/testing_after.html","trial_type":"html","trial_index":8,"time_elapsed":26661,"internal_node_id":"0.0-8.0"},{"result":224,"points":0,"place":6,"phase":0,"sequence":0,"times":[474,33],"trial_type":"ticket-choose","trial_index":9,"time_elapsed":29303,"internal_node_id":"0.0-9.0"},{"result":233,"points":0,"place":6,"phase":0,"sequence":1,"times":[469,663],"trial_type":"ticket-choose","trial_index":10,"time_elapsed":31719,"internal_node_id":"0.0-10.0"},{"result":211,"points":0,"place":6,"phase":0,"sequence":2,"times":[779,15],"trial_type":"ticket-choose","trial_index":11,"time_elapsed":34691,"internal_node_id":"0.0-11.0"},{"responses":[{"value":0,"offby":-1,"category":"$105 - $130","category_index":0},{"value":0,"offby":-2,"category":"$131 - $155","category_index":1},{"value":0,"offby":-2,"category":"$156 - $180","category_index":2},{"value":0,"offby":-5,"category":"$181 - $205","category_index":3},{"value":0,"offby":-5,"category":"$206 - $230","category_index":4},{"value":0,"offby":-3,"category":"$231 - $255","category_index":5},{"value":0,"offby":-2,"category":"$256 - $280","category_index":6}],"phase":0,"number":1,"trial_type":"bar-choose","trial_index":12,"time_elapsed":40185,"internal_node_id":"0.0-12.0"},{"rt":594,"url":"\/tickets\/utils\/start2.html","trial_type":"html","trial_index":13,"time_elapsed":41798,"internal_node_id":"0.0-13.0"},{"responses":[{"value":0,"offby":0,"category":"$106 - $134","category_index":0},{"value":0,"offby":-1,"category":"$135 - $150","category_index":1},{"value":0,"offby":-3,"category":"$151 - $165","category_index":2},{"value":0,"offby":-6,"category":"$166 - $180","category_index":3},{"value":0,"offby":-6,"category":"$181 - $195","category_index":4},{"value":0,"offby":-3,"category":"$196 - $210","category_index":5},{"value":0,"offby":-1,"category":"$211 - $225","category_index":6}],"phase":1,"number":0,"trial_type":"bar-choose","trial_index":14,"time_elapsed":47117,"internal_node_id":"0.0-14.0"},{"rt":1182,"url":"\/tickets\/utils\/testing2.html","trial_type":"html","trial_index":15,"time_elapsed":49317,"internal_node_id":"0.0-15.0"},{"0":23,"1":2,"2":25,"3":34,"4":40,"5":36,"6":42,"7":30,"8":15,"9":44,"10":17,"11":37,"12":13,"13":22,"14":32,"15":18,"16":6,"17":10,"18":11,"19":7,"20":28,"21":47,"22":41,"23":8,"24":35,"25":20,"26":33,"27":29,"28":9,"29":12,"30":31,"31":46,"32":14,"33":49,"34":16,"35":26,"36":24,"37":0,"38":21,"39":39,"40":43,"41":45,"42":3,"43":38,"44":5,"45":19,"46":48,"47":1,"48":4,"49":27,"phase":1,"order":[],"trial_type":"store_order","trial_index":16,"time_elapsed":50322,"internal_node_id":"0.0-16.0"},{"result":169,"points":3,"place":0,"phase":1,"sequence":0,"times":[910],"trial_type":"ticket-choose","trial_index":17,"time_elapsed":53011,"internal_node_id":"0.0-17.0"},{"result":156,"points":3,"place":0,"phase":1,"sequence":1,"times":[1093],"trial_type":"ticket-choose","trial_index":18,"time_elapsed":59134,"internal_node_id":"0.0-18.0"},{"result":200,"points":0,"place":8,"phase":1,"sequence":2,"times":[1079],"trial_type":"ticket-choose","trial_index":19,"time_elapsed":65059,"internal_node_id":"0.0-19.0"},{"responses":[{"value":0,"offby":0,"category":"$106 - $134","category_index":0},{"value":0,"offby":-1,"category":"$135 - $150","category_index":1},{"value":0,"offby":-3,"category":"$151 - $165","category_index":2},{"value":0,"offby":-6,"category":"$166 - $180","category_index":3},{"value":0,"offby":-6,"category":"$181 - $195","category_index":4},{"value":0,"offby":-3,"category":"$196 - $210","category_index":5},{"value":0,"offby":-1,"category":"$211 - $225","category_index":6}],"phase":1,"number":1,"trial_type":"bar-choose","trial_index":20,"time_elapsed":69781,"internal_node_id":"0.0-20.0"},{"during":"Nothing","trial_type":"final","trial_index":21,"time_elapsed":81861,"internal_node_id":"0.0-21.0"}]}