{"start_time":"2017-05-17 12:23:56","end_time":"2017-05-17 12:31:41","points_phase0":1,"points_phase1":2,"phase_order":0,"age":22,"gender":"m","tries":1,"during":"Nothing","worker_id":"22","assignment_id":"57005","data":[{"rt":3515,"url":"\/christiane\/tickets\/utils\/consent.html","trial_type":"html","trial_index":0,"time_elapsed":3561,"internal_node_id":"0.0-0.0"},{"age":22,"gender":"m","trial_type":"age","trial_index":1,"time_elapsed":7123,"internal_node_id":"0.0-1.0"},{"worker_id":"22","trial_type":"workerid","trial_index":2,"time_elapsed":10968,"internal_node_id":"0.0-2.0"},{"tries":1,"trial_type":"instructions_check","trial_index":3,"time_elapsed":14312,"internal_node_id":"0.0-3.0"},{"rt":10546,"url":"\/christiane\/tickets\/utils\/start.html","trial_type":"html","trial_index":4,"time_elapsed":25946,"internal_node_id":"0.0-4.0"},{"trial_type":"number-animation","trial_index":5,"time_elapsed":33676,"internal_node_id":"0.0-5.0"},{"phase":0,"sequence":0,"avg":162,"response":140,"trial_type":"training_avg","trial_index":6,"time_elapsed":36096,"internal_node_id":"0.0-6.0"},{"responses":[{"value":0,"offby":0,"category":"$105 - $120","category_index":0},{"value":0,"offby":-1,"category":"$121 - $135","category_index":1},{"value":0,"offby":-3,"category":"$136 - $150","category_index":2},{"value":0,"offby":-7,"category":"$151 - $165","category_index":3},{"value":0,"offby":-6,"category":"$166 - $180","category_index":4},{"value":0,"offby":-3,"category":"$181 - $195","category_index":5},{"value":0,"offby":0,"category":"$196 - $210","category_index":6}],"phase":0,"number":0,"trial_type":"bar-choose","trial_index":7,"time_elapsed":43006,"internal_node_id":"0.0-7.0"},{"rt":64157,"url":"\/christiane\/tickets\/\/utils\/testing.html","trial_type":"html","trial_index":8,"time_elapsed":108252,"internal_node_id":"0.0-8.0"},{"phase":0,"order":[18,40,3,32,19,31,45,27,0,14,2,38,23,9,29,26,10,33,44,15,4,36,37,21,46,48,28,42,24,16,43,30,49,41,11,8,47,25,35,13,20,22,1,12,5,17,7,39,6,34],"trial_type":"store_order","trial_index":9,"time_elapsed":109254,"internal_node_id":"0.0-9.0"},{"result":224,"points":0,"place":9,"phase":0,"sequence":-1,"prices":[184,180,224,165,181,199,185,193,218,126],"times":[1139,430,761],"next_num":3,"trial_type":"ticket-choose","trial_index":10,"time_elapsed":114058,"internal_node_id":"0.0-10.0"},{"rt":6939,"url":"\/christiane\/tickets\/utils\/testing_after.html","trial_type":"html","trial_index":11,"time_elapsed":122086,"internal_node_id":"0.0-11.0"},{"result":156,"points":1,"place":3,"phase":0,"sequence":0,"prices":[156,167,138,205,161,167,157,145,188,133],"times":[793],"next_num":1,"trial_type":"ticket-choose","trial_index":12,"time_elapsed":124710,"internal_node_id":"0.0-12.0"},{"responses":[{"value":0,"offby":0,"category":"$145 - $160","category_index":0},{"value":0,"offby":-1,"category":"$161 - $175","category_index":1},{"value":0,"offby":-3,"category":"$176 - $190","category_index":2},{"value":0,"offby":-7,"category":"$191 - $205","category_index":3},{"value":0,"offby":-6,"category":"$206 - $220","category_index":4},{"value":0,"offby":-3,"category":"$221 - $235","category_index":5},{"value":0,"offby":0,"category":"$226 - $260","category_index":6}],"phase":1,"number":1,"trial_type":"bar-choose","trial_index":13,"time_elapsed":134409,"internal_node_id":"0.0-13.0"},{"rt":202006,"url":"\/christiane\/tickets\/utils\/testing2.html","trial_type":"html","trial_index":14,"time_elapsed":337635,"internal_node_id":"0.0-14.0"},{"phase":1,"order":[17,12,4,24,21,28,47,32,34,30,23,43,35,18,14,42,33,48,49,41,16,6,9,15,1,46,45,5,25,2,36,19,37,44,31,40,29,38,11,20,22,3,39,10,7,27,0,13,26,8],"trial_type":"store_order","trial_index":15,"time_elapsed":338636,"internal_node_id":"0.0-15.0"},{"result":195,"points":1,"place":3,"phase":1,"sequence":0,"prices":[195,206,178,243,201,208,197,187,228,174],"times":[1002],"next_num":1,"trial_type":"ticket-choose","trial_index":16,"time_elapsed":345580,"internal_node_id":"0.0-16.0"},{"result":194,"points":1,"place":3,"phase":1,"sequence":1,"prices":[194,206,198,245,201,208,187,188,228,176],"times":[1163],"next_num":1,"trial_type":"ticket-choose","trial_index":17,"time_elapsed":348518,"internal_node_id":"0.0-17.0"},{"responses":[{"value":0,"offby":0,"category":"$145 - $160","category_index":0},{"value":0,"offby":-1,"category":"$161 - $175","category_index":1},{"value":0,"offby":-3,"category":"$176 - $190","category_index":2},{"value":0,"offby":-7,"category":"$191 - $205","category_index":3},{"value":0,"offby":-6,"category":"$206 - $220","category_index":4},{"value":0,"offby":-3,"category":"$221 - $235","category_index":5},{"value":0,"offby":0,"category":"$226 - $260","category_index":6}],"phase":1,"number":1,"trial_type":"bar-choose","trial_index":18,"time_elapsed":354262,"internal_node_id":"0.0-18.0"},{"special_comment":"ww","trial_type":"special_sequence","trial_index":19,"time_elapsed":358324,"internal_node_id":"0.0-19.0"},{"during":"Nothing","bonus":4,"trial_type":"final","trial_index":20,"time_elapsed":462954,"internal_node_id":"0.0-20.0"}],"bonus":4}