{"start_time":"2017-05-18 11:30:30","end_time":"2017-05-18 11:42:02","points_phase0":0,"points_phase1":1,"phase_order":1,"age":333,"gender":"m","tries":1,"during":"Nothing","worker_id":"333","assignment_id":"689867","data":[{"rt":20109,"url":"\/christiane\/tickets\/utils\/consent.html","trial_type":"html","trial_index":0,"time_elapsed":20115,"internal_node_id":"0.0-0.0"},{"age":333,"gender":"m","trial_type":"age","trial_index":1,"time_elapsed":23295,"internal_node_id":"0.0-1.0"},{"worker_id":"333","trial_type":"workerid","trial_index":2,"time_elapsed":26482,"internal_node_id":"0.0-2.0"},{"tries":1,"trial_type":"instructions_check","trial_index":3,"time_elapsed":29733,"internal_node_id":"0.0-3.0"},{"rt":823,"url":"\/christiane\/tickets\/utils\/start.html","trial_type":"html","trial_index":4,"time_elapsed":31560,"internal_node_id":"0.0-4.0"},{"trial_type":"number-animation","trial_index":5,"time_elapsed":38418,"internal_node_id":"0.0-5.0"},{"phase":0,"sequence":0,"avg":181,"response":160,"trial_type":"training_avg","trial_index":6,"time_elapsed":41405,"internal_node_id":"0.0-6.0"},{"responses":[{"value":0,"offby":-1,"category":"$115 - $130","category_index":0},{"value":0,"offby":-5,"category":"$131 - $145","category_index":1},{"value":0,"offby":-12,"category":"$146 - $160","category_index":2},{"value":0,"offby":-22,"category":"$161 - $175","category_index":3},{"value":0,"offby":-34,"category":"$176 - $190","category_index":4},{"value":0,"offby":-15,"category":"$191 - $205","category_index":5},{"value":0,"offby":-11,"category":"$206 - $220","category_index":6},{"value":0,"offby":null,"category":"$201 - $210","category_index":7}],"phase":0,"number":0,"trial_type":"bar-choose","trial_index":7,"time_elapsed":646110,"internal_node_id":"0.0-7.0"},{"rt":717,"url":"\/christiane\/tickets\/\/utils\/testing.html","trial_type":"html","trial_index":8,"time_elapsed":647837,"internal_node_id":"0.0-8.0"},{"phase":0,"order":[45,5,4,46,16,11,18,6,29,1,31,39,43,37,10,13,20,19,0,22,2,7,33,15,49,3,32,8,9,12,21,25,40,23,44,28,27,34,47,30,14,26,41,42,24,38,48,17,36,35],"trial_type":"store_order","trial_index":9,"time_elapsed":648838,"internal_node_id":"0.0-9.0"},{"result":184,"points":1,"place":4,"phase":0,"sequence":-1,"prices":[184,180,224,165,181,199,185,193,218,126],"times":[1274],"next_num":1,"trial_type":"ticket-choose","trial_index":10,"time_elapsed":651969,"internal_node_id":"0.0-10.0"},{"rt":491,"url":"\/christiane\/tickets\/utils\/testing_after.html","trial_type":"html","trial_index":11,"time_elapsed":653471,"internal_node_id":"0.0-11.0"},{"result":199,"points":0,"place":8,"phase":0,"sequence":0,"prices":[199,193,169,165,202,182,151,164,176,171],"times":[600],"next_num":1,"trial_type":"ticket-choose","trial_index":12,"time_elapsed":656197,"internal_node_id":"0.0-12.0"},{"responses":[{"value":0,"offby":-1,"category":"$115 - $130","category_index":0},{"value":0,"offby":-5,"category":"$131 - $145","category_index":1},{"value":0,"offby":-12,"category":"$146 - $160","category_index":2},{"value":0,"offby":-22,"category":"$161 - $175","category_index":3},{"value":0,"offby":-34,"category":"$176 - $190","category_index":4},{"value":0,"offby":-15,"category":"$191 - $205","category_index":5},{"value":0,"offby":-11,"category":"$206 - $220","category_index":6},{"value":0,"offby":null,"category":"$201 - $210","category_index":7}],"phase":1,"number":1,"trial_type":"bar-choose","trial_index":13,"time_elapsed":660369,"internal_node_id":"0.0-13.0"},{"rt":632,"url":"\/christiane\/tickets\/utils\/testing2.html","trial_type":"html","trial_index":14,"time_elapsed":662086,"internal_node_id":"0.0-14.0"},{"phase":1,"order":[37,47,34,29,1,23,12,46,4,2,35,33,16,5,41,45,32,15,13,36,30,3,44,25,31,11,8,42,18,48,6,10,7,14,21,19,39,17,49,22,28,24,9,0,43,38,40,20,26,27],"trial_type":"store_order","trial_index":15,"time_elapsed":663087,"internal_node_id":"0.0-15.0"},{"result":212,"points":0,"place":9,"phase":1,"sequence":0,"prices":[212,192,188,184,167,193,189,164,176,170],"times":[1198],"next_num":1,"trial_type":"ticket-choose","trial_index":16,"time_elapsed":666271,"internal_node_id":"0.0-16.0"},{"result":175,"points":1,"place":3,"phase":1,"sequence":1,"prices":[175,186,178,212,179,187,167,169,209,153],"times":[928],"next_num":1,"trial_type":"ticket-choose","trial_index":17,"time_elapsed":668970,"internal_node_id":"0.0-17.0"},{"responses":[{"value":0,"offby":-1,"category":"$115 - $130","category_index":0},{"value":0,"offby":-5,"category":"$131 - $145","category_index":1},{"value":0,"offby":-12,"category":"$146 - $160","category_index":2},{"value":0,"offby":-22,"category":"$161 - $175","category_index":3},{"value":0,"offby":-34,"category":"$176 - $190","category_index":4},{"value":0,"offby":-15,"category":"$191 - $205","category_index":5},{"value":0,"offby":-11,"category":"$206 - $220","category_index":6},{"value":0,"offby":null,"category":"$201 - $210","category_index":7}],"phase":1,"number":1,"trial_type":"bar-choose","trial_index":18,"time_elapsed":673732,"internal_node_id":"0.0-18.0"},{"special_comment":"56565","trial_type":"special_sequence","trial_index":19,"time_elapsed":678297,"internal_node_id":"0.0-19.0"},{"during":"Nothing","bonus":0,"trial_type":"final","trial_index":20,"time_elapsed":690200,"internal_node_id":"0.0-20.0"}],"bonus":0}