{"start_time":"2017-05-23 12:42:11","end_time":"2017-05-23 12:54:05","points_phase0":56,"points_phase1":59,"phase_order":0,"age":24,"gender":"m","tries":1,"during":"Nothing","worker_id":"A11W7R2O4RQSSS","assignment_id":"3MD9PLUKKJ7TVZ8570SHF0FRHU4ZNP","data":[{"rt":10472,"url":"\/christiane\/tickets\/utils\/consent.html","trial_type":"html","trial_index":0,"time_elapsed":10635,"internal_node_id":"0.0-0.0"},{"age":24,"gender":"m","trial_type":"age","trial_index":1,"time_elapsed":19124,"internal_node_id":"0.0-1.0"},{"worker_id":"A11W7R2O4RQSSS","trial_type":"workerid","trial_index":2,"time_elapsed":24977,"internal_node_id":"0.0-2.0"},{"tries":1,"trial_type":"instructions_check","trial_index":3,"time_elapsed":38668,"internal_node_id":"0.0-3.0"},{"rt":7011,"url":"\/christiane\/tickets\/utils\/start.html","trial_type":"html","trial_index":4,"time_elapsed":46849,"internal_node_id":"0.0-4.0"},{"trial_type":"number-animation","trial_index":5,"time_elapsed":58483,"internal_node_id":"0.0-5.0"},{"phase":0,"sequence":0,"avg":181,"response":170,"trial_type":"training_avg","trial_index":6,"time_elapsed":72403,"internal_node_id":"0.0-6.0"},{"trial_type":"number-animation","trial_index":7,"time_elapsed":85075,"internal_node_id":"0.0-7.0"},{"phase":0,"sequence":1,"avg":188,"response":180,"trial_type":"training_avg","trial_index":8,"time_elapsed":91796,"internal_node_id":"0.0-8.0"},{"trial_type":"number-animation","trial_index":9,"time_elapsed":101099,"internal_node_id":"0.0-9.0"},{"phase":0,"sequence":2,"avg":188,"response":190,"trial_type":"training_avg","trial_index":10,"time_elapsed":107788,"internal_node_id":"0.0-10.0"},{"trial_type":"number-animation","trial_index":11,"time_elapsed":116735,"internal_node_id":"0.0-11.0"},{"phase":0,"sequence":3,"avg":177,"response":172,"trial_type":"training_avg","trial_index":12,"time_elapsed":122244,"internal_node_id":"0.0-12.0"},{"trial_type":"number-animation","trial_index":13,"time_elapsed":129875,"internal_node_id":"0.0-13.0"},{"phase":0,"sequence":4,"avg":182,"response":175,"trial_type":"training_avg","trial_index":14,"time_elapsed":134067,"internal_node_id":"0.0-14.0"},{"responses":[{"value":33,"offby":32,"category":"$115 - $130","category_index":0},{"value":0,"offby":-5,"category":"$131 - $145","category_index":1},{"value":6,"offby":-6,"category":"$146 - $160","category_index":2},{"value":30,"offby":8,"category":"$161 - $175","category_index":3},{"value":0,"offby":-34,"category":"$176 - $190","category_index":4},{"value":20,"offby":5,"category":"$191 - $205","category_index":5},{"value":11,"offby":0,"category":"$206 - $220","category_index":6},{"value":0,"offby":null,"category":"$201 - $210","category_index":7}],"phase":0,"number":0,"trial_type":"bar-choose","trial_index":15,"time_elapsed":226021,"internal_node_id":"0.0-15.0"},{"rt":2458,"url":"\/christiane\/tickets\/utils\/testing.html","trial_type":"html","trial_index":16,"time_elapsed":229613,"internal_node_id":"0.0-16.0"},{"phase":0,"order":[21,32,35,37,3,17,10,49,27,36,28,11,15,46,30,24,19,1,12,14,29,22,0,23,38,6,45,26,7,44,20,41,4,8,43,40,9,18,42,48,16,2,25,47,34,13,33,5,39,31],"trial_type":"store_order","trial_index":17,"time_elapsed":230617,"internal_node_id":"0.0-17.0"},{"result":184,"points":1,"place":4,"phase":0,"sequence":-1,"prices":[184,180,224,165,181,199,185,193,218,146],"times":[3096],"next_num":1,"trial_type":"ticket-choose","trial_index":18,"time_elapsed":236169,"internal_node_id":"0.0-18.0"},{"rt":1362,"url":"\/christiane\/tickets\/utils\/testing_after.html","trial_type":"html","trial_index":19,"time_elapsed":238663,"internal_node_id":"0.0-19.0"},{"result":221,"points":0,"place":9,"phase":0,"sequence":0,"prices":[175,186,177,221,180,187,158,166,209,153],"times":[1092,438,486,408],"next_num":4,"trial_type":"ticket-choose","trial_index":20,"time_elapsed":243765,"internal_node_id":"0.0-20.0"},{"result":169,"points":2,"place":1,"phase":0,"sequence":1,"prices":[193,169,171,187,190,224,174,194,165,188],"times":[842,328],"next_num":2,"trial_type":"ticket-choose","trial_index":21,"time_elapsed":247253,"internal_node_id":"0.0-21.0"},{"result":172,"points":1,"place":3,"phase":0,"sequence":2,"prices":[168,154,172,185,195,144,184,211,177,227],"times":[779,325,332],"next_num":3,"trial_type":"ticket-choose","trial_index":22,"time_elapsed":251260,"internal_node_id":"0.0-22.0"},{"result":169,"points":1,"place":3,"phase":0,"sequence":3,"prices":[198,193,169,163,202,182,152,164,177,171],"times":[1397,284,468],"next_num":3,"trial_type":"ticket-choose","trial_index":23,"time_elapsed":255742,"internal_node_id":"0.0-23.0"},{"result":217,"points":0,"place":9,"phase":0,"sequence":4,"prices":[174,186,178,217,181,188,167,168,208,156],"times":[541,226,302,354],"next_num":4,"trial_type":"ticket-choose","trial_index":24,"time_elapsed":259806,"internal_node_id":"0.0-24.0"},{"result":186,"points":0,"place":6,"phase":0,"sequence":5,"prices":[174,186,176,217,181,187,163,166,153,209],"times":[624,456],"next_num":2,"trial_type":"ticket-choose","trial_index":25,"time_elapsed":263151,"internal_node_id":"0.0-25.0"},{"result":187,"points":0,"place":6,"phase":0,"sequence":6,"prices":[175,187,177,209,180,188,165,165,154,208],"times":[658,631],"next_num":2,"trial_type":"ticket-choose","trial_index":26,"time_elapsed":266782,"internal_node_id":"0.0-26.0"},{"result":180,"points":0,"place":5,"phase":0,"sequence":7,"prices":[183,163,185,180,166,148,160,186,176,184],"times":[850,300,278,384],"next_num":4,"trial_type":"ticket-choose","trial_index":27,"time_elapsed":271016,"internal_node_id":"0.0-27.0"},{"result":178,"points":1,"place":3,"phase":0,"sequence":8,"prices":[192,165,171,178,188,217,172,195,197,186],"times":[745,291,236,243],"next_num":4,"trial_type":"ticket-choose","trial_index":28,"time_elapsed":275334,"internal_node_id":"0.0-28.0"},{"result":172,"points":1,"place":2,"phase":0,"sequence":9,"prices":[188,200,165,172,198,174,177,154,177,180],"times":[700,332,282,365],"next_num":4,"trial_type":"ticket-choose","trial_index":29,"time_elapsed":279400,"internal_node_id":"0.0-29.0"},{"result":170,"points":2,"place":1,"phase":0,"sequence":10,"prices":[196,165,170,184,187,211,171,201,202,185],"times":[873,1778,207],"next_num":3,"trial_type":"ticket-choose","trial_index":30,"time_elapsed":284751,"internal_node_id":"0.0-30.0"},{"result":177,"points":1,"place":4,"phase":0,"sequence":11,"prices":[174,186,177,217,181,187,165,166,153,209],"times":[697,301,267],"next_num":3,"trial_type":"ticket-choose","trial_index":31,"time_elapsed":288320,"internal_node_id":"0.0-31.0"},{"result":176,"points":1,"place":4,"phase":0,"sequence":12,"prices":[175,186,176,210,179,187,163,166,153,208],"times":[429,240,334],"next_num":3,"trial_type":"ticket-choose","trial_index":32,"time_elapsed":291711,"internal_node_id":"0.0-32.0"},{"result":226,"points":0,"place":9,"phase":0,"sequence":13,"prices":[210,184,226,193,215,158,199,175,176,208],"times":[569,291,441],"next_num":3,"trial_type":"ticket-choose","trial_index":33,"time_elapsed":295343,"internal_node_id":"0.0-33.0"},{"result":169,"points":2,"place":1,"phase":0,"sequence":14,"prices":[191,172,169,175,182,203,170,195,165,176],"times":[572,326,264],"next_num":3,"trial_type":"ticket-choose","trial_index":34,"time_elapsed":299011,"internal_node_id":"0.0-34.0"},{"result":165,"points":3,"place":0,"phase":0,"sequence":15,"prices":[193,165,175,181,185,224,180,199,218,184],"times":[629,580],"next_num":2,"trial_type":"ticket-choose","trial_index":35,"time_elapsed":302273,"internal_node_id":"0.0-35.0"},{"result":186,"points":0,"place":6,"phase":0,"sequence":16,"prices":[175,186,158,209,181,188,177,167,208,154],"times":[481,612],"next_num":2,"trial_type":"ticket-choose","trial_index":36,"time_elapsed":306072,"internal_node_id":"0.0-36.0"},{"result":167,"points":2,"place":1,"phase":0,"sequence":17,"prices":[175,185,167,224,181,186,178,168,208,156],"times":[451,490,163],"next_num":3,"trial_type":"ticket-choose","trial_index":37,"time_elapsed":309503,"internal_node_id":"0.0-37.0"},{"result":186,"points":0,"place":6,"phase":0,"sequence":18,"prices":[175,186,163,214,179,187,176,166,153,208],"times":[408,139],"next_num":2,"trial_type":"ticket-choose","trial_index":38,"time_elapsed":312151,"internal_node_id":"0.0-38.0"},{"result":163,"points":2,"place":1,"phase":0,"sequence":19,"prices":[174,186,163,212,181,187,176,166,153,209],"times":[434,344,240],"next_num":3,"trial_type":"ticket-choose","trial_index":39,"time_elapsed":315463,"internal_node_id":"0.0-39.0"},{"result":182,"points":0,"place":5,"phase":0,"sequence":20,"prices":[185,170,182,201,173,199,171,188,165,168],"times":[441,397,190],"next_num":3,"trial_type":"ticket-choose","trial_index":40,"time_elapsed":318841,"internal_node_id":"0.0-40.0"},{"result":186,"points":0,"place":6,"phase":0,"sequence":21,"prices":[175,186,177,209,181,188,158,167,208,154],"times":[492,603],"next_num":2,"trial_type":"ticket-choose","trial_index":41,"time_elapsed":322056,"internal_node_id":"0.0-41.0"},{"result":186,"points":0,"place":6,"phase":0,"sequence":22,"prices":[174,186,167,211,181,188,178,168,208,156],"times":[606,538],"next_num":2,"trial_type":"ticket-choose","trial_index":42,"time_elapsed":325352,"internal_node_id":"0.0-42.0"},{"result":187,"points":0,"place":6,"phase":0,"sequence":23,"prices":[176,187,177,225,181,187,158,165,208,153],"times":[420,241],"next_num":2,"trial_type":"ticket-choose","trial_index":43,"time_elapsed":328064,"internal_node_id":"0.0-43.0"},{"result":168,"points":1,"place":2,"phase":0,"sequence":24,"prices":[168,199,196,198,185,195,227,163,177,166],"times":[413],"next_num":1,"trial_type":"ticket-choose","trial_index":44,"time_elapsed":330490,"internal_node_id":"0.0-44.0"},{"result":186,"points":0,"place":6,"phase":0,"sequence":25,"prices":[175,186,165,214,179,187,177,166,153,208],"times":[432,492],"next_num":2,"trial_type":"ticket-choose","trial_index":45,"time_elapsed":333505,"internal_node_id":"0.0-45.0"},{"result":188,"points":0,"place":5,"phase":0,"sequence":26,"prices":[212,192,188,184,167,193,189,164,176,170],"times":[553,218,202],"next_num":3,"trial_type":"ticket-choose","trial_index":46,"time_elapsed":336812,"internal_node_id":"0.0-46.0"},{"result":165,"points":2,"place":1,"phase":0,"sequence":27,"prices":[200,165,165,173,182,207,161,202,204,180],"times":[499,325,327],"next_num":3,"trial_type":"ticket-choose","trial_index":47,"time_elapsed":340169,"internal_node_id":"0.0-47.0"},{"result":165,"points":2,"place":1,"phase":0,"sequence":28,"prices":[175,187,165,209,180,188,177,166,154,208],"times":[629,261,375],"next_num":3,"trial_type":"ticket-choose","trial_index":48,"time_elapsed":343745,"internal_node_id":"0.0-48.0"},{"result":149,"points":2,"place":1,"phase":0,"sequence":29,"prices":[180,159,149,175,185,141,163,174,178,207],"times":[523,325,460],"next_num":3,"trial_type":"ticket-choose","trial_index":49,"time_elapsed":347506,"internal_node_id":"0.0-49.0"},{"result":210,"points":0,"place":9,"phase":0,"sequence":30,"prices":[176,187,158,210,181,187,177,165,208,153],"times":[669,342,301,922],"next_num":4,"trial_type":"ticket-choose","trial_index":50,"time_elapsed":352393,"internal_node_id":"0.0-50.0"},{"result":158,"points":1,"place":3,"phase":0,"sequence":31,"prices":[201,207,155,158,156,165,167,135,178,177],"times":[616,398,444,554],"next_num":4,"trial_type":"ticket-choose","trial_index":51,"time_elapsed":357009,"internal_node_id":"0.0-51.0"},{"result":167,"points":2,"place":1,"phase":0,"sequence":32,"prices":[175,185,178,215,181,186,167,168,208,156],"times":[534,730,1385,682,627,616,1055],"next_num":7,"trial_type":"ticket-choose","trial_index":52,"time_elapsed":365809,"internal_node_id":"0.0-52.0"},{"result":165,"points":2,"place":1,"phase":0,"sequence":33,"prices":[174,186,165,212,181,187,177,167,153,209],"times":[1989,638,1228],"next_num":3,"trial_type":"ticket-choose","trial_index":53,"time_elapsed":371900,"internal_node_id":"0.0-53.0"},{"result":187,"points":0,"place":6,"phase":0,"sequence":34,"prices":[201,187,157,184,198,179,188,185,178,170],"times":[743,1005],"next_num":2,"trial_type":"ticket-choose","trial_index":54,"time_elapsed":375986,"internal_node_id":"0.0-54.0"},{"result":175,"points":1,"place":3,"phase":0,"sequence":35,"prices":[189,150,175,160,188,207,158,194,178,199],"times":[663,294,724],"next_num":3,"trial_type":"ticket-choose","trial_index":55,"time_elapsed":380092,"internal_node_id":"0.0-55.0"},{"result":165,"points":2,"place":1,"phase":0,"sequence":36,"prices":[175,186,177,210,179,187,165,166,153,208],"times":[1214,708,1116,753,646,653,731],"next_num":7,"trial_type":"ticket-choose","trial_index":56,"time_elapsed":389586,"internal_node_id":"0.0-56.0"},{"result":158,"points":2,"place":1,"phase":0,"sequence":37,"prices":[175,186,158,211,180,187,177,166,209,153],"times":[678,784,924],"next_num":3,"trial_type":"ticket-choose","trial_index":57,"time_elapsed":394316,"internal_node_id":"0.0-57.0"},{"result":173,"points":2,"place":1,"phase":0,"sequence":38,"prices":[222,173,202,197,143,205,198,183,178,186],"times":[632,725],"next_num":2,"trial_type":"ticket-choose","trial_index":58,"time_elapsed":397730,"internal_node_id":"0.0-58.0"},{"result":169,"points":2,"place":1,"phase":0,"sequence":39,"prices":[181,215,169,147,182,193,177,184,176,179],"times":[2633,678,838],"next_num":3,"trial_type":"ticket-choose","trial_index":59,"time_elapsed":404114,"internal_node_id":"0.0-59.0"},{"result":175,"points":1,"place":3,"phase":0,"sequence":40,"prices":[175,187,176,209,180,188,163,165,154,208],"times":[1128],"next_num":1,"trial_type":"ticket-choose","trial_index":60,"time_elapsed":407027,"internal_node_id":"0.0-60.0"},{"result":167,"points":2,"place":1,"phase":0,"sequence":41,"prices":[175,186,167,225,179,187,178,169,209,153],"times":[607,795,842],"next_num":3,"trial_type":"ticket-choose","trial_index":61,"time_elapsed":412181,"internal_node_id":"0.0-61.0"},{"result":165,"points":2,"place":1,"phase":0,"sequence":42,"prices":[201,165,162,166,185,214,165,202,204,179],"times":[886,822],"next_num":2,"trial_type":"ticket-choose","trial_index":62,"time_elapsed":416531,"internal_node_id":"0.0-62.0"},{"result":152,"points":3,"place":0,"phase":0,"sequence":43,"prices":[200,181,203,152,175,171,160,154,176,191],"times":[689,594,821,804],"next_num":4,"trial_type":"ticket-choose","trial_index":63,"time_elapsed":422141,"internal_node_id":"0.0-63.0"},{"result":155,"points":2,"place":1,"phase":0,"sequence":44,"prices":[181,155,148,161,168,187,172,199,176,194],"times":[832,872],"next_num":2,"trial_type":"ticket-choose","trial_index":64,"time_elapsed":426011,"internal_node_id":"0.0-64.0"},{"result":163,"points":2,"place":1,"phase":0,"sequence":45,"prices":[175,187,163,209,180,188,176,165,154,208],"times":[552,579,849],"next_num":3,"trial_type":"ticket-choose","trial_index":65,"time_elapsed":430516,"internal_node_id":"0.0-65.0"},{"result":168,"points":1,"place":2,"phase":0,"sequence":46,"prices":[183,182,192,168,173,205,167,187,165,170],"times":[1420,606,769,626],"next_num":4,"trial_type":"ticket-choose","trial_index":66,"time_elapsed":436606,"internal_node_id":"0.0-66.0"},{"result":175,"points":1,"place":3,"phase":0,"sequence":47,"prices":[175,186,178,212,179,187,167,169,209,153],"times":[1012],"next_num":1,"trial_type":"ticket-choose","trial_index":67,"time_elapsed":439676,"internal_node_id":"0.0-67.0"},{"result":167,"points":2,"place":1,"phase":0,"sequence":48,"prices":[189,167,180,197,165,168,172,213,178,171],"times":[654,607],"next_num":2,"trial_type":"ticket-choose","trial_index":68,"time_elapsed":443413,"internal_node_id":"0.0-68.0"},{"result":175,"points":0,"place":5,"phase":0,"sequence":49,"prices":[171,203,175,170,167,220,192,186,165,165],"times":[1261,771,861],"next_num":3,"trial_type":"ticket-choose","trial_index":69,"time_elapsed":449012,"internal_node_id":"0.0-69.0"},{"responses":[{"value":23,"offby":22,"category":"$115 - $130","category_index":0},{"value":21,"offby":16,"category":"$131 - $145","category_index":1},{"value":34,"offby":22,"category":"$146 - $160","category_index":2},{"value":21,"offby":-1,"category":"$161 - $175","category_index":3},{"value":1,"offby":-33,"category":"$176 - $190","category_index":4},{"value":0,"offby":-15,"category":"$191 - $205","category_index":5},{"value":0,"offby":-11,"category":"$206 - $220","category_index":6},{"value":0,"offby":null,"category":"$201 - $210","category_index":7}],"phase":1,"number":1,"trial_type":"bar-choose","trial_index":70,"time_elapsed":463095,"internal_node_id":"0.0-70.0"},{"rt":2017,"url":"\/christiane\/tickets\/utils\/testing2.html","trial_type":"point_update","trial_index":71,"time_elapsed":466422,"internal_node_id":"0.0-71.0"},{"phase":1,"order":[29,16,11,35,20,26,21,19,48,12,22,45,27,8,49,24,36,39,9,18,15,17,1,37,6,32,47,41,30,5,28,10,40,46,44,38,0,34,31,14,43,23,13,7,25,2,42,3,4,33],"trial_type":"store_order","trial_index":72,"time_elapsed":467429,"internal_node_id":"0.0-72.0"},{"result":179,"points":0,"place":5,"phase":1,"sequence":0,"prices":[185,179,191,165,161,173,199,150,188,168],"times":[2509,637],"next_num":2,"trial_type":"ticket-choose","trial_index":73,"time_elapsed":472789,"internal_node_id":"0.0-73.0"},{"result":176,"points":1,"place":4,"phase":1,"sequence":1,"prices":[175,187,176,209,163,180,188,165,154,208],"times":[951,765,637],"next_num":3,"trial_type":"ticket-choose","trial_index":74,"time_elapsed":477477,"internal_node_id":"0.0-74.0"},{"result":174,"points":1,"place":3,"phase":1,"sequence":2,"prices":[177,174,186,217,165,181,187,166,153,209],"times":[752,696],"next_num":2,"trial_type":"ticket-choose","trial_index":75,"time_elapsed":481014,"internal_node_id":"0.0-75.0"},{"result":167,"points":1,"place":2,"phase":1,"sequence":3,"prices":[167,153,172,185,195,143,184,211,177,227],"times":[935],"next_num":1,"trial_type":"ticket-choose","trial_index":76,"time_elapsed":484158,"internal_node_id":"0.0-76.0"},{"result":158,"points":2,"place":1,"phase":1,"sequence":4,"prices":[158,176,187,210,177,181,187,165,208,153],"times":[933],"next_num":1,"trial_type":"ticket-choose","trial_index":77,"time_elapsed":487096,"internal_node_id":"0.0-77.0"},{"result":173,"points":1,"place":4,"phase":1,"sequence":5,"prices":[200,173,182,169,207,165,152,202,161,204],"times":[809,1299],"next_num":2,"trial_type":"ticket-choose","trial_index":78,"time_elapsed":491461,"internal_node_id":"0.0-78.0"},{"result":177,"points":1,"place":4,"phase":1,"sequence":6,"prices":[177,175,186,221,158,180,187,166,209,153],"times":[1216],"next_num":1,"trial_type":"ticket-choose","trial_index":79,"time_elapsed":494629,"internal_node_id":"0.0-79.0"},{"result":158,"points":2,"place":1,"phase":1,"sequence":7,"prices":[158,175,186,209,177,181,188,167,208,154],"times":[939],"next_num":1,"trial_type":"ticket-choose","trial_index":80,"time_elapsed":497537,"internal_node_id":"0.0-80.0"},{"result":181,"points":0,"place":5,"phase":1,"sequence":8,"prices":[181,214,169,147,182,193,178,184,176,179],"times":[944],"next_num":1,"trial_type":"ticket-choose","trial_index":81,"time_elapsed":500568,"internal_node_id":"0.0-81.0"},{"result":163,"points":2,"place":1,"phase":1,"sequence":9,"prices":[163,175,186,214,176,179,187,166,153,208],"times":[780],"next_num":1,"trial_type":"ticket-choose","trial_index":82,"time_elapsed":503317,"internal_node_id":"0.0-82.0"},{"result":186,"points":0,"place":6,"phase":1,"sequence":10,"prices":[177,175,186,209,158,181,188,167,208,154],"times":[675,282,411],"next_num":3,"trial_type":"ticket-choose","trial_index":83,"time_elapsed":507167,"internal_node_id":"0.0-83.0"},{"result":174,"points":1,"place":3,"phase":1,"sequence":11,"prices":[199,191,188,174,167,193,189,164,176,170],"times":[780,726,591,412],"next_num":4,"trial_type":"ticket-choose","trial_index":84,"time_elapsed":512310,"internal_node_id":"0.0-84.0"},{"result":172,"points":1,"place":3,"phase":1,"sequence":12,"prices":[192,172,171,178,188,165,217,168,195,197],"times":[793,788],"next_num":2,"trial_type":"ticket-choose","trial_index":85,"time_elapsed":516053,"internal_node_id":"0.0-85.0"},{"result":166,"points":1,"place":2,"phase":1,"sequence":13,"prices":[165,174,186,212,177,181,187,166,153,209],"times":[966,613,694,806,780,803,694,704],"next_num":8,"trial_type":"ticket-choose","trial_index":86,"time_elapsed":525559,"internal_node_id":"0.0-86.0"},{"result":163,"points":1,"place":2,"phase":1,"sequence":14,"prices":[173,163,185,181,166,148,160,185,176,184],"times":[729,604],"next_num":2,"trial_type":"ticket-choose","trial_index":87,"time_elapsed":529062,"internal_node_id":"0.0-87.0"},{"result":175,"points":2,"place":1,"phase":1,"sequence":15,"prices":[193,181,175,181,185,165,224,199,218,184],"times":[514,717,638],"next_num":3,"trial_type":"ticket-choose","trial_index":88,"time_elapsed":533257,"internal_node_id":"0.0-88.0"},{"result":165,"points":2,"place":1,"phase":1,"sequence":16,"prices":[187,201,165,172,196,174,178,154,172,180],"times":[816,709,834],"next_num":3,"trial_type":"ticket-choose","trial_index":89,"time_elapsed":538191,"internal_node_id":"0.0-89.0"},{"result":189,"points":0,"place":7,"phase":1,"sequence":17,"prices":[189,167,180,197,165,168,172,213,178,171],"times":[613],"next_num":1,"trial_type":"ticket-choose","trial_index":90,"time_elapsed":540735,"internal_node_id":"0.0-90.0"},{"result":175,"points":1,"place":3,"phase":1,"sequence":18,"prices":[177,175,186,210,165,179,187,166,153,208],"times":[1015,207],"next_num":2,"trial_type":"ticket-choose","trial_index":91,"time_elapsed":544136,"internal_node_id":"0.0-91.0"},{"result":158,"points":2,"place":1,"phase":1,"sequence":19,"prices":[158,175,186,211,177,180,187,166,209,153],"times":[415],"next_num":1,"trial_type":"ticket-choose","trial_index":92,"time_elapsed":546503,"internal_node_id":"0.0-92.0"},{"result":175,"points":1,"place":3,"phase":1,"sequence":20,"prices":[176,175,186,210,163,179,187,166,153,208],"times":[546,507],"next_num":2,"trial_type":"ticket-choose","trial_index":93,"time_elapsed":550064,"internal_node_id":"0.0-93.0"},{"result":176,"points":1,"place":4,"phase":1,"sequence":21,"prices":[174,186,176,217,163,181,187,166,153,209],"times":[590,518,665],"next_num":3,"trial_type":"ticket-choose","trial_index":94,"time_elapsed":554239,"internal_node_id":"0.0-94.0"},{"result":167,"points":2,"place":1,"phase":1,"sequence":22,"prices":[167,175,185,224,178,181,186,168,208,156],"times":[827],"next_num":1,"trial_type":"ticket-choose","trial_index":95,"time_elapsed":557449,"internal_node_id":"0.0-95.0"},{"result":169,"points":1,"place":3,"phase":1,"sequence":23,"prices":[199,193,169,165,202,182,151,164,176,171],"times":[890,733,691],"next_num":3,"trial_type":"ticket-choose","trial_index":96,"time_elapsed":561999,"internal_node_id":"0.0-96.0"},{"result":165,"points":2,"place":1,"phase":1,"sequence":24,"prices":[165,175,186,214,177,179,187,166,153,208],"times":[776],"next_num":1,"trial_type":"ticket-choose","trial_index":97,"time_elapsed":564775,"internal_node_id":"0.0-97.0"},{"result":174,"points":1,"place":2,"phase":1,"sequence":25,"prices":[193,174,224,165,187,190,224,161,194,195],"times":[778,702],"next_num":2,"trial_type":"ticket-choose","trial_index":98,"time_elapsed":568272,"internal_node_id":"0.0-98.0"},{"result":180,"points":0,"place":6,"phase":1,"sequence":26,"prices":[200,180,203,152,175,170,160,154,176,191],"times":[787,883],"next_num":2,"trial_type":"ticket-choose","trial_index":99,"time_elapsed":572088,"internal_node_id":"0.0-99.0"},{"result":155,"points":2,"place":1,"phase":1,"sequence":27,"prices":[200,207,155,158,156,168,167,135,178,177],"times":[746,502,700],"next_num":3,"trial_type":"ticket-choose","trial_index":100,"time_elapsed":576216,"internal_node_id":"0.0-100.0"},{"result":165,"points":2,"place":1,"phase":1,"sequence":28,"prices":[191,170,182,165,175,182,203,157,195,200],"times":[758,635,724,614],"next_num":4,"trial_type":"ticket-choose","trial_index":101,"time_elapsed":581391,"internal_node_id":"0.0-101.0"},{"result":175,"points":1,"place":3,"phase":1,"sequence":29,"prices":[178,175,186,212,167,179,187,169,209,153],"times":[838,766],"next_num":2,"trial_type":"ticket-choose","trial_index":102,"time_elapsed":584970,"internal_node_id":"0.0-102.0"},{"result":170,"points":1,"place":2,"phase":1,"sequence":30,"prices":[196,171,170,184,187,165,211,169,201,202],"times":[719,755,596],"next_num":3,"trial_type":"ticket-choose","trial_index":103,"time_elapsed":589367,"internal_node_id":"0.0-103.0"},{"result":175,"points":1,"place":3,"phase":1,"sequence":31,"prices":[177,175,187,209,165,180,188,165,154,208],"times":[777,702],"next_num":2,"trial_type":"ticket-choose","trial_index":104,"time_elapsed":593372,"internal_node_id":"0.0-104.0"},{"result":150,"points":3,"place":0,"phase":1,"sequence":32,"prices":[190,150,175,161,188,207,157,194,178,199],"times":[600,745],"next_num":2,"trial_type":"ticket-choose","trial_index":105,"time_elapsed":596931,"internal_node_id":"0.0-105.0"},{"result":184,"points":1,"place":3,"phase":1,"sequence":33,"prices":[214,184,226,192,215,158,199,175,176,208],"times":[836,950],"next_num":2,"trial_type":"ticket-choose","trial_index":106,"time_elapsed":600727,"internal_node_id":"0.0-106.0"},{"result":159,"points":1,"place":2,"phase":1,"sequence":34,"prices":[181,159,149,175,185,151,163,174,178,207],"times":[819,597],"next_num":2,"trial_type":"ticket-choose","trial_index":107,"time_elapsed":604136,"internal_node_id":"0.0-107.0"},{"result":163,"points":3,"place":0,"phase":1,"sequence":35,"prices":[163,199,196,199,185,195,227,163,177,166],"times":[883],"next_num":1,"trial_type":"ticket-choose","trial_index":108,"time_elapsed":606826,"internal_node_id":"0.0-108.0"},{"result":167,"points":2,"place":1,"phase":1,"sequence":36,"prices":[167,174,186,211,178,181,188,168,208,156],"times":[1127],"next_num":1,"trial_type":"ticket-choose","trial_index":109,"time_elapsed":609769,"internal_node_id":"0.0-109.0"},{"result":156,"points":2,"place":1,"phase":1,"sequence":37,"prices":[180,156,149,160,168,186,172,198,176,195],"times":[876,574],"next_num":2,"trial_type":"ticket-choose","trial_index":110,"time_elapsed":613137,"internal_node_id":"0.0-110.0"},{"result":169,"points":0,"place":5,"phase":1,"sequence":38,"prices":[171,169,186,165,163,167,220,148,187,165],"times":[429,572],"next_num":2,"trial_type":"ticket-choose","trial_index":111,"time_elapsed":616001,"internal_node_id":"0.0-111.0"},{"result":166,"points":1,"place":2,"phase":1,"sequence":39,"prices":[163,174,186,212,176,181,187,166,153,209],"times":[840,717,628,779,804,713,604,1639],"next_num":8,"trial_type":"ticket-choose","trial_index":112,"time_elapsed":626064,"internal_node_id":"0.0-112.0"},{"result":187,"points":0,"place":6,"phase":1,"sequence":40,"prices":[201,187,157,184,198,179,188,185,178,170],"times":[956,643],"next_num":2,"trial_type":"ticket-choose","trial_index":113,"time_elapsed":629575,"internal_node_id":"0.0-113.0"},{"result":177,"points":1,"place":4,"phase":1,"sequence":41,"prices":[177,176,187,225,158,181,187,165,208,153],"times":[903],"next_num":1,"trial_type":"ticket-choose","trial_index":114,"time_elapsed":632330,"internal_node_id":"0.0-114.0"},{"result":165,"points":1,"place":2,"phase":1,"sequence":42,"prices":[163,175,187,209,176,180,188,165,154,208],"times":[676,700,542,587,565,641,662,703],"next_num":8,"trial_type":"ticket-choose","trial_index":115,"time_elapsed":640627,"internal_node_id":"0.0-115.0"},{"result":187,"points":0,"place":6,"phase":1,"sequence":43,"prices":[165,175,187,209,177,180,188,167,154,208],"times":[1015,1173,131],"next_num":3,"trial_type":"ticket-choose","trial_index":116,"time_elapsed":645146,"internal_node_id":"0.0-116.0"},{"result":179,"points":1,"place":4,"phase":1,"sequence":44,"prices":[201,204,179,166,185,165,214,156,202,165],"times":[707,675,140],"next_num":3,"trial_type":"ticket-choose","trial_index":117,"time_elapsed":649253,"internal_node_id":"0.0-117.0"},{"result":175,"points":1,"place":3,"phase":1,"sequence":45,"prices":[167,175,186,225,178,179,187,169,209,153],"times":[562,329],"next_num":2,"trial_type":"ticket-choose","trial_index":118,"time_elapsed":652453,"internal_node_id":"0.0-118.0"},{"result":173,"points":2,"place":1,"phase":1,"sequence":46,"prices":[220,173,201,197,169,205,198,183,178,186],"times":[938,684],"next_num":2,"trial_type":"ticket-choose","trial_index":119,"time_elapsed":656013,"internal_node_id":"0.0-119.0"},{"result":174,"points":1,"place":3,"phase":1,"sequence":47,"prices":[178,174,186,217,167,181,188,168,208,156],"times":[473,818],"next_num":2,"trial_type":"ticket-choose","trial_index":120,"time_elapsed":659317,"internal_node_id":"0.0-120.0"},{"result":178,"points":1,"place":4,"phase":1,"sequence":48,"prices":[178,175,185,215,167,181,186,168,208,156],"times":[613],"next_num":1,"trial_type":"ticket-choose","trial_index":121,"time_elapsed":661724,"internal_node_id":"0.0-121.0"},{"result":179,"points":1,"place":4,"phase":1,"sequence":49,"prices":[183,179,188,165,168,173,205,159,187,191],"times":[469,156],"next_num":2,"trial_type":"ticket-choose","trial_index":122,"time_elapsed":664547,"internal_node_id":"0.0-122.0"},{"responses":[{"value":33,"offby":32,"category":"$115 - $130","category_index":0},{"value":21,"offby":16,"category":"$131 - $145","category_index":1},{"value":12,"offby":0,"category":"$146 - $160","category_index":2},{"value":11,"offby":-11,"category":"$161 - $175","category_index":3},{"value":16,"offby":-18,"category":"$176 - $190","category_index":4},{"value":7,"offby":-8,"category":"$191 - $205","category_index":5},{"value":0,"offby":-11,"category":"$206 - $220","category_index":6},{"value":0,"offby":null,"category":"$201 - $210","category_index":7}],"phase":1,"number":1,"trial_type":"bar-choose","trial_index":123,"time_elapsed":683545,"internal_node_id":"0.0-123.0"},{"special_comment":"no","trial_type":"special_sequence","trial_index":124,"time_elapsed":688038,"internal_node_id":"0.0-124.0"},{"during":"Nothing","bonus":152,"trial_type":"final","trial_index":125,"time_elapsed":710578,"internal_node_id":"0.0-125.0"}],"bonus":152}