{"start_time":"2017-05-24 15:31:12","end_time":"2017-05-24 15:56:57","points_phase0":107,"points_phase1":95,"phase_order":0,"age":40,"gender":"m","tries":1,"during":"Nothing","worker_id":"A140QSCUDO8CPW","assignment_id":"3PWWM24LHTRIMHIPCRUKASFP7VU28U","data":[{"rt":66092,"url":"\/christiane\/tickets\/utils\/consent.html","trial_type":"html","trial_index":0,"time_elapsed":66248,"internal_node_id":"0.0-0.0"},{"age":40,"gender":"m","trial_type":"age","trial_index":1,"time_elapsed":71671,"internal_node_id":"0.0-1.0"},{"worker_id":"A140QSCUDO8CPW","trial_type":"workerid","trial_index":2,"time_elapsed":77115,"internal_node_id":"0.0-2.0"},{"tries":1,"trial_type":"instructions_check","trial_index":3,"time_elapsed":193295,"internal_node_id":"0.0-3.0"},{"rt":7928,"url":"\/christiane\/tickets\/utils\/start.html","trial_type":"html","trial_index":4,"time_elapsed":202385,"internal_node_id":"0.0-4.0"},{"trial_type":"number-animation","trial_index":5,"time_elapsed":220767,"internal_node_id":"0.0-5.0"},{"phase":0,"sequence":0,"avg":181,"response":160,"trial_type":"training_avg","trial_index":6,"time_elapsed":229778,"internal_node_id":"0.0-6.0"},{"trial_type":"number-animation","trial_index":7,"time_elapsed":239037,"internal_node_id":"0.0-7.0"},{"phase":0,"sequence":1,"avg":188,"response":189,"trial_type":"training_avg","trial_index":8,"time_elapsed":251097,"internal_node_id":"0.0-8.0"},{"trial_type":"number-animation","trial_index":9,"time_elapsed":262156,"internal_node_id":"0.0-9.0"},{"phase":0,"sequence":2,"avg":188,"response":184,"trial_type":"training_avg","trial_index":10,"time_elapsed":271493,"internal_node_id":"0.0-10.0"},{"trial_type":"number-animation","trial_index":11,"time_elapsed":297087,"internal_node_id":"0.0-11.0"},{"phase":0,"sequence":3,"avg":177,"response":180,"trial_type":"training_avg","trial_index":12,"time_elapsed":305490,"internal_node_id":"0.0-12.0"},{"trial_type":"number-animation","trial_index":13,"time_elapsed":313074,"internal_node_id":"0.0-13.0"},{"phase":0,"sequence":4,"avg":182,"response":185,"trial_type":"training_avg","trial_index":14,"time_elapsed":323142,"internal_node_id":"0.0-14.0"},{"responses":[{"value":0,"offby":-1,"category":"$115 - $130","category_index":0},{"value":0,"offby":-5,"category":"$131 - $145","category_index":1},{"value":15,"offby":3,"category":"$146 - $160","category_index":2},{"value":30,"offby":8,"category":"$161 - $175","category_index":3},{"value":30,"offby":-4,"category":"$176 - $190","category_index":4},{"value":15,"offby":0,"category":"$191 - $205","category_index":5},{"value":10,"offby":-1,"category":"$206 - $220","category_index":6}],"phase":0,"number":0,"trial_type":"bar-choose","trial_index":15,"time_elapsed":403052,"internal_node_id":"0.0-15.0"},{"rt":11298,"url":"\/christiane\/tickets\/utils\/testing.html","trial_type":"html","trial_index":16,"time_elapsed":415505,"internal_node_id":"0.0-16.0"},{"phase":0,"order":[28,4,31,12,36,0,48,6,43,25,21,33,45,41,5,34,35,38,9,23,20,3,37,2,8,17,40,11,15,46,1,27,7,47,44,32,24,42,49,29,30,22,10,13,14,39,19,16,26,18],"trial_type":"store_order","trial_index":17,"time_elapsed":416507,"internal_node_id":"0.0-17.0"},{"result":165,"points":2,"place":1,"phase":0,"sequence":-1,"prices":[184,180,224,165,181,199,185,193,218,146],"times":[2199,554,700,1187],"next_num":4,"trial_type":"ticket-choose","trial_index":18,"time_elapsed":424358,"internal_node_id":"0.0-18.0"},{"rt":12697,"url":"\/christiane\/tickets\/utils\/testing_after.html","trial_type":"html","trial_index":19,"time_elapsed":438207,"internal_node_id":"0.0-19.0"},{"result":196,"points":0,"place":6,"phase":0,"sequence":0,"prices":[196,165,170,184,187,211,171,201,202,185],"times":[2939],"next_num":1,"trial_type":"ticket-choose","trial_index":20,"time_elapsed":444170,"internal_node_id":"0.0-20.0"},{"result":167,"points":2,"place":1,"phase":0,"sequence":1,"prices":[175,185,178,215,181,186,167,168,208,156],"times":[1330,554,589,612,679,2658,1062],"next_num":7,"trial_type":"ticket-choose","trial_index":21,"time_elapsed":455600,"internal_node_id":"0.0-21.0"},{"result":170,"points":1,"place":3,"phase":0,"sequence":2,"prices":[171,203,175,170,167,220,192,186,165,165],"times":[1296,567,781,1309],"next_num":4,"trial_type":"ticket-choose","trial_index":22,"time_elapsed":462687,"internal_node_id":"0.0-22.0"},{"result":163,"points":2,"place":1,"phase":0,"sequence":3,"prices":[175,186,163,214,179,187,176,166,153,208],"times":[960,588,916],"next_num":3,"trial_type":"ticket-choose","trial_index":23,"time_elapsed":468199,"internal_node_id":"0.0-23.0"},{"result":154,"points":3,"place":0,"phase":0,"sequence":4,"prices":[188,200,165,172,198,174,177,154,177,180],"times":[1398,578,2265,542,520,510,555,1533],"next_num":8,"trial_type":"ticket-choose","trial_index":24,"time_elapsed":480462,"internal_node_id":"0.0-24.0"},{"result":168,"points":1,"place":2,"phase":0,"sequence":5,"prices":[174,186,167,211,181,188,178,168,208,156],"times":[1272,588,1185,590,679,556,736,2558],"next_num":8,"trial_type":"ticket-choose","trial_index":25,"time_elapsed":492342,"internal_node_id":"0.0-25.0"},{"result":147,"points":3,"place":0,"phase":0,"sequence":6,"prices":[181,215,169,147,182,193,177,184,176,179],"times":[961,713,971,2446],"next_num":4,"trial_type":"ticket-choose","trial_index":26,"time_elapsed":501252,"internal_node_id":"0.0-26.0"},{"result":166,"points":1,"place":2,"phase":0,"sequence":7,"prices":[175,186,165,214,179,187,177,166,153,208],"times":[825,522,849,555,477,454,544,1837],"next_num":8,"trial_type":"ticket-choose","trial_index":27,"time_elapsed":511478,"internal_node_id":"0.0-27.0"},{"result":170,"points":2,"place":1,"phase":0,"sequence":8,"prices":[201,187,157,184,198,179,188,185,178,170],"times":[1149,520,566,577,543,610,578,635,871,1332],"next_num":10,"trial_type":"ticket-choose","trial_index":28,"time_elapsed":523190,"internal_node_id":"0.0-28.0"},{"result":162,"points":3,"place":0,"phase":0,"sequence":9,"prices":[201,165,162,166,185,214,165,202,204,179],"times":[1086,926,1636],"next_num":3,"trial_type":"ticket-choose","trial_index":29,"time_elapsed":529715,"internal_node_id":"0.0-29.0"},{"result":158,"points":2,"place":1,"phase":0,"sequence":10,"prices":[175,186,177,221,180,187,158,166,209,153],"times":[928,769,624,590,657,533,1128],"next_num":7,"trial_type":"ticket-choose","trial_index":30,"time_elapsed":551382,"internal_node_id":"0.0-30.0"},{"result":167,"points":2,"place":1,"phase":0,"sequence":11,"prices":[183,182,192,168,173,205,167,187,165,170],"times":[1644,532,588,1039,601,622,1050],"next_num":7,"trial_type":"ticket-choose","trial_index":31,"time_elapsed":561260,"internal_node_id":"0.0-31.0"},{"result":164,"points":3,"place":0,"phase":0,"sequence":12,"prices":[212,192,188,184,167,193,189,164,176,170],"times":[16846,657,556,489,1162,612,544,938],"next_num":8,"trial_type":"ticket-choose","trial_index":32,"time_elapsed":622651,"internal_node_id":"0.0-32.0"},{"result":155,"points":2,"place":1,"phase":0,"sequence":13,"prices":[201,207,155,158,156,165,167,135,178,177],"times":[1826,488,938],"next_num":3,"trial_type":"ticket-choose","trial_index":33,"time_elapsed":628580,"internal_node_id":"0.0-33.0"},{"result":153,"points":3,"place":0,"phase":0,"sequence":14,"prices":[175,186,178,212,179,187,167,169,209,153],"times":[1154,522,531,532,559,597,1004,1050,759,1951],"next_num":10,"trial_type":"ticket-choose","trial_index":34,"time_elapsed":641529,"internal_node_id":"0.0-34.0"},{"result":194,"points":0,"place":8,"phase":0,"sequence":15,"prices":[181,155,148,161,168,187,172,199,176,194],"times":[1127,532,541,669,664,702,666,869,1500,780],"next_num":10,"trial_type":"ticket-choose","trial_index":35,"time_elapsed":653881,"internal_node_id":"0.0-35.0"},{"result":154,"points":2,"place":1,"phase":0,"sequence":16,"prices":[168,154,172,185,195,144,184,211,177,227],"times":[1748,983],"next_num":2,"trial_type":"ticket-choose","trial_index":36,"time_elapsed":659168,"internal_node_id":"0.0-36.0"},{"result":163,"points":3,"place":0,"phase":0,"sequence":17,"prices":[168,199,196,198,185,195,227,163,177,166],"times":[982,590,601,553,657,690,657,1984],"next_num":8,"trial_type":"ticket-choose","trial_index":37,"time_elapsed":669642,"internal_node_id":"0.0-37.0"},{"result":165,"points":2,"place":1,"phase":0,"sequence":18,"prices":[175,186,177,210,179,187,165,166,153,208],"times":[1501,545,691,612,645,713,2198],"next_num":7,"trial_type":"ticket-choose","trial_index":38,"time_elapsed":680105,"internal_node_id":"0.0-38.0"},{"result":158,"points":2,"place":1,"phase":0,"sequence":19,"prices":[176,187,177,225,181,187,158,165,208,153],"times":[1036,489,432,689,654,623,1040],"next_num":7,"trial_type":"ticket-choose","trial_index":39,"time_elapsed":688632,"internal_node_id":"0.0-39.0"},{"result":158,"points":2,"place":1,"phase":0,"sequence":20,"prices":[176,187,158,210,181,187,177,165,208,153],"times":[1498,657,1782],"next_num":3,"trial_type":"ticket-choose","trial_index":40,"time_elapsed":695090,"internal_node_id":"0.0-40.0"},{"result":156,"points":3,"place":0,"phase":0,"sequence":21,"prices":[174,186,178,217,181,188,167,168,208,156],"times":[1251,590,545,600,532,534,1072,1501,790,982],"next_num":10,"trial_type":"ticket-choose","trial_index":41,"time_elapsed":707870,"internal_node_id":"0.0-41.0"},{"result":163,"points":2,"place":1,"phase":0,"sequence":22,"prices":[198,193,169,163,202,182,152,164,177,171],"times":[1319,680,533,1105],"next_num":4,"trial_type":"ticket-choose","trial_index":42,"time_elapsed":714665,"internal_node_id":"0.0-42.0"},{"result":153,"points":3,"place":0,"phase":0,"sequence":23,"prices":[175,186,167,225,179,187,178,169,209,153],"times":[1828,756,879,691,545,566,678,1343,656,960],"next_num":10,"trial_type":"ticket-choose","trial_index":43,"time_elapsed":727828,"internal_node_id":"0.0-43.0"},{"result":167,"points":1,"place":2,"phase":0,"sequence":24,"prices":[174,186,165,212,181,187,177,167,153,209],"times":[1232,713,1140,611,554,576,567,2141],"next_num":8,"trial_type":"ticket-choose","trial_index":44,"time_elapsed":739055,"internal_node_id":"0.0-44.0"},{"result":163,"points":2,"place":1,"phase":0,"sequence":25,"prices":[174,186,176,217,181,187,163,166,153,209],"times":[1006,634,566,633,568,578,1230],"next_num":7,"trial_type":"ticket-choose","trial_index":45,"time_elapsed":747673,"internal_node_id":"0.0-45.0"},{"result":158,"points":2,"place":1,"phase":0,"sequence":26,"prices":[189,150,175,160,188,207,158,194,178,199],"times":[860,487,623,612,588,599,1242],"next_num":7,"trial_type":"ticket-choose","trial_index":46,"time_elapsed":756122,"internal_node_id":"0.0-46.0"},{"result":153,"points":3,"place":0,"phase":0,"sequence":27,"prices":[174,186,177,217,181,187,165,166,153,209],"times":[791,478,589,645,622,711,1839,1252,1141],"next_num":9,"trial_type":"ticket-choose","trial_index":47,"time_elapsed":767979,"internal_node_id":"0.0-47.0"},{"result":163,"points":2,"place":1,"phase":0,"sequence":28,"prices":[175,186,176,210,179,187,163,166,153,208],"times":[1129,544,545,600,567,969,1837],"next_num":7,"trial_type":"ticket-choose","trial_index":48,"time_elapsed":777451,"internal_node_id":"0.0-48.0"},{"result":158,"points":3,"place":0,"phase":0,"sequence":29,"prices":[210,184,226,193,215,158,199,175,176,208],"times":[871,680,634,679,656,1151],"next_num":6,"trial_type":"ticket-choose","trial_index":49,"time_elapsed":785282,"internal_node_id":"0.0-49.0"},{"result":168,"points":1,"place":2,"phase":0,"sequence":30,"prices":[175,185,167,224,181,186,178,168,208,156],"times":[995,579,914,612,892,645,780,1771],"next_num":8,"trial_type":"ticket-choose","trial_index":50,"time_elapsed":796239,"internal_node_id":"0.0-50.0"},{"result":186,"points":1,"place":4,"phase":0,"sequence":31,"prices":[192,165,171,178,188,217,172,195,197,186],"times":[947,1813,658,690,724,657,690,971,882,1231],"next_num":10,"trial_type":"ticket-choose","trial_index":51,"time_elapsed":809527,"internal_node_id":"0.0-51.0"},{"result":165,"points":2,"place":1,"phase":0,"sequence":32,"prices":[175,187,165,209,180,188,177,166,154,208],"times":[1523,610,1141],"next_num":3,"trial_type":"ticket-choose","trial_index":52,"time_elapsed":839799,"internal_node_id":"0.0-52.0"},{"result":152,"points":3,"place":0,"phase":0,"sequence":33,"prices":[200,181,203,152,175,171,160,154,176,191],"times":[1288,859,576,959],"next_num":4,"trial_type":"ticket-choose","trial_index":53,"time_elapsed":846313,"internal_node_id":"0.0-53.0"},{"result":159,"points":1,"place":2,"phase":0,"sequence":34,"prices":[180,159,149,175,185,141,163,174,178,207],"times":[1017,971],"next_num":2,"trial_type":"ticket-choose","trial_index":54,"time_elapsed":850475,"internal_node_id":"0.0-54.0"},{"result":165,"points":3,"place":0,"phase":0,"sequence":35,"prices":[193,169,171,187,190,224,174,194,165,188],"times":[997,837,622,566,635,667,1354,1062,1165],"next_num":9,"trial_type":"ticket-choose","trial_index":55,"time_elapsed":864313,"internal_node_id":"0.0-55.0"},{"result":165,"points":3,"place":0,"phase":0,"sequence":36,"prices":[193,165,175,181,185,224,180,199,218,184],"times":[1523,1062],"next_num":2,"trial_type":"ticket-choose","trial_index":56,"time_elapsed":871558,"internal_node_id":"0.0-56.0"},{"result":143,"points":3,"place":0,"phase":0,"sequence":37,"prices":[222,173,202,197,143,205,198,183,178,186],"times":[3661,9398,556,544,1286],"next_num":5,"trial_type":"ticket-choose","trial_index":57,"time_elapsed":890390,"internal_node_id":"0.0-57.0"},{"result":148,"points":3,"place":0,"phase":0,"sequence":38,"prices":[183,163,185,180,166,148,160,186,176,184],"times":[2432,1117,689,542,1400,2341],"next_num":6,"trial_type":"ticket-choose","trial_index":58,"time_elapsed":902507,"internal_node_id":"0.0-58.0"},{"result":165,"points":3,"place":0,"phase":0,"sequence":39,"prices":[185,170,182,201,173,199,171,188,165,168],"times":[982,611,544,545,544,622,632,1288,1005],"next_num":9,"trial_type":"ticket-choose","trial_index":59,"time_elapsed":913104,"internal_node_id":"0.0-59.0"},{"result":165,"points":3,"place":0,"phase":0,"sequence":40,"prices":[191,172,169,175,182,203,170,195,165,176],"times":[1455,656,893,1052,1116,904,837,837,1026],"next_num":9,"trial_type":"ticket-choose","trial_index":60,"time_elapsed":925862,"internal_node_id":"0.0-60.0"},{"result":158,"points":2,"place":1,"phase":0,"sequence":41,"prices":[175,186,177,209,181,188,158,167,208,154],"times":[1219,781,556,623,634,689,1082],"next_num":7,"trial_type":"ticket-choose","trial_index":61,"time_elapsed":934817,"internal_node_id":"0.0-61.0"},{"result":165,"points":2,"place":1,"phase":0,"sequence":42,"prices":[175,187,177,209,180,188,165,165,154,208],"times":[1970,567,1060,599,555,534,871],"next_num":7,"trial_type":"ticket-choose","trial_index":62,"time_elapsed":944178,"internal_node_id":"0.0-62.0"},{"result":165,"points":1,"place":2,"phase":0,"sequence":43,"prices":[175,187,163,209,180,188,176,165,154,208],"times":[646,577,498,780,646,601,612,1353],"next_num":8,"trial_type":"ticket-choose","trial_index":63,"time_elapsed":953683,"internal_node_id":"0.0-63.0"},{"result":153,"points":3,"place":0,"phase":0,"sequence":44,"prices":[174,186,163,212,181,187,176,166,153,209],"times":[996,567,1096,681,765,589,680,1072,1208],"next_num":9,"trial_type":"ticket-choose","trial_index":64,"time_elapsed":965418,"internal_node_id":"0.0-64.0"},{"result":171,"points":1,"place":3,"phase":0,"sequence":45,"prices":[189,167,180,197,165,168,172,213,178,171],"times":[2231,995,701,622,678,1150,757,756,1005,1298],"next_num":10,"trial_type":"ticket-choose","trial_index":65,"time_elapsed":979625,"internal_node_id":"0.0-65.0"},{"result":154,"points":3,"place":0,"phase":0,"sequence":46,"prices":[175,186,158,209,181,188,177,167,208,154],"times":[1407,678,2435,646,656,601,601,1509,590,1039],"next_num":10,"trial_type":"ticket-choose","trial_index":66,"time_elapsed":995848,"internal_node_id":"0.0-66.0"},{"result":163,"points":2,"place":1,"phase":0,"sequence":47,"prices":[175,187,176,209,180,188,163,165,154,208],"times":[1743,590,1129,15876,769,599,2895],"next_num":7,"trial_type":"ticket-choose","trial_index":67,"time_elapsed":1023073,"internal_node_id":"0.0-67.0"},{"result":161,"points":3,"place":0,"phase":0,"sequence":48,"prices":[200,165,165,173,182,207,161,202,204,180],"times":[1151,1084,1319,713,645,769,1129],"next_num":7,"trial_type":"ticket-choose","trial_index":68,"time_elapsed":1033311,"internal_node_id":"0.0-68.0"},{"result":158,"points":2,"place":1,"phase":0,"sequence":49,"prices":[175,186,158,211,180,187,177,166,209,153],"times":[912,611,1094],"next_num":3,"trial_type":"ticket-choose","trial_index":69,"time_elapsed":1038700,"internal_node_id":"0.0-69.0"},{"responses":[{"value":0,"offby":-1,"category":"$115 - $130","category_index":0},{"value":0,"offby":-5,"category":"$131 - $145","category_index":1},{"value":15,"offby":3,"category":"$146 - $160","category_index":2},{"value":30,"offby":8,"category":"$161 - $175","category_index":3},{"value":30,"offby":-4,"category":"$176 - $190","category_index":4},{"value":15,"offby":0,"category":"$191 - $205","category_index":5},{"value":10,"offby":-1,"category":"$206 - $220","category_index":6}],"phase":1,"number":1,"trial_type":"bar-choose","trial_index":70,"time_elapsed":1088089,"internal_node_id":"0.0-70.0"},{"rt":13318,"url":"\/christiane\/tickets\/utils\/testing2.html","trial_type":"point_update","trial_index":71,"time_elapsed":1102712,"internal_node_id":"0.0-71.0"},{"phase":1,"order":[10,48,1,24,49,38,5,22,39,42,34,0,19,43,37,29,12,14,9,33,4,21,6,31,40,15,17,46,23,36,3,16,20,41,47,8,35,11,44,18,7,30,13,32,27,45,2,26,28,25],"trial_type":"store_order","trial_index":72,"time_elapsed":1103716,"internal_node_id":"0.0-72.0"},{"result":165,"points":2,"place":1,"phase":1,"sequence":0,"prices":[177,175,187,209,165,180,188,165,154,208],"times":[5264,1186,590,589,521,509,520,959],"next_num":8,"trial_type":"ticket-choose","trial_index":73,"time_elapsed":1117575,"internal_node_id":"0.0-73.0"},{"result":147,"points":3,"place":0,"phase":1,"sequence":1,"prices":[181,214,169,147,182,193,178,184,176,179],"times":[3194,769,1758,1017],"next_num":4,"trial_type":"ticket-choose","trial_index":74,"time_elapsed":1127170,"internal_node_id":"0.0-74.0"},{"result":156,"points":3,"place":0,"phase":1,"sequence":2,"prices":[167,175,185,224,178,181,186,168,208,156],"times":[1423,668,555,476,521,600,1411,1388,566,926],"next_num":10,"trial_type":"ticket-choose","trial_index":75,"time_elapsed":1139871,"internal_node_id":"0.0-75.0"},{"result":184,"points":1,"place":4,"phase":1,"sequence":3,"prices":[193,181,175,181,185,165,224,199,218,184],"times":[1164,724,645,590,825,1108,622,915,657,803],"next_num":10,"trial_type":"ticket-choose","trial_index":76,"time_elapsed":1151987,"internal_node_id":"0.0-76.0"},{"result":163,"points":1,"place":2,"phase":1,"sequence":4,"prices":[173,163,185,181,166,148,160,185,176,184],"times":[2007,1140],"next_num":2,"trial_type":"ticket-choose","trial_index":77,"time_elapsed":1157500,"internal_node_id":"0.0-77.0"},{"result":163,"points":3,"place":0,"phase":1,"sequence":5,"prices":[163,199,196,199,185,195,227,163,177,166],"times":[1458],"next_num":1,"trial_type":"ticket-choose","trial_index":78,"time_elapsed":1161223,"internal_node_id":"0.0-78.0"},{"result":153,"points":3,"place":0,"phase":1,"sequence":6,"prices":[178,175,186,212,167,179,187,169,209,153],"times":[838,927,578,553,1128,622,520,1005,656,982],"next_num":10,"trial_type":"ticket-choose","trial_index":79,"time_elapsed":1173283,"internal_node_id":"0.0-79.0"},{"result":158,"points":2,"place":1,"phase":1,"sequence":7,"prices":[177,175,186,209,158,181,188,167,208,154],"times":[1231,635,845,534,983],"next_num":5,"trial_type":"ticket-choose","trial_index":80,"time_elapsed":1180326,"internal_node_id":"0.0-80.0"},{"result":165,"points":3,"place":0,"phase":1,"sequence":8,"prices":[189,167,180,197,165,168,172,213,178,171],"times":[1104,949,735,657,1016],"next_num":5,"trial_type":"ticket-choose","trial_index":81,"time_elapsed":1187684,"internal_node_id":"0.0-81.0"},{"result":178,"points":1,"place":2,"phase":1,"sequence":9,"prices":[220,173,201,197,169,205,198,183,178,186],"times":[1250,588,555,554,712,859,543,623,2140],"next_num":9,"trial_type":"ticket-choose","trial_index":82,"time_elapsed":1199519,"internal_node_id":"0.0-82.0"},{"result":156,"points":2,"place":1,"phase":1,"sequence":10,"prices":[180,156,149,160,168,186,172,198,176,195],"times":[927,994],"next_num":2,"trial_type":"ticket-choose","trial_index":83,"time_elapsed":1203827,"internal_node_id":"0.0-83.0"},{"result":167,"points":2,"place":1,"phase":1,"sequence":11,"prices":[167,174,186,211,178,181,188,168,208,156],"times":[937],"next_num":1,"trial_type":"ticket-choose","trial_index":84,"time_elapsed":1206786,"internal_node_id":"0.0-84.0"},{"result":158,"points":2,"place":1,"phase":1,"sequence":12,"prices":[158,175,186,209,177,181,188,167,208,154],"times":[1423],"next_num":1,"trial_type":"ticket-choose","trial_index":85,"time_elapsed":1210285,"internal_node_id":"0.0-85.0"},{"result":157,"points":3,"place":0,"phase":1,"sequence":13,"prices":[201,187,157,184,198,179,188,185,178,170],"times":[767,544,938],"next_num":3,"trial_type":"ticket-choose","trial_index":86,"time_elapsed":1214954,"internal_node_id":"0.0-86.0"},{"result":151,"points":3,"place":0,"phase":1,"sequence":14,"prices":[199,193,169,165,202,182,151,164,176,171],"times":[804,633,848,925,567,532,1027],"next_num":7,"trial_type":"ticket-choose","trial_index":87,"time_elapsed":1223729,"internal_node_id":"0.0-87.0"},{"result":150,"points":3,"place":0,"phase":1,"sequence":15,"prices":[185,179,191,165,161,173,199,150,188,168],"times":[1254,824,633,1568,578,623,500,1028],"next_num":8,"trial_type":"ticket-choose","trial_index":88,"time_elapsed":1235047,"internal_node_id":"0.0-88.0"},{"result":166,"points":1,"place":2,"phase":1,"sequence":16,"prices":[163,175,186,214,176,179,187,166,153,208],"times":[1284,668,1195,657,702,677,522,1533],"next_num":8,"trial_type":"ticket-choose","trial_index":89,"time_elapsed":1245779,"internal_node_id":"0.0-89.0"},{"result":163,"points":2,"place":1,"phase":1,"sequence":17,"prices":[163,174,186,212,176,181,187,166,153,209],"times":[925],"next_num":1,"trial_type":"ticket-choose","trial_index":90,"time_elapsed":1248783,"internal_node_id":"0.0-90.0"},{"result":153,"points":3,"place":0,"phase":1,"sequence":18,"prices":[177,175,186,210,165,179,187,166,153,208],"times":[924,533,646,601,1230,520,556,1690,838],"next_num":9,"trial_type":"ticket-choose","trial_index":91,"time_elapsed":1260111,"internal_node_id":"0.0-91.0"},{"result":191,"points":0,"place":8,"phase":1,"sequence":19,"prices":[183,179,188,165,168,173,205,159,187,191],"times":[961,601,545,995,521,826,724,612,972,1535],"next_num":10,"trial_type":"ticket-choose","trial_index":92,"time_elapsed":1272273,"internal_node_id":"0.0-92.0"},{"result":168,"points":1,"place":2,"phase":1,"sequence":20,"prices":[178,175,185,215,167,181,186,168,208,156],"times":[1027,554,635,859,2131,568,646,1219],"next_num":8,"trial_type":"ticket-choose","trial_index":93,"time_elapsed":1283410,"internal_node_id":"0.0-93.0"},{"result":158,"points":2,"place":1,"phase":1,"sequence":21,"prices":[177,175,186,221,158,180,187,166,209,153],"times":[1679,657,645,715,1005],"next_num":5,"trial_type":"ticket-choose","trial_index":94,"time_elapsed":1290970,"internal_node_id":"0.0-94.0"},{"result":166,"points":1,"place":2,"phase":1,"sequence":22,"prices":[165,175,186,214,177,179,187,166,153,208],"times":[714,543,575,556,521,563,589,882],"next_num":8,"trial_type":"ticket-choose","trial_index":95,"time_elapsed":1299610,"internal_node_id":"0.0-95.0"},{"result":169,"points":0,"place":5,"phase":1,"sequence":23,"prices":[171,169,186,165,163,167,220,148,187,165],"times":[2130,1342],"next_num":2,"trial_type":"ticket-choose","trial_index":96,"time_elapsed":1305528,"internal_node_id":"0.0-96.0"},{"result":150,"points":3,"place":0,"phase":1,"sequence":24,"prices":[190,150,175,161,188,207,157,194,178,199],"times":[1119,1298],"next_num":2,"trial_type":"ticket-choose","trial_index":97,"time_elapsed":1310737,"internal_node_id":"0.0-97.0"},{"result":166,"points":1,"place":2,"phase":1,"sequence":25,"prices":[176,175,186,210,163,179,187,166,153,208],"times":[1071,552,509,319,476,599,612,1017],"next_num":8,"trial_type":"ticket-choose","trial_index":98,"time_elapsed":1319601,"internal_node_id":"0.0-98.0"},{"result":163,"points":2,"place":1,"phase":1,"sequence":26,"prices":[176,186,178,217,163,181,187,166,153,209],"times":[1094,545,578,589,825],"next_num":5,"trial_type":"ticket-choose","trial_index":99,"time_elapsed":1326374,"internal_node_id":"0.0-99.0"},{"result":208,"points":0,"place":6,"phase":1,"sequence":27,"prices":[214,184,226,192,215,158,199,175,176,208],"times":[668,522,657,612,655,567,567,724,657,612],"next_num":10,"trial_type":"ticket-choose","trial_index":100,"time_elapsed":1336623,"internal_node_id":"0.0-100.0"},{"result":158,"points":2,"place":1,"phase":1,"sequence":28,"prices":[177,176,187,225,158,181,187,165,208,153],"times":[1131,610,567,1129,1027],"next_num":5,"trial_type":"ticket-choose","trial_index":101,"time_elapsed":1343845,"internal_node_id":"0.0-101.0"},{"result":154,"points":3,"place":0,"phase":1,"sequence":29,"prices":[187,201,165,172,196,174,178,154,172,180],"times":[708,556,963,554,620,589,724,894],"next_num":8,"trial_type":"ticket-choose","trial_index":102,"time_elapsed":1353374,"internal_node_id":"0.0-102.0"},{"result":167,"points":2,"place":1,"phase":1,"sequence":30,"prices":[178,174,186,217,167,181,188,168,208,156],"times":[1531,1198,599,646,916],"next_num":5,"trial_type":"ticket-choose","trial_index":103,"time_elapsed":1361181,"internal_node_id":"0.0-103.0"},{"result":163,"points":2,"place":1,"phase":1,"sequence":31,"prices":[176,187,179,209,163,180,188,165,154,208],"times":[1309,498,544,634,950],"next_num":5,"trial_type":"ticket-choose","trial_index":104,"time_elapsed":1368269,"internal_node_id":"0.0-104.0"},{"result":165,"points":1,"place":2,"phase":1,"sequence":32,"prices":[158,176,187,210,177,181,187,165,208,153],"times":[994,656,531,556,511,579,711,1228],"next_num":8,"trial_type":"ticket-choose","trial_index":105,"time_elapsed":1377438,"internal_node_id":"0.0-105.0"},{"result":155,"points":2,"place":1,"phase":1,"sequence":33,"prices":[200,207,155,158,156,168,167,135,178,177],"times":[803,590,924],"next_num":3,"trial_type":"ticket-choose","trial_index":106,"time_elapsed":1382140,"internal_node_id":"0.0-106.0"},{"result":152,"points":3,"place":0,"phase":1,"sequence":34,"prices":[200,180,203,152,175,170,160,154,176,191],"times":[902,633,668,995],"next_num":4,"trial_type":"ticket-choose","trial_index":107,"time_elapsed":1388586,"internal_node_id":"0.0-107.0"},{"result":166,"points":1,"place":2,"phase":1,"sequence":35,"prices":[165,174,186,212,177,181,187,166,153,209],"times":[1073,622,601,612,578,680,567,915],"next_num":8,"trial_type":"ticket-choose","trial_index":108,"time_elapsed":1397857,"internal_node_id":"0.0-108.0"},{"result":167,"points":1,"place":2,"phase":1,"sequence":36,"prices":[167,153,172,185,195,143,184,211,177,227],"times":[1218],"next_num":1,"trial_type":"ticket-choose","trial_index":109,"time_elapsed":1401041,"internal_node_id":"0.0-109.0"},{"result":165,"points":2,"place":1,"phase":1,"sequence":37,"prices":[177,174,186,217,165,181,187,166,153,209],"times":[960,566,578,589,894],"next_num":5,"trial_type":"ticket-choose","trial_index":110,"time_elapsed":1407487,"internal_node_id":"0.0-110.0"},{"result":159,"points":1,"place":2,"phase":1,"sequence":38,"prices":[181,159,149,175,185,151,163,174,178,207],"times":[1031,859],"next_num":2,"trial_type":"ticket-choose","trial_index":111,"time_elapsed":1411626,"internal_node_id":"0.0-111.0"},{"result":158,"points":2,"place":1,"phase":1,"sequence":39,"prices":[158,175,186,211,177,180,187,166,209,153],"times":[1005],"next_num":1,"trial_type":"ticket-choose","trial_index":112,"time_elapsed":1414619,"internal_node_id":"0.0-112.0"},{"result":165,"points":2,"place":1,"phase":1,"sequence":40,"prices":[165,175,187,209,177,180,188,167,154,208],"times":[838],"next_num":1,"trial_type":"ticket-choose","trial_index":113,"time_elapsed":1417297,"internal_node_id":"0.0-113.0"},{"result":165,"points":2,"place":1,"phase":1,"sequence":41,"prices":[191,170,182,165,175,182,203,157,195,200],"times":[1018,532,533,779],"next_num":4,"trial_type":"ticket-choose","trial_index":114,"time_elapsed":1422573,"internal_node_id":"0.0-114.0"},{"result":163,"points":2,"place":1,"phase":1,"sequence":42,"prices":[163,175,187,209,176,180,188,165,154,208],"times":[802],"next_num":1,"trial_type":"ticket-choose","trial_index":115,"time_elapsed":1425273,"internal_node_id":"0.0-115.0"},{"result":165,"points":2,"place":1,"phase":1,"sequence":43,"prices":[193,174,224,165,187,190,224,161,194,195],"times":[1073,860,702,1049],"next_num":4,"trial_type":"ticket-choose","trial_index":116,"time_elapsed":1431359,"internal_node_id":"0.0-116.0"},{"result":165,"points":3,"place":0,"phase":1,"sequence":44,"prices":[192,172,171,178,188,165,217,168,195,197],"times":[983,824,611,610,622,892],"next_num":6,"trial_type":"ticket-choose","trial_index":117,"time_elapsed":1438863,"internal_node_id":"0.0-117.0"},{"result":167,"points":2,"place":1,"phase":1,"sequence":45,"prices":[199,191,188,174,167,193,189,164,176,170],"times":[1175,859,543,646,905],"next_num":5,"trial_type":"ticket-choose","trial_index":118,"time_elapsed":1445771,"internal_node_id":"0.0-118.0"},{"result":167,"points":2,"place":1,"phase":1,"sequence":46,"prices":[167,175,186,225,178,179,187,169,209,153],"times":[1030],"next_num":1,"trial_type":"ticket-choose","trial_index":119,"time_elapsed":1448831,"internal_node_id":"0.0-119.0"},{"result":165,"points":1,"place":2,"phase":1,"sequence":47,"prices":[200,173,182,169,207,165,152,202,161,204],"times":[1029,543,621,859,621,961],"next_num":6,"trial_type":"ticket-choose","trial_index":120,"time_elapsed":1457549,"internal_node_id":"0.0-120.0"},{"result":165,"points":3,"place":0,"phase":1,"sequence":48,"prices":[196,171,170,184,187,165,211,169,201,202],"times":[1263,579,632,623,556,939],"next_num":6,"trial_type":"ticket-choose","trial_index":121,"time_elapsed":1465255,"internal_node_id":"0.0-121.0"},{"result":166,"points":1,"place":3,"phase":1,"sequence":49,"prices":[201,204,179,166,185,165,214,156,202,165],"times":[1417,802,3516,925],"next_num":4,"trial_type":"ticket-choose","trial_index":122,"time_elapsed":1475200,"internal_node_id":"0.0-122.0"},{"responses":[{"value":0,"offby":-1,"category":"$115 - $130","category_index":0},{"value":0,"offby":-5,"category":"$131 - $145","category_index":1},{"value":15,"offby":3,"category":"$146 - $160","category_index":2},{"value":35,"offby":13,"category":"$161 - $175","category_index":3},{"value":35,"offby":1,"category":"$176 - $190","category_index":4},{"value":10,"offby":-5,"category":"$191 - $205","category_index":5},{"value":5,"offby":-6,"category":"$206 - $220","category_index":6}],"phase":1,"number":1,"trial_type":"bar-choose","trial_index":123,"time_elapsed":1498692,"internal_node_id":"0.0-123.0"},{"special_comment":"No I did not","trial_type":"special_sequence","trial_index":124,"time_elapsed":1512720,"internal_node_id":"0.0-124.0"},{"during":"Nothing","bonus":268,"trial_type":"final","trial_index":125,"time_elapsed":1542708,"internal_node_id":"0.0-125.0"}],"bonus":268}