{"start_time":"2017-05-24 15:32:05","end_time":"2017-05-24 15:56:16","points_phase0":122,"points_phase1":115,"phase_order":0,"age":25,"gender":"m","tries":1,"during":"Nothing","worker_id":"A14NWZH1M96Y1N","assignment_id":"3LS2AMNW5GJ2ZS7QLJ9H3W3S26COQX","data":[{"rt":8503,"url":"\/christiane\/tickets\/utils\/consent.html","trial_type":"html","trial_index":0,"time_elapsed":8616,"internal_node_id":"0.0-0.0"},{"age":25,"gender":"m","trial_type":"age","trial_index":1,"time_elapsed":14960,"internal_node_id":"0.0-1.0"},{"worker_id":"A14NWZH1M96Y1N","trial_type":"workerid","trial_index":2,"time_elapsed":31230,"internal_node_id":"0.0-2.0"},{"tries":1,"trial_type":"instructions_check","trial_index":3,"time_elapsed":54324,"internal_node_id":"0.0-3.0"},{"rt":14492,"url":"\/christiane\/tickets\/utils\/start.html","trial_type":"html","trial_index":4,"time_elapsed":70168,"internal_node_id":"0.0-4.0"},{"trial_type":"number-animation","trial_index":5,"time_elapsed":78857,"internal_node_id":"0.0-5.0"},{"phase":0,"sequence":0,"avg":181,"response":200,"trial_type":"training_avg","trial_index":6,"time_elapsed":96063,"internal_node_id":"0.0-6.0"},{"trial_type":"number-animation","trial_index":7,"time_elapsed":103257,"internal_node_id":"0.0-7.0"},{"phase":0,"sequence":1,"avg":188,"response":220,"trial_type":"training_avg","trial_index":8,"time_elapsed":117942,"internal_node_id":"0.0-8.0"},{"trial_type":"number-animation","trial_index":9,"time_elapsed":124825,"internal_node_id":"0.0-9.0"},{"phase":0,"sequence":2,"avg":188,"response":186,"trial_type":"training_avg","trial_index":10,"time_elapsed":136676,"internal_node_id":"0.0-10.0"},{"trial_type":"number-animation","trial_index":11,"time_elapsed":143058,"internal_node_id":"0.0-11.0"},{"phase":0,"sequence":3,"avg":177,"response":188,"trial_type":"training_avg","trial_index":12,"time_elapsed":154663,"internal_node_id":"0.0-12.0"},{"trial_type":"number-animation","trial_index":13,"time_elapsed":162346,"internal_node_id":"0.0-13.0"},{"phase":0,"sequence":4,"avg":182,"response":172,"trial_type":"training_avg","trial_index":14,"time_elapsed":171654,"internal_node_id":"0.0-14.0"},{"responses":[{"value":25,"offby":24,"category":"$115 - $130","category_index":0},{"value":23,"offby":18,"category":"$131 - $145","category_index":1},{"value":36,"offby":24,"category":"$146 - $160","category_index":2},{"value":16,"offby":-6,"category":"$161 - $175","category_index":3},{"value":0,"offby":-34,"category":"$176 - $190","category_index":4},{"value":0,"offby":-15,"category":"$191 - $205","category_index":5},{"value":0,"offby":-11,"category":"$206 - $220","category_index":6}],"phase":0,"number":0,"trial_type":"bar-choose","trial_index":15,"time_elapsed":236345,"internal_node_id":"0.0-15.0"},{"rt":13371,"url":"\/christiane\/tickets\/utils\/testing.html","trial_type":"html","trial_index":16,"time_elapsed":251038,"internal_node_id":"0.0-16.0"},{"phase":0,"order":[20,30,42,5,1,39,47,46,6,22,17,3,27,16,9,31,24,25,32,19,35,43,0,15,14,44,29,7,26,49,4,12,38,23,10,37,13,33,21,45,18,8,28,34,36,40,11,41,48,2],"trial_type":"store_order","trial_index":17,"time_elapsed":252039,"internal_node_id":"0.0-17.0"},{"result":146,"points":3,"place":0,"phase":0,"sequence":-1,"prices":[184,180,224,165,181,199,185,193,218,146],"times":[5145,1766,592,773,461,1662,414,434,478,2624],"next_num":10,"trial_type":"ticket-choose","trial_index":18,"time_elapsed":271405,"internal_node_id":"0.0-18.0"},{"rt":12761,"url":"\/christiane\/tickets\/utils\/testing_after.html","trial_type":"html","trial_index":19,"time_elapsed":285310,"internal_node_id":"0.0-19.0"},{"result":153,"points":3,"place":0,"phase":0,"sequence":0,"prices":[176,187,158,210,181,187,177,165,208,153],"times":[1999,454,564,454,501,1118,510,1159,499,3323],"next_num":10,"trial_type":"ticket-choose","trial_index":20,"time_elapsed":301335,"internal_node_id":"0.0-20.0"},{"result":165,"points":3,"place":0,"phase":0,"sequence":1,"prices":[191,172,169,175,182,203,170,195,165,176],"times":[604,406,486,702,574,558,526,779,2806],"next_num":9,"trial_type":"ticket-choose","trial_index":21,"time_elapsed":313519,"internal_node_id":"0.0-21.0"},{"result":143,"points":3,"place":0,"phase":0,"sequence":2,"prices":[222,173,202,197,143,205,198,183,178,186],"times":[680,438,502,437,1738],"next_num":5,"trial_type":"ticket-choose","trial_index":22,"time_elapsed":320993,"internal_node_id":"0.0-22.0"},{"result":153,"points":3,"place":0,"phase":0,"sequence":3,"prices":[175,186,178,212,179,187,167,169,209,153],"times":[531,501,429,470,566,678,2238,1212,1014,1782],"next_num":10,"trial_type":"ticket-choose","trial_index":23,"time_elapsed":335594,"internal_node_id":"0.0-23.0"},{"result":156,"points":3,"place":0,"phase":0,"sequence":4,"prices":[175,185,167,224,181,186,178,168,208,156],"times":[865,413,685,693,518,564,630,1008,1019,1985],"next_num":10,"trial_type":"ticket-choose","trial_index":24,"time_elapsed":348255,"internal_node_id":"0.0-24.0"},{"result":171,"points":1,"place":3,"phase":0,"sequence":5,"prices":[189,167,180,197,165,168,172,213,178,171],"times":[542,430,686,606,2239,981,503,515,510,2739],"next_num":10,"trial_type":"ticket-choose","trial_index":25,"time_elapsed":362778,"internal_node_id":"0.0-25.0"},{"result":152,"points":3,"place":0,"phase":0,"sequence":6,"prices":[200,181,203,152,175,171,160,154,176,191],"times":[482,495,477,1859],"next_num":4,"trial_type":"ticket-choose","trial_index":26,"time_elapsed":369108,"internal_node_id":"0.0-26.0"},{"result":158,"points":3,"place":0,"phase":0,"sequence":7,"prices":[210,184,226,193,215,158,199,175,176,208],"times":[528,293,518,453,485,2108],"next_num":6,"trial_type":"ticket-choose","trial_index":27,"time_elapsed":376935,"internal_node_id":"0.0-27.0"},{"result":153,"points":3,"place":0,"phase":0,"sequence":8,"prices":[175,186,165,214,179,187,177,166,153,208],"times":[451,246,399,499,646,678,534,566,1845],"next_num":9,"trial_type":"ticket-choose","trial_index":28,"time_elapsed":387184,"internal_node_id":"0.0-28.0"},{"result":158,"points":2,"place":1,"phase":0,"sequence":9,"prices":[175,186,177,209,181,188,158,167,208,154],"times":[443,262,238,429,470,509,1742],"next_num":7,"trial_type":"ticket-choose","trial_index":29,"time_elapsed":395052,"internal_node_id":"0.0-29.0"},{"result":153,"points":3,"place":0,"phase":0,"sequence":10,"prices":[174,186,176,217,181,187,163,166,153,209],"times":[793,216,248,278,390,446,422,573,1553],"next_num":9,"trial_type":"ticket-choose","trial_index":30,"time_elapsed":404052,"internal_node_id":"0.0-30.0"},{"result":156,"points":3,"place":0,"phase":0,"sequence":11,"prices":[174,186,178,217,181,188,167,168,208,156],"times":[311,775,379,447,461,501,1005,806,510,1725],"next_num":10,"trial_type":"ticket-choose","trial_index":31,"time_elapsed":414984,"internal_node_id":"0.0-31.0"},{"result":186,"points":1,"place":4,"phase":0,"sequence":12,"prices":[192,165,171,178,188,217,172,195,197,186],"times":[530,214,511,453,542,566,582,637,862,1904],"next_num":10,"trial_type":"ticket-choose","trial_index":32,"time_elapsed":425837,"internal_node_id":"0.0-32.0"},{"result":154,"points":3,"place":0,"phase":0,"sequence":13,"prices":[175,187,176,209,180,188,163,165,154,208],"times":[350,415,563,478,504,524,1823,685,2092],"next_num":9,"trial_type":"ticket-choose","trial_index":33,"time_elapsed":437423,"internal_node_id":"0.0-33.0"},{"result":153,"points":3,"place":0,"phase":0,"sequence":14,"prices":[175,186,177,210,179,187,165,166,153,208],"times":[349,261,376,501,494,462,1013,798,2348],"next_num":9,"trial_type":"ticket-choose","trial_index":34,"time_elapsed":448004,"internal_node_id":"0.0-34.0"},{"result":165,"points":3,"place":0,"phase":0,"sequence":15,"prices":[171,203,175,170,167,220,192,186,165,165],"times":[369,236,374,455,589,438,589,743,1102,1959],"next_num":10,"trial_type":"ticket-choose","trial_index":35,"time_elapsed":458882,"internal_node_id":"0.0-35.0"},{"result":184,"points":1,"place":4,"phase":0,"sequence":16,"prices":[193,165,175,181,185,224,180,199,218,184],"times":[458,269,438,510,579,534,588,669,574,1619],"next_num":10,"trial_type":"ticket-choose","trial_index":36,"time_elapsed":469414,"internal_node_id":"0.0-36.0"},{"result":179,"points":1,"place":4,"phase":0,"sequence":17,"prices":[201,165,162,166,185,214,165,202,204,179],"times":[1457,1245,431,654,475,558,494,541,581,1468],"next_num":10,"trial_type":"ticket-choose","trial_index":37,"time_elapsed":481335,"internal_node_id":"0.0-37.0"},{"result":165,"points":3,"place":0,"phase":0,"sequence":18,"prices":[193,169,171,187,190,224,174,194,165,188],"times":[1493,549,495,430,453,510,502,502,3376],"next_num":9,"trial_type":"ticket-choose","trial_index":38,"time_elapsed":493503,"internal_node_id":"0.0-38.0"},{"result":154,"points":3,"place":0,"phase":0,"sequence":19,"prices":[175,186,158,209,181,188,177,167,208,154],"times":[706,483,414,454,453,447,671,631,582,1703],"next_num":10,"trial_type":"ticket-choose","trial_index":39,"time_elapsed":504669,"internal_node_id":"0.0-39.0"},{"result":154,"points":2,"place":1,"phase":0,"sequence":20,"prices":[168,154,172,185,195,144,184,211,177,227],"times":[749,1888],"next_num":2,"trial_type":"ticket-choose","trial_index":40,"time_elapsed":509703,"internal_node_id":"0.0-40.0"},{"result":157,"points":3,"place":0,"phase":0,"sequence":21,"prices":[201,187,157,184,198,179,188,185,178,170],"times":[435,390,2051],"next_num":3,"trial_type":"ticket-choose","trial_index":41,"time_elapsed":515360,"internal_node_id":"0.0-41.0"},{"result":156,"points":3,"place":0,"phase":0,"sequence":22,"prices":[174,186,167,211,181,188,178,168,208,156],"times":[499,405,629,483,958,479,470,917,525,1511],"next_num":10,"trial_type":"ticket-choose","trial_index":42,"time_elapsed":526519,"internal_node_id":"0.0-42.0"},{"result":153,"points":3,"place":0,"phase":0,"sequence":23,"prices":[175,186,176,210,179,187,163,166,153,208],"times":[567,436,422,435,437,430,782,510,2251],"next_num":9,"trial_type":"ticket-choose","trial_index":43,"time_elapsed":536712,"internal_node_id":"0.0-43.0"},{"result":153,"points":3,"place":0,"phase":0,"sequence":24,"prices":[174,186,163,212,181,187,176,166,153,209],"times":[454,348,396,422,443,470,518,526,2339],"next_num":9,"trial_type":"ticket-choose","trial_index":44,"time_elapsed":546872,"internal_node_id":"0.0-44.0"},{"result":149,"points":2,"place":1,"phase":0,"sequence":25,"prices":[180,159,149,175,185,141,163,174,178,207],"times":[437,348,1806],"next_num":3,"trial_type":"ticket-choose","trial_index":45,"time_elapsed":552227,"internal_node_id":"0.0-45.0"},{"result":168,"points":2,"place":1,"phase":0,"sequence":26,"prices":[185,170,182,201,173,199,171,188,165,168],"times":[512,311,526,479,518,573,500,590,1228,1991],"next_num":10,"trial_type":"ticket-choose","trial_index":46,"time_elapsed":563368,"internal_node_id":"0.0-46.0"},{"result":154,"points":3,"place":0,"phase":0,"sequence":27,"prices":[175,187,165,209,180,188,177,166,154,208],"times":[356,316,1262,446,518,567,499,541,1803],"next_num":9,"trial_type":"ticket-choose","trial_index":47,"time_elapsed":573799,"internal_node_id":"0.0-47.0"},{"result":180,"points":1,"place":4,"phase":0,"sequence":28,"prices":[200,165,165,173,182,207,161,202,204,180],"times":[419,358,909,446,407,462,488,596,550,1537],"next_num":10,"trial_type":"ticket-choose","trial_index":48,"time_elapsed":583962,"internal_node_id":"0.0-48.0"},{"result":148,"points":3,"place":0,"phase":0,"sequence":29,"prices":[183,163,185,180,166,148,160,186,176,184],"times":[375,374,621,478,711,1786],"next_num":6,"trial_type":"ticket-choose","trial_index":49,"time_elapsed":591585,"internal_node_id":"0.0-49.0"},{"result":156,"points":3,"place":0,"phase":0,"sequence":30,"prices":[175,185,178,215,181,186,167,168,208,156],"times":[397,415,454,550,469,447,1118,806,566,1863],"next_num":10,"trial_type":"ticket-choose","trial_index":50,"time_elapsed":602647,"internal_node_id":"0.0-50.0"},{"result":153,"points":3,"place":0,"phase":0,"sequence":31,"prices":[175,186,163,214,179,187,176,166,153,208],"times":[1139,364,470,452,462,470,949,567,2197],"next_num":9,"trial_type":"ticket-choose","trial_index":51,"time_elapsed":613893,"internal_node_id":"0.0-51.0"},{"result":166,"points":2,"place":1,"phase":0,"sequence":32,"prices":[168,199,196,198,185,195,227,163,177,166],"times":[630,542,374,430,1854,519,460,1409,443,1666],"next_num":10,"trial_type":"ticket-choose","trial_index":52,"time_elapsed":626207,"internal_node_id":"0.0-52.0"},{"result":158,"points":2,"place":1,"phase":0,"sequence":33,"prices":[176,187,177,225,181,187,158,165,208,153],"times":[468,366,350,430,462,463,1974],"next_num":7,"trial_type":"ticket-choose","trial_index":53,"time_elapsed":634107,"internal_node_id":"0.0-53.0"},{"result":154,"points":3,"place":0,"phase":0,"sequence":34,"prices":[175,187,177,209,180,188,165,165,154,208],"times":[375,495,391,470,423,398,435,485,2347],"next_num":9,"trial_type":"ticket-choose","trial_index":54,"time_elapsed":644113,"internal_node_id":"0.0-54.0"},{"result":152,"points":3,"place":0,"phase":0,"sequence":35,"prices":[198,193,169,163,202,182,152,164,177,171],"times":[545,278,383,429,469,510,2250],"next_num":7,"trial_type":"ticket-choose","trial_index":55,"time_elapsed":652705,"internal_node_id":"0.0-55.0"},{"result":154,"points":3,"place":0,"phase":0,"sequence":36,"prices":[175,187,163,209,180,188,176,165,154,208],"times":[515,267,232,468,429,399,1102,2805,1579],"next_num":9,"trial_type":"ticket-choose","trial_index":56,"time_elapsed":664258,"internal_node_id":"0.0-56.0"},{"result":170,"points":1,"place":3,"phase":0,"sequence":37,"prices":[183,182,192,168,173,205,167,187,165,170],"times":[473,221,774,390,446,557,446,743,1742,1173],"next_num":10,"trial_type":"ticket-choose","trial_index":57,"time_elapsed":675278,"internal_node_id":"0.0-57.0"},{"result":158,"points":2,"place":1,"phase":0,"sequence":38,"prices":[175,186,177,221,180,187,158,166,209,153],"times":[397,327,276,422,358,375,1701],"next_num":7,"trial_type":"ticket-choose","trial_index":58,"time_elapsed":682521,"internal_node_id":"0.0-58.0"},{"result":170,"points":1,"place":2,"phase":0,"sequence":39,"prices":[212,192,188,184,167,193,189,164,176,170],"times":[360,807,392,437,414,579,463,596,692,1492],"next_num":10,"trial_type":"ticket-choose","trial_index":59,"time_elapsed":693366,"internal_node_id":"0.0-59.0"},{"result":153,"points":3,"place":0,"phase":0,"sequence":40,"prices":[175,186,158,211,180,187,177,166,209,153],"times":[380,238,217,723,341,461,487,567,542,1762],"next_num":10,"trial_type":"ticket-choose","trial_index":60,"time_elapsed":703488,"internal_node_id":"0.0-60.0"},{"result":153,"points":3,"place":0,"phase":0,"sequence":41,"prices":[174,186,165,212,181,187,177,167,153,209],"times":[553,271,294,428,415,406,430,399,1829],"next_num":9,"trial_type":"ticket-choose","trial_index":61,"time_elapsed":712620,"internal_node_id":"0.0-61.0"},{"result":185,"points":1,"place":4,"phase":0,"sequence":42,"prices":[196,165,170,184,187,211,171,201,202,185],"times":[596,326,783,391,405,830,397,494,485,1878],"next_num":10,"trial_type":"ticket-choose","trial_index":62,"time_elapsed":723908,"internal_node_id":"0.0-62.0"},{"result":155,"points":2,"place":1,"phase":0,"sequence":43,"prices":[181,155,148,161,168,187,172,199,176,194],"times":[336,1695],"next_num":2,"trial_type":"ticket-choose","trial_index":63,"time_elapsed":728304,"internal_node_id":"0.0-63.0"},{"result":154,"points":3,"place":0,"phase":0,"sequence":44,"prices":[188,200,165,172,198,174,177,154,177,180],"times":[408,223,517,416,428,470,462,1499],"next_num":8,"trial_type":"ticket-choose","trial_index":64,"time_elapsed":737138,"internal_node_id":"0.0-64.0"},{"result":150,"points":3,"place":0,"phase":0,"sequence":45,"prices":[189,150,175,160,188,207,158,194,178,199],"times":[346,2021],"next_num":2,"trial_type":"ticket-choose","trial_index":65,"time_elapsed":742234,"internal_node_id":"0.0-65.0"},{"result":153,"points":3,"place":0,"phase":0,"sequence":46,"prices":[174,186,177,217,181,187,165,166,153,209],"times":[539,402,370,380,415,430,758,470,2130],"next_num":9,"trial_type":"ticket-choose","trial_index":66,"time_elapsed":752215,"internal_node_id":"0.0-66.0"},{"result":156,"points":1,"place":2,"phase":0,"sequence":47,"prices":[201,207,155,158,156,165,167,135,178,177],"times":[549,254,277,1054,1919],"next_num":5,"trial_type":"ticket-choose","trial_index":67,"time_elapsed":759428,"internal_node_id":"0.0-67.0"},{"result":179,"points":1,"place":4,"phase":0,"sequence":48,"prices":[181,215,169,147,182,193,177,184,176,179],"times":[451,420,430,445,646,413,437,526,1103,1569],"next_num":10,"trial_type":"ticket-choose","trial_index":68,"time_elapsed":770795,"internal_node_id":"0.0-68.0"},{"result":153,"points":3,"place":0,"phase":0,"sequence":49,"prices":[175,186,167,225,179,187,178,169,209,153],"times":[493,437,439,471,461,503,709,733,595,1665],"next_num":10,"trial_type":"ticket-choose","trial_index":69,"time_elapsed":782109,"internal_node_id":"0.0-69.0"},{"responses":[{"value":0,"offby":-1,"category":"$115 - $130","category_index":0},{"value":15,"offby":10,"category":"$131 - $145","category_index":1},{"value":25,"offby":13,"category":"$146 - $160","category_index":2},{"value":25,"offby":3,"category":"$161 - $175","category_index":3},{"value":35,"offby":1,"category":"$176 - $190","category_index":4},{"value":0,"offby":-15,"category":"$191 - $205","category_index":5},{"value":0,"offby":-11,"category":"$206 - $220","category_index":6}],"phase":1,"number":1,"trial_type":"bar-choose","trial_index":70,"time_elapsed":844671,"internal_node_id":"0.0-70.0"},{"rt":10511,"url":"\/christiane\/tickets\/utils\/testing2.html","trial_type":"point_update","trial_index":71,"time_elapsed":856464,"internal_node_id":"0.0-71.0"},{"phase":1,"order":[39,13,8,45,15,26,18,9,14,5,37,28,27,4,19,21,41,16,32,40,25,29,23,46,48,20,43,34,42,7,44,17,36,38,49,11,31,1,22,12,2,33,35,0,6,10,24,3,47,30],"trial_type":"store_order","trial_index":72,"time_elapsed":857466,"internal_node_id":"0.0-72.0"},{"result":171,"points":1,"place":3,"phase":1,"sequence":0,"prices":[189,167,180,197,165,168,172,213,178,171],"times":[973,374,582,453,2557,454,574,526,495,1161],"next_num":10,"trial_type":"ticket-choose","trial_index":73,"time_elapsed":870727,"internal_node_id":"0.0-73.0"},{"result":165,"points":1,"place":2,"phase":1,"sequence":1,"prices":[163,175,187,209,176,180,188,165,154,208],"times":[475,589,437,455,547,470,501,3388],"next_num":8,"trial_type":"ticket-choose","trial_index":74,"time_elapsed":881424,"internal_node_id":"0.0-74.0"},{"result":153,"points":3,"place":0,"phase":1,"sequence":2,"prices":[165,174,186,212,177,181,187,166,153,209],"times":[601,487,445,455,374,454,414,605,1631],"next_num":9,"trial_type":"ticket-choose","trial_index":75,"time_elapsed":890912,"internal_node_id":"0.0-75.0"},{"result":170,"points":1,"place":2,"phase":1,"sequence":3,"prices":[199,191,188,174,167,193,189,164,176,170],"times":[328,209,628,325,438,462,461,604,534,1845],"next_num":10,"trial_type":"ticket-choose","trial_index":76,"time_elapsed":900678,"internal_node_id":"0.0-76.0"},{"result":153,"points":3,"place":0,"phase":1,"sequence":4,"prices":[176,175,186,210,163,179,187,166,153,208],"times":[804,318,438,430,502,430,437,526,1696],"next_num":9,"trial_type":"ticket-choose","trial_index":77,"time_elapsed":909950,"internal_node_id":"0.0-77.0"},{"result":152,"points":3,"place":0,"phase":1,"sequence":5,"prices":[200,173,182,169,207,165,152,202,161,204],"times":[356,334,382,494,462,959,1974],"next_num":7,"trial_type":"ticket-choose","trial_index":78,"time_elapsed":918318,"internal_node_id":"0.0-78.0"},{"result":153,"points":3,"place":0,"phase":1,"sequence":6,"prices":[158,175,186,211,177,180,187,166,209,153],"times":[348,863,509,408,405,414,503,621,493,1901],"next_num":10,"trial_type":"ticket-choose","trial_index":79,"time_elapsed":928710,"internal_node_id":"0.0-79.0"},{"result":153,"points":3,"place":0,"phase":1,"sequence":7,"prices":[177,175,186,210,165,179,187,166,153,208],"times":[451,415,387,494,590,430,478,654,1709],"next_num":9,"trial_type":"ticket-choose","trial_index":80,"time_elapsed":938087,"internal_node_id":"0.0-80.0"},{"result":153,"points":3,"place":0,"phase":1,"sequence":8,"prices":[163,174,186,212,176,181,187,166,153,209],"times":[324,438,422,438,468,438,429,437,1477],"next_num":9,"trial_type":"ticket-choose","trial_index":81,"time_elapsed":947452,"internal_node_id":"0.0-81.0"},{"result":153,"points":3,"place":0,"phase":1,"sequence":9,"prices":[178,175,186,212,167,179,187,169,209,153],"times":[52817,556,486,461,862,565,470,494,486,1619],"next_num":10,"trial_type":"ticket-choose","trial_index":82,"time_elapsed":1010613,"internal_node_id":"0.0-82.0"},{"result":151,"points":3,"place":0,"phase":1,"sequence":10,"prices":[199,193,169,165,202,182,151,164,176,171],"times":[545,445,398,414,445,477,1740],"next_num":7,"trial_type":"ticket-choose","trial_index":83,"time_elapsed":1019008,"internal_node_id":"0.0-83.0"},{"result":202,"points":0,"place":8,"phase":1,"sequence":11,"prices":[196,171,170,184,187,165,211,169,201,202],"times":[393,342,405,438,437,508,430,428,461,1469],"next_num":10,"trial_type":"ticket-choose","trial_index":84,"time_elapsed":1028619,"internal_node_id":"0.0-84.0"},{"result":197,"points":0,"place":8,"phase":1,"sequence":12,"prices":[192,172,171,178,188,165,217,168,195,197],"times":[425,430,406,415,423,708,493,478,485,1618],"next_num":10,"trial_type":"ticket-choose","trial_index":85,"time_elapsed":1038393,"internal_node_id":"0.0-85.0"},{"result":156,"points":3,"place":0,"phase":1,"sequence":13,"prices":[178,175,185,215,167,181,186,168,208,156],"times":[313,430,421,422,824,637,470,430,494,1742],"next_num":10,"trial_type":"ticket-choose","trial_index":86,"time_elapsed":1048634,"internal_node_id":"0.0-86.0"},{"result":154,"points":3,"place":0,"phase":1,"sequence":14,"prices":[158,175,186,209,177,181,188,167,208,154],"times":[402,974,349,373,352,331,351,380,510,1293],"next_num":10,"trial_type":"ticket-choose","trial_index":87,"time_elapsed":1059245,"internal_node_id":"0.0-87.0"},{"result":158,"points":2,"place":1,"phase":1,"sequence":15,"prices":[177,175,186,221,158,180,187,166,209,153],"times":[503,334,366,390,2279],"next_num":5,"trial_type":"ticket-choose","trial_index":88,"time_elapsed":1066259,"internal_node_id":"0.0-88.0"},{"result":156,"points":1,"place":2,"phase":1,"sequence":16,"prices":[200,207,155,158,156,168,167,135,178,177],"times":[302,333,310,798,1399],"next_num":5,"trial_type":"ticket-choose","trial_index":89,"time_elapsed":1072265,"internal_node_id":"0.0-89.0"},{"result":154,"points":3,"place":0,"phase":1,"sequence":17,"prices":[176,187,179,209,163,180,188,165,154,208],"times":[417,397,373,443,567,445,398,678,1325],"next_num":9,"trial_type":"ticket-choose","trial_index":90,"time_elapsed":1081521,"internal_node_id":"0.0-90.0"},{"result":195,"points":0,"place":7,"phase":1,"sequence":18,"prices":[193,174,224,165,187,190,224,161,194,195],"times":[378,326,414,518,424,453,518,486,431,1522],"next_num":10,"trial_type":"ticket-choose","trial_index":91,"time_elapsed":1090895,"internal_node_id":"0.0-91.0"},{"result":199,"points":0,"place":8,"phase":1,"sequence":19,"prices":[190,150,175,161,188,207,157,194,178,199],"times":[388,374,574,390,407,479,357,558,382,1352],"next_num":10,"trial_type":"ticket-choose","trial_index":92,"time_elapsed":1100055,"internal_node_id":"0.0-92.0"},{"result":156,"points":3,"place":0,"phase":1,"sequence":20,"prices":[201,204,179,166,185,165,214,156,202,165],"times":[313,430,397,493,503,503,477,2134],"next_num":8,"trial_type":"ticket-choose","trial_index":93,"time_elapsed":1108816,"internal_node_id":"0.0-93.0"},{"result":150,"points":3,"place":0,"phase":1,"sequence":21,"prices":[185,179,191,165,161,173,199,150,188,168],"times":[434,358,357,501,446,415,431,1921],"next_num":8,"trial_type":"ticket-choose","trial_index":94,"time_elapsed":1117260,"internal_node_id":"0.0-94.0"},{"result":158,"points":2,"place":1,"phase":1,"sequence":22,"prices":[177,176,187,225,158,181,187,165,208,153],"times":[407,357,388,431,1875],"next_num":5,"trial_type":"ticket-choose","trial_index":95,"time_elapsed":1123659,"internal_node_id":"0.0-95.0"},{"result":158,"points":3,"place":0,"phase":1,"sequence":23,"prices":[214,184,226,192,215,158,199,175,176,208],"times":[376,366,415,437,406,1817],"next_num":6,"trial_type":"ticket-choose","trial_index":96,"time_elapsed":1130522,"internal_node_id":"0.0-96.0"},{"result":179,"points":1,"place":4,"phase":1,"sequence":24,"prices":[181,214,169,147,182,193,178,184,176,179],"times":[951,351,389,374,549,406,414,422,397,1486],"next_num":10,"trial_type":"ticket-choose","trial_index":97,"time_elapsed":1140214,"internal_node_id":"0.0-97.0"},{"result":153,"points":3,"place":0,"phase":1,"sequence":25,"prices":[158,176,187,210,177,181,187,165,208,153],"times":[332,678,382,407,398,446,406,783,438,1679],"next_num":10,"trial_type":"ticket-choose","trial_index":98,"time_elapsed":1150216,"internal_node_id":"0.0-98.0"},{"result":157,"points":3,"place":0,"phase":1,"sequence":26,"prices":[201,187,157,184,198,179,188,185,178,170],"times":[541,419,2200],"next_num":3,"trial_type":"ticket-choose","trial_index":99,"time_elapsed":1155793,"internal_node_id":"0.0-99.0"},{"result":156,"points":2,"place":1,"phase":1,"sequence":27,"prices":[180,156,149,160,168,186,172,198,176,195],"times":[355,1931],"next_num":2,"trial_type":"ticket-choose","trial_index":100,"time_elapsed":1160718,"internal_node_id":"0.0-100.0"},{"result":186,"points":1,"place":4,"phase":1,"sequence":28,"prices":[220,173,201,197,169,205,198,183,178,186],"times":[372,493,438,407,446,486,486,461,493,1475],"next_num":10,"trial_type":"ticket-choose","trial_index":101,"time_elapsed":1170511,"internal_node_id":"0.0-101.0"},{"result":154,"points":3,"place":0,"phase":1,"sequence":29,"prices":[165,175,187,209,177,180,188,167,154,208],"times":[470,390,364,366,398,445,415,431,1825],"next_num":9,"trial_type":"ticket-choose","trial_index":102,"time_elapsed":1179393,"internal_node_id":"0.0-102.0"},{"result":149,"points":3,"place":0,"phase":1,"sequence":30,"prices":[181,159,149,175,185,151,163,174,178,207],"times":[546,254,1623],"next_num":3,"trial_type":"ticket-choose","trial_index":103,"time_elapsed":1184674,"internal_node_id":"0.0-103.0"},{"result":153,"points":3,"place":0,"phase":1,"sequence":31,"prices":[176,186,178,217,163,181,187,166,153,209],"times":[447,366,396,453,550,406,389,383,1910],"next_num":9,"trial_type":"ticket-choose","trial_index":104,"time_elapsed":1193725,"internal_node_id":"0.0-104.0"},{"result":154,"points":3,"place":0,"phase":1,"sequence":32,"prices":[187,201,165,172,196,174,178,154,172,180],"times":[419,318,567,421,447,471,415,1982],"next_num":8,"trial_type":"ticket-choose","trial_index":105,"time_elapsed":1202265,"internal_node_id":"0.0-105.0"},{"result":166,"points":1,"place":2,"phase":1,"sequence":33,"prices":[163,199,196,199,185,195,227,163,177,166],"times":[406,415,460,399,470,423,447,431,525,1622],"next_num":10,"trial_type":"ticket-choose","trial_index":106,"time_elapsed":1212018,"internal_node_id":"0.0-106.0"},{"result":148,"points":3,"place":0,"phase":1,"sequence":34,"prices":[173,163,185,181,166,148,160,185,176,184],"times":[719,374,308,383,398,1896],"next_num":6,"trial_type":"ticket-choose","trial_index":107,"time_elapsed":1219745,"internal_node_id":"0.0-107.0"},{"result":153,"points":3,"place":0,"phase":1,"sequence":35,"prices":[177,174,186,217,165,181,187,166,153,209],"times":[1127,413,358,398,391,391,397,429,1680],"next_num":9,"trial_type":"ticket-choose","trial_index":108,"time_elapsed":1229559,"internal_node_id":"0.0-108.0"},{"result":148,"points":3,"place":0,"phase":1,"sequence":36,"prices":[171,169,186,165,163,167,220,148,187,165],"times":[427,271,517,534,470,478,551,2015],"next_num":8,"trial_type":"ticket-choose","trial_index":109,"time_elapsed":1238392,"internal_node_id":"0.0-109.0"},{"result":156,"points":3,"place":0,"phase":1,"sequence":37,"prices":[167,175,185,224,178,181,186,168,208,156],"times":[610,364,358,397,375,390,390,359,542,1663],"next_num":10,"trial_type":"ticket-choose","trial_index":110,"time_elapsed":1247791,"internal_node_id":"0.0-110.0"},{"result":158,"points":2,"place":1,"phase":1,"sequence":38,"prices":[177,175,186,209,158,181,188,167,208,154],"times":[634,343,326,287,1661],"next_num":5,"trial_type":"ticket-choose","trial_index":111,"time_elapsed":1253883,"internal_node_id":"0.0-111.0"},{"result":166,"points":1,"place":2,"phase":1,"sequence":39,"prices":[163,175,186,214,176,179,187,166,153,208],"times":[659,332,375,512,420,429,438,3137],"next_num":8,"trial_type":"ticket-choose","trial_index":112,"time_elapsed":1263772,"internal_node_id":"0.0-112.0"},{"result":153,"points":3,"place":0,"phase":1,"sequence":40,"prices":[167,175,186,225,178,179,187,169,209,153],"times":[410,525,415,359,400,428,422,422,479,1547],"next_num":10,"trial_type":"ticket-choose","trial_index":113,"time_elapsed":1273324,"internal_node_id":"0.0-113.0"},{"result":159,"points":3,"place":0,"phase":1,"sequence":41,"prices":[183,179,188,165,168,173,205,159,187,191],"times":[395,406,470,717,767,684,479,2051],"next_num":8,"trial_type":"ticket-choose","trial_index":114,"time_elapsed":1282899,"internal_node_id":"0.0-114.0"},{"result":153,"points":2,"place":1,"phase":1,"sequence":42,"prices":[167,153,172,185,195,143,184,211,177,227],"times":[303,1734],"next_num":2,"trial_type":"ticket-choose","trial_index":115,"time_elapsed":1287366,"internal_node_id":"0.0-115.0"},{"result":156,"points":3,"place":0,"phase":1,"sequence":43,"prices":[167,174,186,211,178,181,188,168,208,156],"times":[411,387,413,383,399,391,383,406,510,1509],"next_num":10,"trial_type":"ticket-choose","trial_index":116,"time_elapsed":1296486,"internal_node_id":"0.0-116.0"},{"result":153,"points":3,"place":0,"phase":1,"sequence":44,"prices":[165,175,186,214,177,179,187,166,153,208],"times":[442,324,336,373,374,446,406,381,1704],"next_num":9,"trial_type":"ticket-choose","trial_index":117,"time_elapsed":1305305,"internal_node_id":"0.0-117.0"},{"result":154,"points":3,"place":0,"phase":1,"sequence":45,"prices":[177,175,187,209,165,180,188,165,154,208],"times":[346,398,397,438,814,450,409,441,1937],"next_num":9,"trial_type":"ticket-choose","trial_index":118,"time_elapsed":1314682,"internal_node_id":"0.0-118.0"},{"result":184,"points":1,"place":4,"phase":1,"sequence":46,"prices":[193,181,175,181,185,165,224,199,218,184],"times":[407,325,351,423,439,414,488,397,550,1559],"next_num":10,"trial_type":"ticket-choose","trial_index":119,"time_elapsed":1324008,"internal_node_id":"0.0-119.0"},{"result":156,"points":3,"place":0,"phase":1,"sequence":47,"prices":[178,174,186,217,167,181,188,168,208,156],"times":[401,317,412,406,398,430,429,543,435,1574],"next_num":10,"trial_type":"ticket-choose","trial_index":120,"time_elapsed":1333332,"internal_node_id":"0.0-120.0"},{"result":152,"points":3,"place":0,"phase":1,"sequence":48,"prices":[200,180,203,152,175,170,160,154,176,191],"times":[500,366,351,1970],"next_num":4,"trial_type":"ticket-choose","trial_index":121,"time_elapsed":1339456,"internal_node_id":"0.0-121.0"},{"result":157,"points":3,"place":0,"phase":1,"sequence":49,"prices":[191,170,182,165,175,182,203,157,195,200],"times":[442,381,423,485,447,447,477,2350],"next_num":8,"trial_type":"ticket-choose","trial_index":122,"time_elapsed":1348628,"internal_node_id":"0.0-122.0"},{"responses":[{"value":0,"offby":-1,"category":"$115 - $130","category_index":0},{"value":0,"offby":-5,"category":"$131 - $145","category_index":1},{"value":23,"offby":11,"category":"$146 - $160","category_index":2},{"value":31,"offby":9,"category":"$161 - $175","category_index":3},{"value":31,"offby":-3,"category":"$176 - $190","category_index":4},{"value":9,"offby":-6,"category":"$191 - $205","category_index":5},{"value":6,"offby":-5,"category":"$206 - $220","category_index":6}],"phase":1,"number":1,"trial_type":"bar-choose","trial_index":123,"time_elapsed":1373588,"internal_node_id":"0.0-123.0"},{"special_comment":"no","trial_type":"special_sequence","trial_index":124,"time_elapsed":1380404,"internal_node_id":"0.0-124.0"},{"during":"Nothing","bonus":316,"trial_type":"final","trial_index":125,"time_elapsed":1448027,"internal_node_id":"0.0-125.0"}],"bonus":316}