{"start_time":"2017-05-24 12:56:15","end_time":"2017-05-24 13:22:33","points_phase0":111,"points_phase1":122,"phase_order":1,"age":37,"gender":"m","tries":1,"during":"Nothing","worker_id":"A150GMV1YQWWB3","assignment_id":"3W8CV64QJ3SMFC4H0435XSG2GJD9HP","data":[{"rt":8045,"url":"\/christiane\/tickets\/utils\/consent.html","trial_type":"html","trial_index":0,"time_elapsed":8164,"internal_node_id":"0.0-0.0"},{"age":37,"gender":"m","trial_type":"age","trial_index":1,"time_elapsed":15195,"internal_node_id":"0.0-1.0"},{"worker_id":"A150GMV1YQWWB3","trial_type":"workerid","trial_index":2,"time_elapsed":21257,"internal_node_id":"0.0-2.0"},{"tries":1,"trial_type":"instructions_check","trial_index":3,"time_elapsed":72736,"internal_node_id":"0.0-3.0"},{"rt":19097,"url":"\/christiane\/tickets\/utils\/start.html","trial_type":"html","trial_index":4,"time_elapsed":92991,"internal_node_id":"0.0-4.0"},{"trial_type":"number-animation","trial_index":5,"time_elapsed":110342,"internal_node_id":"0.0-5.0"},{"phase":0,"sequence":0,"avg":181,"response":175,"trial_type":"training_avg","trial_index":6,"time_elapsed":121413,"internal_node_id":"0.0-6.0"},{"trial_type":"number-animation","trial_index":7,"time_elapsed":134621,"internal_node_id":"0.0-7.0"},{"phase":0,"sequence":1,"avg":188,"response":194,"trial_type":"training_avg","trial_index":8,"time_elapsed":143237,"internal_node_id":"0.0-8.0"},{"trial_type":"number-animation","trial_index":9,"time_elapsed":157300,"internal_node_id":"0.0-9.0"},{"phase":0,"sequence":2,"avg":188,"response":182,"trial_type":"training_avg","trial_index":10,"time_elapsed":166100,"internal_node_id":"0.0-10.0"},{"trial_type":"number-animation","trial_index":11,"time_elapsed":179380,"internal_node_id":"0.0-11.0"},{"phase":0,"sequence":3,"avg":177,"response":172,"trial_type":"training_avg","trial_index":12,"time_elapsed":187892,"internal_node_id":"0.0-12.0"},{"trial_type":"number-animation","trial_index":13,"time_elapsed":200500,"internal_node_id":"0.0-13.0"},{"phase":0,"sequence":4,"avg":182,"response":175,"trial_type":"training_avg","trial_index":14,"time_elapsed":207259,"internal_node_id":"0.0-14.0"},{"responses":[{"value":5,"offby":4,"category":"$115 - $130","category_index":0},{"value":10,"offby":5,"category":"$131 - $145","category_index":1},{"value":10,"offby":-2,"category":"$146 - $160","category_index":2},{"value":20,"offby":-2,"category":"$161 - $175","category_index":3},{"value":30,"offby":-4,"category":"$176 - $190","category_index":4},{"value":18,"offby":3,"category":"$191 - $205","category_index":5},{"value":7,"offby":-4,"category":"$206 - $220","category_index":6}],"phase":0,"number":0,"trial_type":"bar-choose","trial_index":15,"time_elapsed":289251,"internal_node_id":"0.0-15.0"},{"rt":15157,"url":"\/christiane\/tickets\/utils\/testing.html","trial_type":"html","trial_index":16,"time_elapsed":305536,"internal_node_id":"0.0-16.0"},{"phase":0,"order":[46,49,4,44,33,7,34,25,12,14,31,27,3,36,13,18,10,20,38,15,23,5,29,2,26,40,45,16,11,30,8,6,21,28,17,32,22,39,42,19,24,48,47,9,43,35,1,41,0,37],"trial_type":"store_order","trial_index":17,"time_elapsed":306538,"internal_node_id":"0.0-17.0"},{"result":146,"points":3,"place":0,"phase":0,"sequence":-1,"prices":[184,180,224,165,181,199,185,193,218,146],"times":[2526,1020,774,1539,759,749,1060,1204,934,1284],"next_num":10,"trial_type":"ticket-choose","trial_index":18,"time_elapsed":323192,"internal_node_id":"0.0-18.0"},{"rt":25114,"url":"\/christiane\/tickets\/utils\/testing_after.html","trial_type":"html","trial_index":19,"time_elapsed":349464,"internal_node_id":"0.0-19.0"},{"result":154,"points":3,"place":0,"phase":0,"sequence":0,"prices":[187,201,165,172,196,174,178,154,172,180],"times":[2291,646,846,670,661,1278,653,1183],"next_num":8,"trial_type":"ticket-choose","trial_index":20,"time_elapsed":362294,"internal_node_id":"0.0-20.0"},{"result":152,"points":3,"place":0,"phase":0,"sequence":1,"prices":[200,180,203,152,175,170,160,154,176,191],"times":[1650,629,726,1606],"next_num":4,"trial_type":"ticket-choose","trial_index":21,"time_elapsed":370686,"internal_node_id":"0.0-21.0"},{"result":163,"points":2,"place":1,"phase":0,"sequence":2,"prices":[176,186,178,217,163,181,187,166,153,209],"times":[7084,651,725,703,1388],"next_num":5,"trial_type":"ticket-choose","trial_index":22,"time_elapsed":385446,"internal_node_id":"0.0-22.0"},{"result":165,"points":2,"place":1,"phase":0,"sequence":3,"prices":[201,204,179,166,185,165,214,156,202,165],"times":[1329,622,813,903,726,1325],"next_num":6,"trial_type":"ticket-choose","trial_index":23,"time_elapsed":395141,"internal_node_id":"0.0-23.0"},{"result":156,"points":3,"place":0,"phase":0,"sequence":4,"prices":[167,174,186,211,178,181,188,168,208,156],"times":[1393,822,645,660,758,703,733,1261,717,1870],"next_num":10,"trial_type":"ticket-choose","trial_index":24,"time_elapsed":409213,"internal_node_id":"0.0-24.0"},{"result":165,"points":1,"place":2,"phase":0,"sequence":5,"prices":[163,175,187,209,176,180,188,165,154,208],"times":[3048,718,677,645,790,798,670,1397],"next_num":8,"trial_type":"ticket-choose","trial_index":25,"time_elapsed":422357,"internal_node_id":"0.0-25.0"},{"result":156,"points":2,"place":1,"phase":0,"sequence":6,"prices":[180,156,149,160,168,186,172,198,176,195],"times":[1800,1524],"next_num":2,"trial_type":"ticket-choose","trial_index":26,"time_elapsed":429381,"internal_node_id":"0.0-26.0"},{"result":156,"points":3,"place":0,"phase":0,"sequence":7,"prices":[178,174,186,217,167,181,188,168,208,156],"times":[1569,728,649,732,2119,781,678,1412,709,1150],"next_num":10,"trial_type":"ticket-choose","trial_index":27,"time_elapsed":445356,"internal_node_id":"0.0-27.0"},{"result":166,"points":1,"place":2,"phase":0,"sequence":8,"prices":[165,175,186,214,177,179,187,166,153,208],"times":[1387,782,685,662,941,678,725,1277],"next_num":8,"trial_type":"ticket-choose","trial_index":28,"time_elapsed":456772,"internal_node_id":"0.0-28.0"},{"result":166,"points":1,"place":2,"phase":0,"sequence":9,"prices":[177,175,186,210,165,179,187,166,153,208],"times":[2140,604,669,662,1455,702,715,1262],"next_num":8,"trial_type":"ticket-choose","trial_index":29,"time_elapsed":468811,"internal_node_id":"0.0-29.0"},{"result":165,"points":2,"place":1,"phase":0,"sequence":10,"prices":[177,175,187,209,165,180,188,165,154,208],"times":[1097,958,631,654,1518,693,838,1309],"next_num":8,"trial_type":"ticket-choose","trial_index":30,"time_elapsed":480739,"internal_node_id":"0.0-30.0"},{"result":155,"points":2,"place":1,"phase":0,"sequence":11,"prices":[200,207,155,158,156,168,167,135,178,177],"times":[1341,630,1350],"next_num":3,"trial_type":"ticket-choose","trial_index":31,"time_elapsed":487027,"internal_node_id":"0.0-31.0"},{"result":168,"points":1,"place":2,"phase":0,"sequence":12,"prices":[167,175,185,224,178,181,186,168,208,156],"times":[1418,638,678,718,750,726,712,2235],"next_num":8,"trial_type":"ticket-choose","trial_index":32,"time_elapsed":498619,"internal_node_id":"0.0-32.0"},{"result":169,"points":3,"place":0,"phase":0,"sequence":13,"prices":[220,173,201,197,169,205,198,183,178,186],"times":[1339,630,750,646,1957],"next_num":5,"trial_type":"ticket-choose","trial_index":33,"time_elapsed":508579,"internal_node_id":"0.0-33.0"},{"result":163,"points":3,"place":0,"phase":0,"sequence":14,"prices":[163,199,196,199,185,195,227,163,177,166],"times":[3208,693,686,668,678,820,757,1173],"next_num":8,"trial_type":"ticket-choose","trial_index":34,"time_elapsed":523106,"internal_node_id":"0.0-34.0"},{"result":165,"points":2,"place":1,"phase":0,"sequence":15,"prices":[177,174,186,217,165,181,187,166,153,209],"times":[2530,733,669,654,1405],"next_num":5,"trial_type":"ticket-choose","trial_index":35,"time_elapsed":532708,"internal_node_id":"0.0-35.0"},{"result":153,"points":2,"place":1,"phase":0,"sequence":16,"prices":[167,153,172,185,195,143,184,211,177,227],"times":[5007,2061],"next_num":2,"trial_type":"ticket-choose","trial_index":36,"time_elapsed":542657,"internal_node_id":"0.0-36.0"},{"result":165,"points":1,"place":2,"phase":0,"sequence":17,"prices":[158,176,187,210,177,181,187,165,208,153],"times":[2100,701,732,693,654,702,669,1558],"next_num":8,"trial_type":"ticket-choose","trial_index":37,"time_elapsed":554185,"internal_node_id":"0.0-37.0"},{"result":147,"points":3,"place":0,"phase":0,"sequence":18,"prices":[181,214,169,147,182,193,178,184,176,179],"times":[1256,789,1238,1230],"next_num":4,"trial_type":"ticket-choose","trial_index":38,"time_elapsed":561809,"internal_node_id":"0.0-38.0"},{"result":163,"points":2,"place":1,"phase":0,"sequence":19,"prices":[176,187,179,209,163,180,188,165,154,208],"times":[1264,846,878,724,1406],"next_num":5,"trial_type":"ticket-choose","trial_index":39,"time_elapsed":570265,"internal_node_id":"0.0-39.0"},{"result":165,"points":3,"place":0,"phase":0,"sequence":20,"prices":[196,171,170,184,187,165,211,169,201,202],"times":[1556,1801,1369,750,676,1351],"next_num":6,"trial_type":"ticket-choose","trial_index":40,"time_elapsed":581360,"internal_node_id":"0.0-40.0"},{"result":165,"points":2,"place":1,"phase":0,"sequence":21,"prices":[191,170,182,165,175,182,203,157,195,200],"times":[1218,1148,918,1831],"next_num":4,"trial_type":"ticket-choose","trial_index":41,"time_elapsed":589592,"internal_node_id":"0.0-41.0"},{"result":153,"points":3,"place":0,"phase":0,"sequence":22,"prices":[163,174,186,212,176,181,187,166,153,209],"times":[1434,806,654,685,702,766,757,1830,1237],"next_num":9,"trial_type":"ticket-choose","trial_index":42,"time_elapsed":602720,"internal_node_id":"0.0-42.0"},{"result":150,"points":3,"place":0,"phase":0,"sequence":23,"prices":[190,150,175,161,188,207,157,194,178,199],"times":[1311,1716],"next_num":2,"trial_type":"ticket-choose","trial_index":43,"time_elapsed":671550,"internal_node_id":"0.0-43.0"},{"result":166,"points":1,"place":2,"phase":0,"sequence":24,"prices":[165,174,186,212,177,181,187,166,153,209],"times":[2139,702,630,668,646,646,677,1375],"next_num":8,"trial_type":"ticket-choose","trial_index":44,"time_elapsed":682991,"internal_node_id":"0.0-44.0"},{"result":163,"points":1,"place":2,"phase":0,"sequence":25,"prices":[173,163,185,181,166,148,160,185,176,184],"times":[1593,1387],"next_num":2,"trial_type":"ticket-choose","trial_index":45,"time_elapsed":688910,"internal_node_id":"0.0-45.0"},{"result":165,"points":1,"place":2,"phase":0,"sequence":26,"prices":[199,193,169,165,202,182,151,164,176,171],"times":[1216,702,1975,1254],"next_num":4,"trial_type":"ticket-choose","trial_index":46,"time_elapsed":697102,"internal_node_id":"0.0-46.0"},{"result":165,"points":3,"place":0,"phase":0,"sequence":27,"prices":[192,172,171,178,188,165,217,168,195,197],"times":[1264,982,1326,773,709,1118],"next_num":6,"trial_type":"ticket-choose","trial_index":47,"time_elapsed":706832,"internal_node_id":"0.0-47.0"},{"result":165,"points":3,"place":0,"phase":0,"sequence":28,"prices":[189,167,180,197,165,168,172,213,178,171],"times":[1344,1012,734,621,1198],"next_num":5,"trial_type":"ticket-choose","trial_index":48,"time_elapsed":714997,"internal_node_id":"0.0-48.0"},{"result":159,"points":1,"place":2,"phase":0,"sequence":29,"prices":[181,159,149,175,185,151,163,174,178,207],"times":[1068,1076],"next_num":2,"trial_type":"ticket-choose","trial_index":49,"time_elapsed":719941,"internal_node_id":"0.0-49.0"},{"result":167,"points":2,"place":1,"phase":0,"sequence":30,"prices":[178,175,185,215,167,181,186,168,208,156],"times":[1100,686,686,717,1262],"next_num":5,"trial_type":"ticket-choose","trial_index":50,"time_elapsed":727664,"internal_node_id":"0.0-50.0"},{"result":165,"points":1,"place":2,"phase":0,"sequence":31,"prices":[200,173,182,169,207,165,152,202,161,204],"times":[1391,903,675,1195,710,1238],"next_num":6,"trial_type":"ticket-choose","trial_index":51,"time_elapsed":737252,"internal_node_id":"0.0-51.0"},{"result":157,"points":3,"place":0,"phase":0,"sequence":32,"prices":[201,187,157,184,198,179,188,185,178,170],"times":[1457,798,1869],"next_num":3,"trial_type":"ticket-choose","trial_index":52,"time_elapsed":744668,"internal_node_id":"0.0-52.0"},{"result":161,"points":2,"place":1,"phase":0,"sequence":33,"prices":[185,179,191,165,161,173,199,150,188,168],"times":[1306,726,654,819,1454],"next_num":5,"trial_type":"ticket-choose","trial_index":53,"time_elapsed":753459,"internal_node_id":"0.0-53.0"},{"result":167,"points":1,"place":2,"phase":0,"sequence":34,"prices":[165,175,187,209,177,180,188,167,154,208],"times":[1477,726,638,653,774,902,726,1349],"next_num":8,"trial_type":"ticket-choose","trial_index":54,"time_elapsed":764364,"internal_node_id":"0.0-54.0"},{"result":158,"points":2,"place":1,"phase":0,"sequence":35,"prices":[177,176,187,225,158,181,187,165,208,153],"times":[1182,1621,637,743,1789],"next_num":5,"trial_type":"ticket-choose","trial_index":55,"time_elapsed":773556,"internal_node_id":"0.0-55.0"},{"result":148,"points":3,"place":0,"phase":0,"sequence":36,"prices":[171,169,186,165,163,167,220,148,187,165],"times":[1466,1038,782,1198,1510,934,709,1197],"next_num":8,"trial_type":"ticket-choose","trial_index":56,"time_elapsed":786475,"internal_node_id":"0.0-56.0"},{"result":158,"points":3,"place":0,"phase":0,"sequence":37,"prices":[214,184,226,192,215,158,199,175,176,208],"times":[1548,1112,667,719,742,1237],"next_num":6,"trial_type":"ticket-choose","trial_index":57,"time_elapsed":795835,"internal_node_id":"0.0-57.0"},{"result":154,"points":3,"place":0,"phase":0,"sequence":38,"prices":[158,175,186,209,177,181,188,167,208,154],"times":[4913,780,758,686,710,822,799,982,1156,1150],"next_num":10,"trial_type":"ticket-choose","trial_index":58,"time_elapsed":812930,"internal_node_id":"0.0-58.0"},{"result":159,"points":3,"place":0,"phase":0,"sequence":39,"prices":[183,179,188,165,168,173,205,159,187,191],"times":[1491,942,717,1126,798,830,738,1223],"next_num":8,"trial_type":"ticket-choose","trial_index":59,"time_elapsed":824538,"internal_node_id":"0.0-59.0"},{"result":170,"points":1,"place":2,"phase":0,"sequence":40,"prices":[199,191,188,174,167,193,189,164,176,170],"times":[1329,638,726,790,759,758,734,1125,1355,1213],"next_num":10,"trial_type":"ticket-choose","trial_index":60,"time_elapsed":838346,"internal_node_id":"0.0-60.0"},{"result":163,"points":2,"place":1,"phase":0,"sequence":41,"prices":[176,175,186,210,163,179,187,166,153,208],"times":[1169,861,782,731,1583],"next_num":5,"trial_type":"ticket-choose","trial_index":61,"time_elapsed":846546,"internal_node_id":"0.0-61.0"},{"result":165,"points":3,"place":0,"phase":0,"sequence":42,"prices":[193,181,175,181,185,165,224,199,218,184],"times":[1409,854,3678,733,758,1606],"next_num":6,"trial_type":"ticket-choose","trial_index":62,"time_elapsed":859225,"internal_node_id":"0.0-62.0"},{"result":153,"points":3,"place":0,"phase":0,"sequence":43,"prices":[158,175,186,211,177,180,187,166,209,153],"times":[1168,991,740,661,662,703,677,1717,709,1182],"next_num":10,"trial_type":"ticket-choose","trial_index":63,"time_elapsed":872569,"internal_node_id":"0.0-63.0"},{"result":163,"points":2,"place":1,"phase":0,"sequence":44,"prices":[163,175,186,214,176,179,187,166,153,208],"times":[2282],"next_num":1,"trial_type":"ticket-choose","trial_index":64,"time_elapsed":877881,"internal_node_id":"0.0-64.0"},{"result":161,"points":3,"place":0,"phase":0,"sequence":45,"prices":[193,174,224,165,187,190,224,161,194,195],"times":[1308,940,717,1557,702,725,903,1196],"next_num":8,"trial_type":"ticket-choose","trial_index":65,"time_elapsed":889816,"internal_node_id":"0.0-65.0"},{"result":153,"points":3,"place":0,"phase":0,"sequence":46,"prices":[177,175,186,221,158,180,187,166,209,153],"times":[1232,814,782,670,1411,766,702,1301,701,1238],"next_num":10,"trial_type":"ticket-choose","trial_index":66,"time_elapsed":903953,"internal_node_id":"0.0-66.0"},{"result":158,"points":2,"place":1,"phase":0,"sequence":47,"prices":[177,175,186,209,158,181,188,167,208,154],"times":[1358,699,685,678,1221],"next_num":5,"trial_type":"ticket-choose","trial_index":67,"time_elapsed":911740,"internal_node_id":"0.0-67.0"},{"result":153,"points":3,"place":0,"phase":0,"sequence":48,"prices":[178,175,186,212,167,179,187,169,209,153],"times":[1949,629,651,701,878,702,693,757,925,1014],"next_num":10,"trial_type":"ticket-choose","trial_index":68,"time_elapsed":926103,"internal_node_id":"0.0-68.0"},{"result":153,"points":3,"place":0,"phase":0,"sequence":49,"prices":[167,175,186,225,178,179,187,169,209,153],"times":[1456,701,644,636,741,709,686,1165,686,1134],"next_num":10,"trial_type":"ticket-choose","trial_index":69,"time_elapsed":939311,"internal_node_id":"0.0-69.0"},{"responses":[{"value":0,"offby":-1,"category":"$115 - $130","category_index":0},{"value":4,"offby":-1,"category":"$131 - $145","category_index":1},{"value":11,"offby":-1,"category":"$146 - $160","category_index":2},{"value":20,"offby":-2,"category":"$161 - $175","category_index":3},{"value":35,"offby":1,"category":"$176 - $190","category_index":4},{"value":24,"offby":9,"category":"$191 - $205","category_index":5},{"value":6,"offby":-5,"category":"$206 - $220","category_index":6}],"phase":1,"number":1,"trial_type":"bar-choose","trial_index":70,"time_elapsed":1025049,"internal_node_id":"0.0-70.0"},{"rt":28351,"url":"\/christiane\/tickets\/utils\/testing2.html","trial_type":"point_update","trial_index":71,"time_elapsed":1054662,"internal_node_id":"0.0-71.0"},{"phase":1,"order":[36,47,17,25,0,13,34,3,6,9,10,41,1,42,38,11,35,20,48,16,28,30,14,40,8,49,37,27,39,44,4,26,43,29,7,23,31,46,19,33,45,15,24,18,12,32,21,22,5,2],"trial_type":"store_order","trial_index":72,"time_elapsed":1055664,"internal_node_id":"0.0-72.0"},{"result":158,"points":3,"place":0,"phase":1,"sequence":0,"prices":[210,184,226,193,215,158,199,175,176,208],"times":[1552,622,574,645,732,1334],"next_num":6,"trial_type":"ticket-choose","trial_index":73,"time_elapsed":1064340,"internal_node_id":"0.0-73.0"},{"result":148,"points":3,"place":0,"phase":1,"sequence":1,"prices":[183,163,185,180,166,148,160,186,176,184],"times":[1114,626,618,599,1069,1197],"next_num":6,"trial_type":"ticket-choose","trial_index":74,"time_elapsed":1072733,"internal_node_id":"0.0-74.0"},{"result":156,"points":3,"place":0,"phase":1,"sequence":2,"prices":[175,185,178,215,181,186,167,168,208,156],"times":[1097,661,654,622,692,823,1003,789,773,1061],"next_num":10,"trial_type":"ticket-choose","trial_index":75,"time_elapsed":1084973,"internal_node_id":"0.0-75.0"},{"result":159,"points":1,"place":2,"phase":1,"sequence":3,"prices":[180,159,149,175,185,141,163,174,178,207],"times":[1175,1220],"next_num":2,"trial_type":"ticket-choose","trial_index":76,"time_elapsed":1089964,"internal_node_id":"0.0-76.0"},{"result":167,"points":2,"place":1,"phase":1,"sequence":4,"prices":[183,182,192,168,173,205,167,187,165,170],"times":[1016,676,645,1236,685,679,1149],"next_num":7,"trial_type":"ticket-choose","trial_index":77,"time_elapsed":1099596,"internal_node_id":"0.0-77.0"},{"result":154,"points":3,"place":0,"phase":1,"sequence":5,"prices":[175,187,165,209,180,188,177,166,154,208],"times":[1129,598,926,652,765,607,784,1531,1294],"next_num":9,"trial_type":"ticket-choose","trial_index":78,"time_elapsed":1111828,"internal_node_id":"0.0-78.0"},{"result":155,"points":2,"place":1,"phase":1,"sequence":6,"prices":[181,155,148,161,168,187,172,199,176,194],"times":[913,1445],"next_num":2,"trial_type":"ticket-choose","trial_index":79,"time_elapsed":1116699,"internal_node_id":"0.0-79.0"},{"result":165,"points":2,"place":1,"phase":1,"sequence":7,"prices":[201,165,162,166,185,214,165,202,204,179],"times":[1013,1509],"next_num":2,"trial_type":"ticket-choose","trial_index":80,"time_elapsed":1121598,"internal_node_id":"0.0-80.0"},{"result":163,"points":2,"place":1,"phase":1,"sequence":8,"prices":[175,186,163,214,179,187,176,166,153,208],"times":[1053,647,1155],"next_num":3,"trial_type":"ticket-choose","trial_index":81,"time_elapsed":1127347,"internal_node_id":"0.0-81.0"},{"result":163,"points":2,"place":1,"phase":1,"sequence":9,"prices":[174,186,163,212,181,187,176,166,153,209],"times":[936,682,1134],"next_num":3,"trial_type":"ticket-choose","trial_index":82,"time_elapsed":1132749,"internal_node_id":"0.0-82.0"},{"result":170,"points":1,"place":3,"phase":1,"sequence":10,"prices":[171,203,175,170,167,220,192,186,165,165],"times":[911,670,695,1136],"next_num":4,"trial_type":"ticket-choose","trial_index":83,"time_elapsed":1139034,"internal_node_id":"0.0-83.0"},{"result":165,"points":3,"place":0,"phase":1,"sequence":11,"prices":[192,165,171,178,188,217,172,195,197,186],"times":[997,1179],"next_num":2,"trial_type":"ticket-choose","trial_index":84,"time_elapsed":1143859,"internal_node_id":"0.0-84.0"},{"result":156,"points":3,"place":0,"phase":1,"sequence":12,"prices":[174,186,178,217,181,188,167,168,208,156],"times":[1122,710,679,676,671,669,1060,750,694,1030],"next_num":10,"trial_type":"ticket-choose","trial_index":85,"time_elapsed":1156658,"internal_node_id":"0.0-85.0"},{"result":154,"points":3,"place":0,"phase":1,"sequence":13,"prices":[188,200,165,172,198,174,177,154,177,180],"times":[1137,796,1524,605,631,669,669,1204],"next_num":8,"trial_type":"ticket-choose","trial_index":86,"time_elapsed":1167739,"internal_node_id":"0.0-86.0"},{"result":163,"points":2,"place":1,"phase":1,"sequence":14,"prices":[175,187,163,209,180,188,176,165,154,208],"times":[1240,653,1174],"next_num":3,"trial_type":"ticket-choose","trial_index":87,"time_elapsed":1173410,"internal_node_id":"0.0-87.0"},{"result":158,"points":2,"place":1,"phase":1,"sequence":15,"prices":[175,186,158,211,180,187,177,166,209,153],"times":[1046,606,1709],"next_num":3,"trial_type":"ticket-choose","trial_index":88,"time_elapsed":1179516,"internal_node_id":"0.0-88.0"},{"result":165,"points":2,"place":1,"phase":1,"sequence":16,"prices":[175,187,177,209,180,188,165,165,154,208],"times":[1151,638,668,727,757,671,1113],"next_num":7,"trial_type":"ticket-choose","trial_index":89,"time_elapsed":1188602,"internal_node_id":"0.0-89.0"},{"result":158,"points":2,"place":1,"phase":1,"sequence":17,"prices":[176,187,158,210,181,187,177,165,208,153],"times":[1129,844,1701],"next_num":3,"trial_type":"ticket-choose","trial_index":90,"time_elapsed":1195011,"internal_node_id":"0.0-90.0"},{"result":163,"points":3,"place":0,"phase":1,"sequence":18,"prices":[168,199,196,198,185,195,227,163,177,166],"times":[1263,685,661,693,766,717,723,1159],"next_num":8,"trial_type":"ticket-choose","trial_index":91,"time_elapsed":1205274,"internal_node_id":"0.0-91.0"},{"result":163,"points":2,"place":1,"phase":1,"sequence":19,"prices":[175,186,176,210,179,187,163,166,153,208],"times":[974,678,662,662,715,663,1328],"next_num":7,"trial_type":"ticket-choose","trial_index":92,"time_elapsed":1214249,"internal_node_id":"0.0-92.0"},{"result":158,"points":2,"place":1,"phase":1,"sequence":20,"prices":[176,187,177,225,181,187,158,165,208,153],"times":[998,733,900,741,670,704,1179],"next_num":7,"trial_type":"ticket-choose","trial_index":93,"time_elapsed":1223595,"internal_node_id":"0.0-93.0"},{"result":167,"points":2,"place":1,"phase":1,"sequence":21,"prices":[175,186,178,212,179,187,167,169,209,153],"times":[1391,583,637,735,633,699,1216],"next_num":7,"trial_type":"ticket-choose","trial_index":94,"time_elapsed":1233000,"internal_node_id":"0.0-94.0"},{"result":165,"points":3,"place":0,"phase":1,"sequence":22,"prices":[185,170,182,201,173,199,171,188,165,168],"times":[1414,1908,694,622,749,682,1028,685,1494],"next_num":9,"trial_type":"ticket-choose","trial_index":95,"time_elapsed":1246232,"internal_node_id":"0.0-95.0"},{"result":153,"points":3,"place":0,"phase":1,"sequence":23,"prices":[175,186,167,225,179,187,178,169,209,153],"times":[1354,575,845,662,766,700,804,1054,693,1055],"next_num":10,"trial_type":"ticket-choose","trial_index":96,"time_elapsed":1258847,"internal_node_id":"0.0-96.0"},{"result":161,"points":3,"place":0,"phase":1,"sequence":24,"prices":[200,165,165,173,182,207,161,202,204,180],"times":[1141,669,1229,709,670,661,1181],"next_num":7,"trial_type":"ticket-choose","trial_index":97,"time_elapsed":1268520,"internal_node_id":"0.0-97.0"},{"result":150,"points":3,"place":0,"phase":1,"sequence":25,"prices":[189,150,175,160,188,207,158,194,178,199],"times":[1265,1413],"next_num":2,"trial_type":"ticket-choose","trial_index":98,"time_elapsed":1273768,"internal_node_id":"0.0-98.0"},{"result":167,"points":2,"place":1,"phase":1,"sequence":26,"prices":[212,192,188,184,167,193,189,164,176,170],"times":[1233,692,733,670,1506],"next_num":5,"trial_type":"ticket-choose","trial_index":99,"time_elapsed":1281594,"internal_node_id":"0.0-99.0"},{"result":163,"points":2,"place":1,"phase":1,"sequence":27,"prices":[175,187,176,209,180,188,163,165,154,208],"times":[993,613,847,677,654,693,1239],"next_num":7,"trial_type":"ticket-choose","trial_index":100,"time_elapsed":1290655,"internal_node_id":"0.0-100.0"},{"result":153,"points":3,"place":0,"phase":1,"sequence":28,"prices":[174,186,177,217,181,187,165,166,153,209],"times":[945,827,711,711,685,652,1337,714,1307],"next_num":9,"trial_type":"ticket-choose","trial_index":101,"time_elapsed":1302582,"internal_node_id":"0.0-101.0"},{"result":165,"points":3,"place":0,"phase":1,"sequence":29,"prices":[191,172,169,175,182,203,170,195,165,176],"times":[935,726,1124,701,692,725,726,775,1356],"next_num":9,"trial_type":"ticket-choose","trial_index":102,"time_elapsed":1314151,"internal_node_id":"0.0-102.0"},{"result":153,"points":3,"place":0,"phase":1,"sequence":30,"prices":[174,186,165,212,181,187,177,167,153,209],"times":[1354,861,655,684,775,669,765,1109,1198],"next_num":9,"trial_type":"ticket-choose","trial_index":103,"time_elapsed":1326094,"internal_node_id":"0.0-103.0"},{"result":165,"points":2,"place":1,"phase":1,"sequence":31,"prices":[175,186,165,214,179,187,177,166,153,208],"times":[1312,629,1934],"next_num":3,"trial_type":"ticket-choose","trial_index":104,"time_elapsed":1332518,"internal_node_id":"0.0-104.0"},{"result":158,"points":2,"place":1,"phase":1,"sequence":32,"prices":[175,186,177,221,180,187,158,166,209,153],"times":[871,645,678,675,677,630,1178],"next_num":7,"trial_type":"ticket-choose","trial_index":105,"time_elapsed":1341159,"internal_node_id":"0.0-105.0"},{"result":165,"points":3,"place":0,"phase":1,"sequence":33,"prices":[196,165,170,184,187,211,171,201,202,185],"times":[1016,1447],"next_num":2,"trial_type":"ticket-choose","trial_index":106,"time_elapsed":1346055,"internal_node_id":"0.0-106.0"},{"result":163,"points":2,"place":1,"phase":1,"sequence":34,"prices":[174,186,176,217,181,187,163,166,153,209],"times":[997,757,909,671,677,685,1158],"next_num":7,"trial_type":"ticket-choose","trial_index":107,"time_elapsed":1355285,"internal_node_id":"0.0-107.0"},{"result":165,"points":3,"place":0,"phase":1,"sequence":35,"prices":[193,169,171,187,190,224,174,194,165,188],"times":[1514,780,541,727,718,669,687,732,1261],"next_num":9,"trial_type":"ticket-choose","trial_index":108,"time_elapsed":1366724,"internal_node_id":"0.0-108.0"},{"result":158,"points":2,"place":1,"phase":1,"sequence":36,"prices":[175,186,177,209,181,188,158,167,208,154],"times":[1049,682,692,542,889,716,1182],"next_num":7,"trial_type":"ticket-choose","trial_index":109,"time_elapsed":1375853,"internal_node_id":"0.0-109.0"},{"result":165,"points":3,"place":0,"phase":1,"sequence":37,"prices":[189,167,180,197,165,168,172,213,178,171],"times":[974,836,653,615,1365],"next_num":5,"trial_type":"ticket-choose","trial_index":110,"time_elapsed":1383212,"internal_node_id":"0.0-110.0"},{"result":143,"points":3,"place":0,"phase":1,"sequence":38,"prices":[222,173,202,197,143,205,198,183,178,186],"times":[905,773,702,758,1378],"next_num":5,"trial_type":"ticket-choose","trial_index":111,"time_elapsed":1390607,"internal_node_id":"0.0-111.0"},{"result":158,"points":2,"place":1,"phase":1,"sequence":39,"prices":[175,186,158,209,181,188,177,167,208,154],"times":[1057,669,1142],"next_num":3,"trial_type":"ticket-choose","trial_index":112,"time_elapsed":1395883,"internal_node_id":"0.0-112.0"},{"result":165,"points":3,"place":0,"phase":1,"sequence":40,"prices":[193,165,175,181,185,224,180,199,218,184],"times":[819,1126],"next_num":2,"trial_type":"ticket-choose","trial_index":113,"time_elapsed":1400204,"internal_node_id":"0.0-113.0"},{"result":147,"points":3,"place":0,"phase":1,"sequence":41,"prices":[181,215,169,147,182,193,177,184,176,179],"times":[1068,1099,2647,1134],"next_num":4,"trial_type":"ticket-choose","trial_index":114,"time_elapsed":1408758,"internal_node_id":"0.0-114.0"},{"result":152,"points":3,"place":0,"phase":1,"sequence":42,"prices":[200,181,203,152,175,171,160,154,176,191],"times":[1608,718,934,1299],"next_num":4,"trial_type":"ticket-choose","trial_index":115,"time_elapsed":1415980,"internal_node_id":"0.0-115.0"},{"result":165,"points":2,"place":1,"phase":1,"sequence":43,"prices":[175,186,177,210,179,187,165,166,153,208],"times":[1174,638,630,685,710,732,1270],"next_num":7,"trial_type":"ticket-choose","trial_index":116,"time_elapsed":1425147,"internal_node_id":"0.0-116.0"},{"result":157,"points":3,"place":0,"phase":1,"sequence":44,"prices":[201,187,157,184,198,179,188,185,178,170],"times":[1104,678,1437],"next_num":3,"trial_type":"ticket-choose","trial_index":117,"time_elapsed":1430875,"internal_node_id":"0.0-117.0"},{"result":154,"points":2,"place":1,"phase":1,"sequence":45,"prices":[168,154,172,185,195,144,184,211,177,227],"times":[1064,1165],"next_num":2,"trial_type":"ticket-choose","trial_index":118,"time_elapsed":1435405,"internal_node_id":"0.0-118.0"},{"result":167,"points":2,"place":1,"phase":1,"sequence":46,"prices":[175,185,167,224,181,186,178,168,208,156],"times":[882,646,1126],"next_num":3,"trial_type":"ticket-choose","trial_index":119,"time_elapsed":1440445,"internal_node_id":"0.0-119.0"},{"result":155,"points":2,"place":1,"phase":1,"sequence":47,"prices":[201,207,155,158,156,165,167,135,178,177],"times":[838,670,1215],"next_num":3,"trial_type":"ticket-choose","trial_index":120,"time_elapsed":1445756,"internal_node_id":"0.0-120.0"},{"result":167,"points":2,"place":1,"phase":1,"sequence":48,"prices":[174,186,167,211,181,188,178,168,208,156],"times":[1040,1116,1269],"next_num":3,"trial_type":"ticket-choose","trial_index":121,"time_elapsed":1451773,"internal_node_id":"0.0-121.0"},{"result":152,"points":3,"place":0,"phase":1,"sequence":49,"prices":[198,193,169,163,202,182,152,164,177,171],"times":[1313,936,876,853,687,685,1173],"next_num":7,"trial_type":"ticket-choose","trial_index":122,"time_elapsed":1461890,"internal_node_id":"0.0-122.0"},{"responses":[{"value":1,"offby":0,"category":"$115 - $130","category_index":0},{"value":3,"offby":-2,"category":"$131 - $145","category_index":1},{"value":9,"offby":-3,"category":"$146 - $160","category_index":2},{"value":23,"offby":1,"category":"$161 - $175","category_index":3},{"value":30,"offby":-4,"category":"$176 - $190","category_index":4},{"value":26,"offby":11,"category":"$191 - $205","category_index":5},{"value":8,"offby":-3,"category":"$206 - $220","category_index":6}],"phase":1,"number":1,"trial_type":"bar-choose","trial_index":123,"time_elapsed":1523606,"internal_node_id":"0.0-123.0"},{"special_comment":"No","trial_type":"special_sequence","trial_index":124,"time_elapsed":1531757,"internal_node_id":"0.0-124.0"},{"during":"Nothing","bonus":312,"trial_type":"final","trial_index":125,"time_elapsed":1569317,"internal_node_id":"0.0-125.0"}],"bonus":312}