{"start_time":"2017-05-24 09:21:10","end_time":"2017-05-24 09:35:13","points_phase0":82,"points_phase1":80,"phase_order":1,"age":33,"gender":"m","tries":1,"during":"Nothing","worker_id":"A154X03NKVZZL1","assignment_id":"3V5Q80FXIYKWLKCJ0AZOJB7ER75322","data":[{"rt":14240,"url":"\/christiane\/tickets\/utils\/consent.html","trial_type":"html","trial_index":0,"time_elapsed":14441,"internal_node_id":"0.0-0.0"},{"age":33,"gender":"m","trial_type":"age","trial_index":1,"time_elapsed":18919,"internal_node_id":"0.0-1.0"},{"worker_id":"A154X03NKVZZL1","trial_type":"workerid","trial_index":2,"time_elapsed":24406,"internal_node_id":"0.0-2.0"},{"tries":1,"trial_type":"instructions_check","trial_index":3,"time_elapsed":43619,"internal_node_id":"0.0-3.0"},{"rt":14820,"url":"\/christiane\/tickets\/utils\/start.html","trial_type":"html","trial_index":4,"time_elapsed":59556,"internal_node_id":"0.0-4.0"},{"trial_type":"number-animation","trial_index":5,"time_elapsed":69664,"internal_node_id":"0.0-5.0"},{"phase":0,"sequence":0,"avg":181,"response":183,"trial_type":"training_avg","trial_index":6,"time_elapsed":80566,"internal_node_id":"0.0-6.0"},{"trial_type":"number-animation","trial_index":7,"time_elapsed":88482,"internal_node_id":"0.0-7.0"},{"phase":0,"sequence":1,"avg":188,"response":193,"trial_type":"training_avg","trial_index":8,"time_elapsed":97339,"internal_node_id":"0.0-8.0"},{"trial_type":"number-animation","trial_index":9,"time_elapsed":104708,"internal_node_id":"0.0-9.0"},{"phase":0,"sequence":2,"avg":188,"response":189,"trial_type":"training_avg","trial_index":10,"time_elapsed":111370,"internal_node_id":"0.0-10.0"},{"trial_type":"number-animation","trial_index":11,"time_elapsed":118190,"internal_node_id":"0.0-11.0"},{"phase":0,"sequence":3,"avg":177,"response":166,"trial_type":"training_avg","trial_index":12,"time_elapsed":123735,"internal_node_id":"0.0-12.0"},{"trial_type":"number-animation","trial_index":13,"time_elapsed":130617,"internal_node_id":"0.0-13.0"},{"phase":0,"sequence":4,"avg":182,"response":182,"trial_type":"training_avg","trial_index":14,"time_elapsed":137007,"internal_node_id":"0.0-14.0"},{"responses":[{"value":0,"offby":-1,"category":"$115 - $130","category_index":0},{"value":7,"offby":2,"category":"$131 - $145","category_index":1},{"value":28,"offby":16,"category":"$146 - $160","category_index":2},{"value":37,"offby":15,"category":"$161 - $175","category_index":3},{"value":26,"offby":-8,"category":"$176 - $190","category_index":4},{"value":2,"offby":-13,"category":"$191 - $205","category_index":5},{"value":0,"offby":-11,"category":"$206 - $220","category_index":6}],"phase":0,"number":0,"trial_type":"bar-choose","trial_index":15,"time_elapsed":182586,"internal_node_id":"0.0-15.0"},{"rt":15079,"url":"\/christiane\/tickets\/utils\/testing.html","trial_type":"html","trial_index":16,"time_elapsed":198816,"internal_node_id":"0.0-16.0"},{"phase":0,"order":[26,10,42,2,12,25,37,6,21,38,18,39,22,16,41,23,43,7,15,47,5,13,48,36,1,46,9,19,31,44,33,29,30,35,27,45,34,17,14,3,32,28,0,49,4,40,24,20,8,11],"trial_type":"store_order","trial_index":17,"time_elapsed":199821,"internal_node_id":"0.0-17.0"},{"result":165,"points":2,"place":1,"phase":0,"sequence":-1,"prices":[184,180,224,165,181,199,185,193,218,146],"times":[2801,2053,785,1382],"next_num":4,"trial_type":"ticket-choose","trial_index":18,"time_elapsed":210318,"internal_node_id":"0.0-18.0"},{"rt":19964,"url":"\/christiane\/tickets\/utils\/testing_after.html","trial_type":"html","trial_index":19,"time_elapsed":231403,"internal_node_id":"0.0-19.0"},{"result":158,"points":3,"place":0,"phase":0,"sequence":0,"prices":[214,184,226,192,215,158,199,175,176,208],"times":[1686,1343,868,1059,1063,1177],"next_num":6,"trial_type":"ticket-choose","trial_index":20,"time_elapsed":242461,"internal_node_id":"0.0-20.0"},{"result":173,"points":1,"place":4,"phase":0,"sequence":1,"prices":[173,163,185,181,166,148,160,185,176,184],"times":[3006],"next_num":1,"trial_type":"ticket-choose","trial_index":21,"time_elapsed":248389,"internal_node_id":"0.0-21.0"},{"result":163,"points":2,"place":1,"phase":0,"sequence":2,"prices":[163,175,187,209,176,180,188,165,154,208],"times":[1852],"next_num":1,"trial_type":"ticket-choose","trial_index":22,"time_elapsed":252623,"internal_node_id":"0.0-22.0"},{"result":152,"points":3,"place":0,"phase":0,"sequence":3,"prices":[200,180,203,152,175,170,160,154,176,191],"times":[961,1107,715,1164],"next_num":4,"trial_type":"ticket-choose","trial_index":23,"time_elapsed":259464,"internal_node_id":"0.0-23.0"},{"result":174,"points":1,"place":3,"phase":0,"sequence":4,"prices":[177,174,186,217,165,181,187,166,153,209],"times":[2023,1362],"next_num":2,"trial_type":"ticket-choose","trial_index":24,"time_elapsed":265705,"internal_node_id":"0.0-24.0"},{"result":155,"points":2,"place":1,"phase":0,"sequence":5,"prices":[200,207,155,158,156,168,167,135,178,177],"times":[1788,641,1125],"next_num":3,"trial_type":"ticket-choose","trial_index":25,"time_elapsed":271877,"internal_node_id":"0.0-25.0"},{"result":158,"points":2,"place":1,"phase":0,"sequence":6,"prices":[158,175,186,209,177,181,188,167,208,154],"times":[1776],"next_num":1,"trial_type":"ticket-choose","trial_index":26,"time_elapsed":275919,"internal_node_id":"0.0-26.0"},{"result":165,"points":2,"place":1,"phase":0,"sequence":7,"prices":[187,201,165,172,196,174,178,154,172,180],"times":[1468,770,1100],"next_num":3,"trial_type":"ticket-choose","trial_index":27,"time_elapsed":281865,"internal_node_id":"0.0-27.0"},{"result":169,"points":3,"place":0,"phase":0,"sequence":8,"prices":[220,173,201,197,169,205,198,183,178,186],"times":[1212,1432,916,931,1152],"next_num":5,"trial_type":"ticket-choose","trial_index":28,"time_elapsed":291282,"internal_node_id":"0.0-28.0"},{"result":174,"points":1,"place":3,"phase":0,"sequence":9,"prices":[178,174,186,217,167,181,188,168,208,156],"times":[3430,1083],"next_num":2,"trial_type":"ticket-choose","trial_index":29,"time_elapsed":298215,"internal_node_id":"0.0-29.0"},{"result":163,"points":2,"place":1,"phase":0,"sequence":10,"prices":[163,174,186,212,176,181,187,166,153,209],"times":[1830],"next_num":1,"trial_type":"ticket-choose","trial_index":30,"time_elapsed":302098,"internal_node_id":"0.0-30.0"},{"result":178,"points":1,"place":4,"phase":0,"sequence":11,"prices":[178,175,186,212,167,179,187,169,209,153],"times":[1559],"next_num":1,"trial_type":"ticket-choose","trial_index":31,"time_elapsed":305936,"internal_node_id":"0.0-31.0"},{"result":158,"points":2,"place":1,"phase":0,"sequence":12,"prices":[158,176,187,210,177,181,187,165,208,153],"times":[1429],"next_num":1,"trial_type":"ticket-choose","trial_index":32,"time_elapsed":309393,"internal_node_id":"0.0-32.0"},{"result":158,"points":2,"place":1,"phase":0,"sequence":13,"prices":[158,175,186,211,177,180,187,166,209,153],"times":[1369],"next_num":1,"trial_type":"ticket-choose","trial_index":33,"time_elapsed":313146,"internal_node_id":"0.0-33.0"},{"result":165,"points":2,"place":1,"phase":0,"sequence":14,"prices":[165,175,186,214,177,179,187,166,153,208],"times":[1207],"next_num":1,"trial_type":"ticket-choose","trial_index":34,"time_elapsed":316573,"internal_node_id":"0.0-34.0"},{"result":165,"points":2,"place":1,"phase":0,"sequence":15,"prices":[177,175,187,209,165,180,188,165,154,208],"times":[1282,1621,750,777,1073],"next_num":5,"trial_type":"ticket-choose","trial_index":35,"time_elapsed":325348,"internal_node_id":"0.0-35.0"},{"result":167,"points":1,"place":2,"phase":0,"sequence":16,"prices":[167,153,172,185,195,143,184,211,177,227],"times":[1949],"next_num":1,"trial_type":"ticket-choose","trial_index":36,"time_elapsed":329604,"internal_node_id":"0.0-36.0"},{"result":163,"points":3,"place":0,"phase":0,"sequence":17,"prices":[163,199,196,199,185,195,227,163,177,166],"times":[1494],"next_num":1,"trial_type":"ticket-choose","trial_index":37,"time_elapsed":333221,"internal_node_id":"0.0-37.0"},{"result":176,"points":1,"place":3,"phase":0,"sequence":18,"prices":[176,186,178,217,163,181,187,166,153,209],"times":[2108],"next_num":1,"trial_type":"ticket-choose","trial_index":38,"time_elapsed":337447,"internal_node_id":"0.0-38.0"},{"result":174,"points":1,"place":2,"phase":0,"sequence":19,"prices":[193,174,224,165,187,190,224,161,194,195],"times":[1233,1051],"next_num":2,"trial_type":"ticket-choose","trial_index":39,"time_elapsed":342214,"internal_node_id":"0.0-39.0"},{"result":179,"points":1,"place":4,"phase":0,"sequence":20,"prices":[201,204,179,166,185,165,214,156,202,165],"times":[1117,674,1090],"next_num":3,"trial_type":"ticket-choose","trial_index":40,"time_elapsed":347665,"internal_node_id":"0.0-40.0"},{"result":157,"points":3,"place":0,"phase":0,"sequence":21,"prices":[201,187,157,184,198,179,188,185,178,170],"times":[1178,833,1500],"next_num":3,"trial_type":"ticket-choose","trial_index":41,"time_elapsed":353769,"internal_node_id":"0.0-41.0"},{"result":175,"points":1,"place":3,"phase":0,"sequence":22,"prices":[177,175,186,221,158,180,187,166,209,153],"times":[1450,1128],"next_num":2,"trial_type":"ticket-choose","trial_index":42,"time_elapsed":358622,"internal_node_id":"0.0-42.0"},{"result":172,"points":1,"place":3,"phase":0,"sequence":23,"prices":[192,172,171,178,188,165,217,168,195,197],"times":[1622,993],"next_num":2,"trial_type":"ticket-choose","trial_index":43,"time_elapsed":363555,"internal_node_id":"0.0-43.0"},{"result":171,"points":0,"place":6,"phase":0,"sequence":24,"prices":[171,169,186,165,163,167,220,148,187,165],"times":[1199],"next_num":1,"trial_type":"ticket-choose","trial_index":44,"time_elapsed":366921,"internal_node_id":"0.0-44.0"},{"result":175,"points":1,"place":3,"phase":0,"sequence":25,"prices":[178,175,185,215,167,181,186,168,208,156],"times":[997,1887],"next_num":2,"trial_type":"ticket-choose","trial_index":45,"time_elapsed":372158,"internal_node_id":"0.0-45.0"},{"result":176,"points":1,"place":3,"phase":0,"sequence":26,"prices":[176,187,179,209,163,180,188,165,154,208],"times":[1515],"next_num":1,"trial_type":"ticket-choose","trial_index":46,"time_elapsed":375918,"internal_node_id":"0.0-46.0"},{"result":177,"points":1,"place":4,"phase":0,"sequence":27,"prices":[177,175,186,209,158,181,188,167,208,154],"times":[1246],"next_num":1,"trial_type":"ticket-choose","trial_index":47,"time_elapsed":379254,"internal_node_id":"0.0-47.0"},{"result":177,"points":1,"place":4,"phase":0,"sequence":28,"prices":[177,175,186,210,165,179,187,166,153,208],"times":[1376],"next_num":1,"trial_type":"ticket-choose","trial_index":48,"time_elapsed":382948,"internal_node_id":"0.0-48.0"},{"result":174,"points":1,"place":3,"phase":0,"sequence":29,"prices":[199,191,188,174,167,193,189,164,176,170],"times":[993,741,866,985],"next_num":4,"trial_type":"ticket-choose","trial_index":49,"time_elapsed":389425,"internal_node_id":"0.0-49.0"},{"result":169,"points":1,"place":3,"phase":0,"sequence":30,"prices":[199,193,169,165,202,182,151,164,176,171],"times":[1037,652,1073],"next_num":3,"trial_type":"ticket-choose","trial_index":50,"time_elapsed":394649,"internal_node_id":"0.0-50.0"},{"result":179,"points":1,"place":4,"phase":0,"sequence":31,"prices":[183,179,188,165,168,173,205,159,187,191],"times":[1415,1040],"next_num":2,"trial_type":"ticket-choose","trial_index":51,"time_elapsed":399354,"internal_node_id":"0.0-51.0"},{"result":170,"points":1,"place":2,"phase":0,"sequence":32,"prices":[191,170,182,165,175,182,203,157,195,200],"times":[1156,1270],"next_num":2,"trial_type":"ticket-choose","trial_index":52,"time_elapsed":403934,"internal_node_id":"0.0-52.0"},{"result":173,"points":1,"place":4,"phase":0,"sequence":33,"prices":[200,173,182,169,207,165,152,202,161,204],"times":[1697,1085],"next_num":2,"trial_type":"ticket-choose","trial_index":53,"time_elapsed":409121,"internal_node_id":"0.0-53.0"},{"result":167,"points":2,"place":1,"phase":0,"sequence":34,"prices":[167,175,185,224,178,181,186,168,208,156],"times":[994],"next_num":1,"trial_type":"ticket-choose","trial_index":54,"time_elapsed":412221,"internal_node_id":"0.0-54.0"},{"result":177,"points":1,"place":4,"phase":0,"sequence":35,"prices":[177,176,187,225,158,181,187,165,208,153],"times":[1558],"next_num":1,"trial_type":"ticket-choose","trial_index":55,"time_elapsed":415753,"internal_node_id":"0.0-55.0"},{"result":176,"points":1,"place":4,"phase":0,"sequence":36,"prices":[176,175,186,210,163,179,187,166,153,208],"times":[1135],"next_num":1,"trial_type":"ticket-choose","trial_index":56,"time_elapsed":419031,"internal_node_id":"0.0-56.0"},{"result":169,"points":2,"place":1,"phase":0,"sequence":37,"prices":[181,214,169,147,182,193,178,184,176,179],"times":[1429,679,1056],"next_num":3,"trial_type":"ticket-choose","trial_index":57,"time_elapsed":424569,"internal_node_id":"0.0-57.0"},{"result":165,"points":2,"place":1,"phase":0,"sequence":38,"prices":[165,174,186,212,177,181,187,166,153,209],"times":[1333],"next_num":1,"trial_type":"ticket-choose","trial_index":58,"time_elapsed":428176,"internal_node_id":"0.0-58.0"},{"result":175,"points":2,"place":1,"phase":0,"sequence":39,"prices":[193,181,175,181,185,165,224,199,218,184],"times":[1127,808,1009],"next_num":3,"trial_type":"ticket-choose","trial_index":59,"time_elapsed":433448,"internal_node_id":"0.0-59.0"},{"result":167,"points":2,"place":1,"phase":0,"sequence":40,"prices":[167,175,186,225,178,179,187,169,209,153],"times":[1124],"next_num":1,"trial_type":"ticket-choose","trial_index":60,"time_elapsed":436649,"internal_node_id":"0.0-60.0"},{"result":150,"points":3,"place":0,"phase":0,"sequence":41,"prices":[190,150,175,161,188,207,157,194,178,199],"times":[1041,836],"next_num":2,"trial_type":"ticket-choose","trial_index":61,"time_elapsed":440782,"internal_node_id":"0.0-61.0"},{"result":167,"points":2,"place":1,"phase":0,"sequence":42,"prices":[167,174,186,211,178,181,188,168,208,156],"times":[1368],"next_num":1,"trial_type":"ticket-choose","trial_index":62,"time_elapsed":444303,"internal_node_id":"0.0-62.0"},{"result":179,"points":0,"place":5,"phase":0,"sequence":43,"prices":[185,179,191,165,161,173,199,150,188,168],"times":[1275,969],"next_num":2,"trial_type":"ticket-choose","trial_index":63,"time_elapsed":448684,"internal_node_id":"0.0-63.0"},{"result":165,"points":2,"place":1,"phase":0,"sequence":44,"prices":[165,175,187,209,177,180,188,167,154,208],"times":[997],"next_num":1,"trial_type":"ticket-choose","trial_index":64,"time_elapsed":451671,"internal_node_id":"0.0-64.0"},{"result":159,"points":1,"place":2,"phase":0,"sequence":45,"prices":[181,159,149,175,185,151,163,174,178,207],"times":[1317,932],"next_num":2,"trial_type":"ticket-choose","trial_index":65,"time_elapsed":456264,"internal_node_id":"0.0-65.0"},{"result":156,"points":2,"place":1,"phase":0,"sequence":46,"prices":[180,156,149,160,168,186,172,198,176,195],"times":[1154,936],"next_num":2,"trial_type":"ticket-choose","trial_index":66,"time_elapsed":460570,"internal_node_id":"0.0-66.0"},{"result":165,"points":3,"place":0,"phase":0,"sequence":47,"prices":[189,167,180,197,165,168,172,213,178,171],"times":[1138,927,702,723,1033],"next_num":5,"trial_type":"ticket-choose","trial_index":67,"time_elapsed":468035,"internal_node_id":"0.0-67.0"},{"result":163,"points":2,"place":1,"phase":0,"sequence":48,"prices":[163,175,186,214,176,179,187,166,153,208],"times":[1401],"next_num":1,"trial_type":"ticket-choose","trial_index":68,"time_elapsed":471646,"internal_node_id":"0.0-68.0"},{"result":165,"points":3,"place":0,"phase":0,"sequence":49,"prices":[196,171,170,184,187,165,211,169,201,202],"times":[1350,1145,691,727,701,1036],"next_num":6,"trial_type":"ticket-choose","trial_index":69,"time_elapsed":480720,"internal_node_id":"0.0-69.0"},{"responses":[{"value":0,"offby":-1,"category":"$115 - $130","category_index":0},{"value":0,"offby":-5,"category":"$131 - $145","category_index":1},{"value":17,"offby":5,"category":"$146 - $160","category_index":2},{"value":28,"offby":6,"category":"$161 - $175","category_index":3},{"value":33,"offby":-1,"category":"$176 - $190","category_index":4},{"value":17,"offby":2,"category":"$191 - $205","category_index":5},{"value":5,"offby":-6,"category":"$206 - $220","category_index":6}],"phase":1,"number":1,"trial_type":"bar-choose","trial_index":70,"time_elapsed":509243,"internal_node_id":"0.0-70.0"},{"rt":12868,"url":"\/christiane\/tickets\/utils\/testing2.html","trial_type":"point_update","trial_index":71,"time_elapsed":523389,"internal_node_id":"0.0-71.0"},{"phase":1,"order":[46,49,13,47,11,41,19,36,42,3,14,5,20,18,6,10,35,38,17,32,25,43,21,27,31,4,16,22,9,45,37,33,30,26,1,23,15,48,8,24,2,40,0,29,7,44,34,39,12,28],"trial_type":"store_order","trial_index":72,"time_elapsed":524395,"internal_node_id":"0.0-72.0"},{"result":165,"points":2,"place":1,"phase":1,"sequence":0,"prices":[200,165,165,173,182,207,161,202,204,180],"times":[1552,2276],"next_num":2,"trial_type":"ticket-choose","trial_index":73,"time_elapsed":530583,"internal_node_id":"0.0-73.0"},{"result":175,"points":1,"place":3,"phase":1,"sequence":1,"prices":[175,187,177,209,180,188,165,165,154,208],"times":[1274],"next_num":1,"trial_type":"ticket-choose","trial_index":74,"time_elapsed":533881,"internal_node_id":"0.0-74.0"},{"result":173,"points":2,"place":1,"phase":1,"sequence":2,"prices":[222,173,202,197,143,205,198,183,178,186],"times":[1784,1090],"next_num":2,"trial_type":"ticket-choose","trial_index":75,"time_elapsed":539013,"internal_node_id":"0.0-75.0"},{"result":175,"points":1,"place":3,"phase":1,"sequence":3,"prices":[175,186,167,225,179,187,178,169,209,153],"times":[1035],"next_num":1,"trial_type":"ticket-choose","trial_index":76,"time_elapsed":542165,"internal_node_id":"0.0-76.0"},{"result":175,"points":1,"place":3,"phase":1,"sequence":4,"prices":[175,186,163,214,179,187,176,166,153,208],"times":[1538],"next_num":1,"trial_type":"ticket-choose","trial_index":77,"time_elapsed":545897,"internal_node_id":"0.0-77.0"},{"result":165,"points":2,"place":1,"phase":1,"sequence":5,"prices":[201,165,162,166,185,214,165,202,204,179],"times":[1151,992],"next_num":2,"trial_type":"ticket-choose","trial_index":78,"time_elapsed":550367,"internal_node_id":"0.0-78.0"},{"result":163,"points":2,"place":1,"phase":1,"sequence":6,"prices":[198,193,169,163,202,182,152,164,177,171],"times":[1158,694,822,938],"next_num":4,"trial_type":"ticket-choose","trial_index":79,"time_elapsed":556618,"internal_node_id":"0.0-79.0"},{"result":165,"points":2,"place":1,"phase":1,"sequence":7,"prices":[175,186,165,214,179,187,177,166,153,208],"times":[1107,593,996],"next_num":3,"trial_type":"ticket-choose","trial_index":80,"time_elapsed":561861,"internal_node_id":"0.0-80.0"},{"result":158,"points":2,"place":1,"phase":1,"sequence":8,"prices":[175,186,177,221,180,187,158,166,209,153],"times":[1217,623,584,679,672,648,1092],"next_num":7,"trial_type":"ticket-choose","trial_index":81,"time_elapsed":570816,"internal_node_id":"0.0-81.0"},{"result":168,"points":1,"place":2,"phase":1,"sequence":9,"prices":[168,199,196,198,185,195,227,163,177,166],"times":[1265],"next_num":1,"trial_type":"ticket-choose","trial_index":82,"time_elapsed":574073,"internal_node_id":"0.0-82.0"},{"result":175,"points":1,"place":3,"phase":1,"sequence":10,"prices":[175,186,158,211,180,187,177,166,209,153],"times":[1193],"next_num":1,"trial_type":"ticket-choose","trial_index":83,"time_elapsed":577353,"internal_node_id":"0.0-83.0"},{"result":167,"points":2,"place":1,"phase":1,"sequence":11,"prices":[189,167,180,197,165,168,172,213,178,171],"times":[1301,1657],"next_num":2,"trial_type":"ticket-choose","trial_index":84,"time_elapsed":582635,"internal_node_id":"0.0-84.0"},{"result":175,"points":1,"place":3,"phase":1,"sequence":12,"prices":[175,186,177,209,181,188,158,167,208,154],"times":[2170],"next_num":1,"trial_type":"ticket-choose","trial_index":85,"time_elapsed":586939,"internal_node_id":"0.0-85.0"},{"result":163,"points":2,"place":1,"phase":1,"sequence":13,"prices":[175,187,176,209,180,188,163,165,154,208],"times":[17559,614,1413,2129,742,616,1135],"next_num":7,"trial_type":"ticket-choose","trial_index":86,"time_elapsed":614664,"internal_node_id":"0.0-86.0"},{"result":155,"points":2,"place":1,"phase":1,"sequence":14,"prices":[201,207,155,158,156,165,167,135,178,177],"times":[1832,1137,998],"next_num":3,"trial_type":"ticket-choose","trial_index":87,"time_elapsed":621284,"internal_node_id":"0.0-87.0"},{"result":158,"points":2,"place":1,"phase":1,"sequence":15,"prices":[176,187,177,225,181,187,158,165,208,153],"times":[3331,681,789,573,725,627,1066],"next_num":7,"trial_type":"ticket-choose","trial_index":88,"time_elapsed":632721,"internal_node_id":"0.0-88.0"},{"result":157,"points":3,"place":0,"phase":1,"sequence":16,"prices":[201,187,157,184,198,179,188,185,178,170],"times":[2772,731,1068],"next_num":3,"trial_type":"ticket-choose","trial_index":89,"time_elapsed":640135,"internal_node_id":"0.0-89.0"},{"result":175,"points":1,"place":3,"phase":1,"sequence":17,"prices":[175,187,165,209,180,188,177,166,154,208],"times":[1452],"next_num":1,"trial_type":"ticket-choose","trial_index":90,"time_elapsed":643606,"internal_node_id":"0.0-90.0"},{"result":175,"points":1,"place":3,"phase":1,"sequence":18,"prices":[175,186,176,210,179,187,163,166,153,208],"times":[2586],"next_num":1,"trial_type":"ticket-choose","trial_index":91,"time_elapsed":648207,"internal_node_id":"0.0-91.0"},{"result":152,"points":3,"place":0,"phase":1,"sequence":19,"prices":[200,181,203,152,175,171,160,154,176,191],"times":[1234,713,850,1139],"next_num":4,"trial_type":"ticket-choose","trial_index":92,"time_elapsed":655211,"internal_node_id":"0.0-92.0"},{"result":175,"points":1,"place":3,"phase":1,"sequence":20,"prices":[175,186,178,212,179,187,167,169,209,153],"times":[1050],"next_num":1,"trial_type":"ticket-choose","trial_index":93,"time_elapsed":658493,"internal_node_id":"0.0-93.0"},{"result":175,"points":1,"place":3,"phase":1,"sequence":21,"prices":[175,187,163,209,180,188,176,165,154,208],"times":[1128],"next_num":1,"trial_type":"ticket-choose","trial_index":94,"time_elapsed":661560,"internal_node_id":"0.0-94.0"},{"result":169,"points":2,"place":1,"phase":1,"sequence":22,"prices":[181,215,169,147,182,193,177,184,176,179],"times":[3553,727,1137],"next_num":3,"trial_type":"ticket-choose","trial_index":95,"time_elapsed":669438,"internal_node_id":"0.0-95.0"},{"result":165,"points":2,"place":1,"phase":1,"sequence":23,"prices":[188,200,165,172,198,174,177,154,177,180],"times":[1304,714,919],"next_num":3,"trial_type":"ticket-choose","trial_index":96,"time_elapsed":674888,"internal_node_id":"0.0-96.0"},{"result":167,"points":2,"place":1,"phase":1,"sequence":24,"prices":[175,185,167,224,181,186,178,168,208,156],"times":[1258,649,1044],"next_num":3,"trial_type":"ticket-choose","trial_index":97,"time_elapsed":680488,"internal_node_id":"0.0-97.0"},{"result":158,"points":3,"place":0,"phase":1,"sequence":25,"prices":[210,184,226,193,215,158,199,175,176,208],"times":[1232,654,752,742,797,928],"next_num":6,"trial_type":"ticket-choose","trial_index":98,"time_elapsed":688894,"internal_node_id":"0.0-98.0"},{"result":175,"points":1,"place":3,"phase":1,"sequence":26,"prices":[175,186,177,210,179,187,165,166,153,208],"times":[1495],"next_num":1,"trial_type":"ticket-choose","trial_index":99,"time_elapsed":692325,"internal_node_id":"0.0-99.0"},{"result":175,"points":1,"place":3,"phase":1,"sequence":27,"prices":[175,186,158,209,181,188,177,167,208,154],"times":[1117],"next_num":1,"trial_type":"ticket-choose","trial_index":100,"time_elapsed":695530,"internal_node_id":"0.0-100.0"},{"result":171,"points":1,"place":4,"phase":1,"sequence":28,"prices":[171,203,175,170,167,220,192,186,165,165],"times":[1306],"next_num":1,"trial_type":"ticket-choose","trial_index":101,"time_elapsed":698878,"internal_node_id":"0.0-101.0"},{"result":159,"points":1,"place":2,"phase":1,"sequence":29,"prices":[180,159,149,175,185,141,163,174,178,207],"times":[1091,1027],"next_num":2,"trial_type":"ticket-choose","trial_index":102,"time_elapsed":703410,"internal_node_id":"0.0-102.0"},{"result":168,"points":1,"place":2,"phase":1,"sequence":30,"prices":[183,182,192,168,173,205,167,187,165,170],"times":[1723,705,753,974],"next_num":4,"trial_type":"ticket-choose","trial_index":103,"time_elapsed":710300,"internal_node_id":"0.0-103.0"},{"result":170,"points":1,"place":2,"phase":1,"sequence":31,"prices":[185,170,182,201,173,199,171,188,165,168],"times":[1200,1014],"next_num":2,"trial_type":"ticket-choose","trial_index":104,"time_elapsed":714824,"internal_node_id":"0.0-104.0"},{"result":172,"points":1,"place":3,"phase":1,"sequence":32,"prices":[191,172,169,175,182,203,170,195,165,176],"times":[1084,997],"next_num":2,"trial_type":"ticket-choose","trial_index":105,"time_elapsed":719252,"internal_node_id":"0.0-105.0"},{"result":168,"points":1,"place":2,"phase":1,"sequence":33,"prices":[168,154,172,185,195,144,184,211,177,227],"times":[1186],"next_num":1,"trial_type":"ticket-choose","trial_index":106,"time_elapsed":722429,"internal_node_id":"0.0-106.0"},{"result":165,"points":3,"place":0,"phase":1,"sequence":34,"prices":[192,165,171,178,188,217,172,195,197,186],"times":[1260,1086],"next_num":2,"trial_type":"ticket-choose","trial_index":107,"time_elapsed":727055,"internal_node_id":"0.0-107.0"},{"result":167,"points":2,"place":1,"phase":1,"sequence":35,"prices":[212,192,188,184,167,193,189,164,176,170],"times":[1116,1088,635,635,951],"next_num":5,"trial_type":"ticket-choose","trial_index":108,"time_elapsed":734407,"internal_node_id":"0.0-108.0"},{"result":155,"points":2,"place":1,"phase":1,"sequence":36,"prices":[181,155,148,161,168,187,172,199,176,194],"times":[1260,1049],"next_num":2,"trial_type":"ticket-choose","trial_index":109,"time_elapsed":739141,"internal_node_id":"0.0-109.0"},{"result":166,"points":1,"place":2,"phase":1,"sequence":37,"prices":[174,186,176,217,181,187,163,166,153,209],"times":[1226,712,657,650,752,649,812,1093],"next_num":8,"trial_type":"ticket-choose","trial_index":110,"time_elapsed":749240,"internal_node_id":"0.0-110.0"},{"result":174,"points":1,"place":3,"phase":1,"sequence":38,"prices":[174,186,163,212,181,187,176,166,153,209],"times":[1316],"next_num":1,"trial_type":"ticket-choose","trial_index":111,"time_elapsed":752742,"internal_node_id":"0.0-111.0"},{"result":174,"points":1,"place":3,"phase":1,"sequence":39,"prices":[174,186,178,217,181,188,167,168,208,156],"times":[1214],"next_num":1,"trial_type":"ticket-choose","trial_index":112,"time_elapsed":756157,"internal_node_id":"0.0-112.0"},{"result":169,"points":2,"place":1,"phase":1,"sequence":40,"prices":[193,169,171,187,190,224,174,194,165,188],"times":[1049,938],"next_num":2,"trial_type":"ticket-choose","trial_index":113,"time_elapsed":760273,"internal_node_id":"0.0-113.0"},{"result":165,"points":3,"place":0,"phase":1,"sequence":41,"prices":[196,165,170,184,187,211,171,201,202,185],"times":[1052,936],"next_num":2,"trial_type":"ticket-choose","trial_index":114,"time_elapsed":764582,"internal_node_id":"0.0-114.0"},{"result":174,"points":1,"place":3,"phase":1,"sequence":42,"prices":[174,186,167,211,181,188,178,168,208,156],"times":[1292],"next_num":1,"trial_type":"ticket-choose","trial_index":115,"time_elapsed":767796,"internal_node_id":"0.0-115.0"},{"result":163,"points":1,"place":2,"phase":1,"sequence":43,"prices":[183,163,185,180,166,148,160,186,176,184],"times":[911,877],"next_num":2,"trial_type":"ticket-choose","trial_index":116,"time_elapsed":771877,"internal_node_id":"0.0-116.0"},{"result":175,"points":1,"place":3,"phase":1,"sequence":44,"prices":[175,185,178,215,181,186,167,168,208,156],"times":[1192],"next_num":1,"trial_type":"ticket-choose","trial_index":117,"time_elapsed":775167,"internal_node_id":"0.0-117.0"},{"result":150,"points":3,"place":0,"phase":1,"sequence":45,"prices":[189,150,175,160,188,207,158,194,178,199],"times":[1116,877],"next_num":2,"trial_type":"ticket-choose","trial_index":118,"time_elapsed":779498,"internal_node_id":"0.0-118.0"},{"result":165,"points":3,"place":0,"phase":1,"sequence":46,"prices":[193,165,175,181,185,224,180,199,218,184],"times":[992,848],"next_num":2,"trial_type":"ticket-choose","trial_index":119,"time_elapsed":783546,"internal_node_id":"0.0-119.0"},{"result":176,"points":1,"place":3,"phase":1,"sequence":47,"prices":[176,187,158,210,181,187,177,165,208,153],"times":[977],"next_num":1,"trial_type":"ticket-choose","trial_index":120,"time_elapsed":786422,"internal_node_id":"0.0-120.0"},{"result":174,"points":1,"place":3,"phase":1,"sequence":48,"prices":[174,186,165,212,181,187,177,167,153,209],"times":[1096],"next_num":1,"trial_type":"ticket-choose","trial_index":121,"time_elapsed":789322,"internal_node_id":"0.0-121.0"},{"result":174,"points":1,"place":3,"phase":1,"sequence":49,"prices":[174,186,177,217,181,187,165,166,153,209],"times":[861],"next_num":1,"trial_type":"ticket-choose","trial_index":122,"time_elapsed":792144,"internal_node_id":"0.0-122.0"},{"responses":[{"value":0,"offby":-1,"category":"$115 - $130","category_index":0},{"value":4,"offby":-1,"category":"$131 - $145","category_index":1},{"value":22,"offby":10,"category":"$146 - $160","category_index":2},{"value":32,"offby":10,"category":"$161 - $175","category_index":3},{"value":18,"offby":-16,"category":"$176 - $190","category_index":4},{"value":13,"offby":-2,"category":"$191 - $205","category_index":5},{"value":11,"offby":0,"category":"$206 - $220","category_index":6}],"phase":1,"number":1,"trial_type":"bar-choose","trial_index":123,"time_elapsed":814440,"internal_node_id":"0.0-123.0"},{"special_comment":"no","trial_type":"special_sequence","trial_index":124,"time_elapsed":819029,"internal_node_id":"0.0-124.0"},{"during":"Nothing","bonus":216,"trial_type":"final","trial_index":125,"time_elapsed":839313,"internal_node_id":"0.0-125.0"}],"bonus":216}