{"start_time":"2017-05-24 15:46:41","end_time":"2017-05-24 16:09:19","points_phase0":101,"points_phase1":107,"phase_order":1,"age":36,"gender":"f","tries":1,"during":"Nothing","worker_id":"A16SJ5D3DKUEXJ","assignment_id":"3M23Y66PO30ON2GZDRCSHWW2ZU36SF","data":[{"rt":47941,"url":"\/christiane\/tickets\/utils\/consent.html","trial_type":"html","trial_index":0,"time_elapsed":48121,"internal_node_id":"0.0-0.0"},{"age":36,"gender":"f","trial_type":"age","trial_index":1,"time_elapsed":53565,"internal_node_id":"0.0-1.0"},{"worker_id":"A16SJ5D3DKUEXJ","trial_type":"workerid","trial_index":2,"time_elapsed":59157,"internal_node_id":"0.0-2.0"},{"tries":1,"trial_type":"instructions_check","trial_index":3,"time_elapsed":91707,"internal_node_id":"0.0-3.0"},{"rt":22661,"url":"\/christiane\/tickets\/utils\/start.html","trial_type":"html","trial_index":4,"time_elapsed":116356,"internal_node_id":"0.0-4.0"},{"trial_type":"number-animation","trial_index":5,"time_elapsed":147182,"internal_node_id":"0.0-5.0"},{"phase":0,"sequence":0,"avg":181,"response":173,"trial_type":"training_avg","trial_index":6,"time_elapsed":165004,"internal_node_id":"0.0-6.0"},{"trial_type":"number-animation","trial_index":7,"time_elapsed":194145,"internal_node_id":"0.0-7.0"},{"phase":0,"sequence":1,"avg":188,"response":180,"trial_type":"training_avg","trial_index":8,"time_elapsed":203871,"internal_node_id":"0.0-8.0"},{"trial_type":"number-animation","trial_index":9,"time_elapsed":230381,"internal_node_id":"0.0-9.0"},{"phase":0,"sequence":2,"avg":188,"response":190,"trial_type":"training_avg","trial_index":10,"time_elapsed":239614,"internal_node_id":"0.0-10.0"},{"trial_type":"number-animation","trial_index":11,"time_elapsed":260239,"internal_node_id":"0.0-11.0"},{"phase":0,"sequence":3,"avg":177,"response":171,"trial_type":"training_avg","trial_index":12,"time_elapsed":267693,"internal_node_id":"0.0-12.0"},{"trial_type":"number-animation","trial_index":13,"time_elapsed":290240,"internal_node_id":"0.0-13.0"},{"phase":0,"sequence":4,"avg":182,"response":181,"trial_type":"training_avg","trial_index":14,"time_elapsed":296879,"internal_node_id":"0.0-14.0"},{"responses":[{"value":1,"offby":0,"category":"$115 - $130","category_index":0},{"value":5,"offby":0,"category":"$131 - $145","category_index":1},{"value":15,"offby":3,"category":"$146 - $160","category_index":2},{"value":21,"offby":-1,"category":"$161 - $175","category_index":3},{"value":27,"offby":-7,"category":"$176 - $190","category_index":4},{"value":21,"offby":6,"category":"$191 - $205","category_index":5},{"value":10,"offby":-1,"category":"$206 - $220","category_index":6}],"phase":0,"number":0,"trial_type":"bar-choose","trial_index":15,"time_elapsed":397520,"internal_node_id":"0.0-15.0"},{"rt":30053,"url":"\/christiane\/tickets\/utils\/testing.html","trial_type":"html","trial_index":16,"time_elapsed":428745,"internal_node_id":"0.0-16.0"},{"phase":0,"order":[3,6,12,17,22,2,38,46,49,4,13,26,10,18,43,1,37,47,41,7,33,45,15,44,16,28,35,14,42,34,30,8,40,9,11,29,48,23,0,39,25,5,19,32,21,27,36,24,20,31],"trial_type":"store_order","trial_index":17,"time_elapsed":429748,"internal_node_id":"0.0-17.0"},{"result":165,"points":2,"place":1,"phase":0,"sequence":-1,"prices":[184,180,224,165,181,199,185,193,218,146],"times":[3771,1466,1118,4329],"next_num":4,"trial_type":"ticket-choose","trial_index":18,"time_elapsed":443673,"internal_node_id":"0.0-18.0"},{"rt":15616,"url":"\/christiane\/tickets\/utils\/testing_after.html","trial_type":"html","trial_index":19,"time_elapsed":460470,"internal_node_id":"0.0-19.0"},{"result":157,"points":3,"place":0,"phase":0,"sequence":0,"prices":[201,187,157,184,198,179,188,185,178,170],"times":[1844,991,2479],"next_num":3,"trial_type":"ticket-choose","trial_index":20,"time_elapsed":469326,"internal_node_id":"0.0-20.0"},{"result":186,"points":1,"place":4,"phase":0,"sequence":1,"prices":[220,173,201,197,169,205,198,183,178,186],"times":[1081,675,811,705,3273,593,616,750,1649,1922],"next_num":10,"trial_type":"ticket-choose","trial_index":21,"time_elapsed":485374,"internal_node_id":"0.0-21.0"},{"result":169,"points":2,"place":1,"phase":0,"sequence":2,"prices":[181,214,169,147,182,193,178,184,176,179],"times":[1166,708,829],"next_num":3,"trial_type":"ticket-choose","trial_index":22,"time_elapsed":490711,"internal_node_id":"0.0-22.0"},{"result":155,"points":2,"place":1,"phase":0,"sequence":3,"prices":[200,207,155,158,156,168,167,135,178,177],"times":[1025,609,923],"next_num":3,"trial_type":"ticket-choose","trial_index":23,"time_elapsed":495844,"internal_node_id":"0.0-23.0"},{"result":167,"points":1,"place":2,"phase":0,"sequence":4,"prices":[167,153,172,185,195,143,184,211,177,227],"times":[2384],"next_num":1,"trial_type":"ticket-choose","trial_index":24,"time_elapsed":500264,"internal_node_id":"0.0-24.0"},{"result":166,"points":1,"place":3,"phase":0,"sequence":5,"prices":[201,204,179,166,185,165,214,156,202,165],"times":[1032,594,656,1022],"next_num":4,"trial_type":"ticket-choose","trial_index":25,"time_elapsed":506717,"internal_node_id":"0.0-25.0"},{"result":165,"points":3,"place":0,"phase":0,"sequence":6,"prices":[189,167,180,197,165,168,172,213,178,171],"times":[1059,2117,601,516,798],"next_num":5,"trial_type":"ticket-choose","trial_index":26,"time_elapsed":515265,"internal_node_id":"0.0-26.0"},{"result":165,"points":1,"place":2,"phase":0,"sequence":7,"prices":[163,175,187,209,176,180,188,165,154,208],"times":[791,501,542,541,795,572,580,806],"next_num":8,"trial_type":"ticket-choose","trial_index":27,"time_elapsed":523827,"internal_node_id":"0.0-27.0"},{"result":163,"points":2,"place":1,"phase":0,"sequence":8,"prices":[176,187,179,209,163,180,188,165,154,208],"times":[1480,592,597,625,899],"next_num":5,"trial_type":"ticket-choose","trial_index":28,"time_elapsed":530983,"internal_node_id":"0.0-28.0"},{"result":167,"points":2,"place":1,"phase":0,"sequence":9,"prices":[178,175,185,215,167,181,186,168,208,156],"times":[1093,1039,562,619,911],"next_num":5,"trial_type":"ticket-choose","trial_index":29,"time_elapsed":538148,"internal_node_id":"0.0-29.0"},{"result":165,"points":2,"place":1,"phase":0,"sequence":10,"prices":[177,174,186,217,165,181,187,166,153,209],"times":[1526,617,600,564,886],"next_num":5,"trial_type":"ticket-choose","trial_index":30,"time_elapsed":545295,"internal_node_id":"0.0-30.0"},{"result":158,"points":2,"place":1,"phase":0,"sequence":11,"prices":[158,175,186,209,177,181,188,167,208,154],"times":[4175],"next_num":1,"trial_type":"ticket-choose","trial_index":31,"time_elapsed":551312,"internal_node_id":"0.0-31.0"},{"result":165,"points":1,"place":2,"phase":0,"sequence":12,"prices":[171,169,186,165,163,167,220,148,187,165],"times":[10341,1039,560,822],"next_num":4,"trial_type":"ticket-choose","trial_index":32,"time_elapsed":566694,"internal_node_id":"0.0-32.0"},{"result":165,"points":3,"place":0,"phase":0,"sequence":13,"prices":[196,171,170,184,187,165,211,169,201,202],"times":[1246,837,575,596,630,1071],"next_num":6,"trial_type":"ticket-choose","trial_index":33,"time_elapsed":574828,"internal_node_id":"0.0-33.0"},{"result":167,"points":2,"place":1,"phase":0,"sequence":14,"prices":[199,191,188,174,167,193,189,164,176,170],"times":[917,650,562,634,966],"next_num":5,"trial_type":"ticket-choose","trial_index":34,"time_elapsed":585571,"internal_node_id":"0.0-34.0"},{"result":158,"points":2,"place":1,"phase":0,"sequence":15,"prices":[158,176,187,210,177,181,187,165,208,153],"times":[1517],"next_num":1,"trial_type":"ticket-choose","trial_index":35,"time_elapsed":588994,"internal_node_id":"0.0-35.0"},{"result":169,"points":1,"place":3,"phase":0,"sequence":16,"prices":[199,193,169,165,202,182,151,164,176,171],"times":[824,603,1445],"next_num":3,"trial_type":"ticket-choose","trial_index":36,"time_elapsed":594227,"internal_node_id":"0.0-36.0"},{"result":165,"points":2,"place":1,"phase":0,"sequence":17,"prices":[177,175,187,209,165,180,188,165,154,208],"times":[2596,511,522,571,881],"next_num":5,"trial_type":"ticket-choose","trial_index":37,"time_elapsed":602125,"internal_node_id":"0.0-37.0"},{"result":165,"points":2,"place":1,"phase":0,"sequence":18,"prices":[165,175,186,214,177,179,187,166,153,208],"times":[1230],"next_num":1,"trial_type":"ticket-choose","trial_index":38,"time_elapsed":605281,"internal_node_id":"0.0-38.0"},{"result":158,"points":2,"place":1,"phase":0,"sequence":19,"prices":[177,175,186,209,158,181,188,167,208,154],"times":[991,540,602,587,818],"next_num":5,"trial_type":"ticket-choose","trial_index":39,"time_elapsed":611540,"internal_node_id":"0.0-39.0"},{"result":163,"points":2,"place":1,"phase":0,"sequence":20,"prices":[176,186,178,217,163,181,187,166,153,209],"times":[932,509,563,548,836],"next_num":5,"trial_type":"ticket-choose","trial_index":40,"time_elapsed":617679,"internal_node_id":"0.0-40.0"},{"result":165,"points":2,"place":1,"phase":0,"sequence":21,"prices":[191,170,182,165,175,182,203,157,195,200],"times":[1402,617,540,846],"next_num":4,"trial_type":"ticket-choose","trial_index":41,"time_elapsed":623602,"internal_node_id":"0.0-41.0"},{"result":163,"points":2,"place":1,"phase":0,"sequence":22,"prices":[163,174,186,212,176,181,187,166,153,209],"times":[1031],"next_num":1,"trial_type":"ticket-choose","trial_index":42,"time_elapsed":626392,"internal_node_id":"0.0-42.0"},{"result":167,"points":2,"place":1,"phase":0,"sequence":23,"prices":[167,175,185,224,178,181,186,168,208,156],"times":[961],"next_num":1,"trial_type":"ticket-choose","trial_index":43,"time_elapsed":629189,"internal_node_id":"0.0-43.0"},{"result":165,"points":3,"place":0,"phase":0,"sequence":24,"prices":[192,172,171,178,188,165,217,168,195,197],"times":[1164,556,522,516,523,916],"next_num":6,"trial_type":"ticket-choose","trial_index":44,"time_elapsed":636476,"internal_node_id":"0.0-44.0"},{"result":165,"points":2,"place":1,"phase":0,"sequence":25,"prices":[165,175,187,209,177,180,188,167,154,208],"times":[912],"next_num":1,"trial_type":"ticket-choose","trial_index":45,"time_elapsed":639595,"internal_node_id":"0.0-45.0"},{"result":158,"points":3,"place":0,"phase":0,"sequence":26,"prices":[214,184,226,192,215,158,199,175,176,208],"times":[1073,539,500,555,600,870],"next_num":6,"trial_type":"ticket-choose","trial_index":46,"time_elapsed":646790,"internal_node_id":"0.0-46.0"},{"result":165,"points":2,"place":1,"phase":0,"sequence":27,"prices":[165,174,186,212,177,181,187,166,153,209],"times":[1113],"next_num":1,"trial_type":"ticket-choose","trial_index":47,"time_elapsed":649719,"internal_node_id":"0.0-47.0"},{"result":152,"points":3,"place":0,"phase":0,"sequence":28,"prices":[200,180,203,152,175,170,160,154,176,191],"times":[1157,813,564,781],"next_num":4,"trial_type":"ticket-choose","trial_index":48,"time_elapsed":655635,"internal_node_id":"0.0-48.0"},{"result":158,"points":2,"place":1,"phase":0,"sequence":29,"prices":[158,175,186,211,177,180,187,166,209,153],"times":[1025],"next_num":1,"trial_type":"ticket-choose","trial_index":49,"time_elapsed":658439,"internal_node_id":"0.0-49.0"},{"result":165,"points":1,"place":2,"phase":0,"sequence":30,"prices":[200,173,182,169,207,165,152,202,161,204],"times":[644,509,573,899,491,798],"next_num":6,"trial_type":"ticket-choose","trial_index":50,"time_elapsed":665235,"internal_node_id":"0.0-50.0"},{"result":163,"points":3,"place":0,"phase":0,"sequence":31,"prices":[163,199,196,199,185,195,227,163,177,166],"times":[1159],"next_num":1,"trial_type":"ticket-choose","trial_index":51,"time_elapsed":668211,"internal_node_id":"0.0-51.0"},{"result":158,"points":2,"place":1,"phase":0,"sequence":32,"prices":[177,175,186,221,158,180,187,166,209,153],"times":[1202,541,563,540,846],"next_num":5,"trial_type":"ticket-choose","trial_index":52,"time_elapsed":674633,"internal_node_id":"0.0-52.0"},{"result":167,"points":2,"place":1,"phase":0,"sequence":33,"prices":[167,174,186,211,178,181,188,168,208,156],"times":[1073],"next_num":1,"trial_type":"ticket-choose","trial_index":53,"time_elapsed":677541,"internal_node_id":"0.0-53.0"},{"result":165,"points":2,"place":1,"phase":0,"sequence":34,"prices":[183,179,188,165,168,173,205,159,187,191],"times":[665,484,549,858],"next_num":4,"trial_type":"ticket-choose","trial_index":54,"time_elapsed":682665,"internal_node_id":"0.0-54.0"},{"result":167,"points":2,"place":1,"phase":0,"sequence":35,"prices":[178,175,186,212,167,179,187,169,209,153],"times":[874,524,541,573,1252],"next_num":5,"trial_type":"ticket-choose","trial_index":55,"time_elapsed":689227,"internal_node_id":"0.0-55.0"},{"result":156,"points":2,"place":1,"phase":0,"sequence":36,"prices":[180,156,149,160,168,186,172,198,176,195],"times":[831,898],"next_num":2,"trial_type":"ticket-choose","trial_index":56,"time_elapsed":692978,"internal_node_id":"0.0-56.0"},{"result":167,"points":2,"place":1,"phase":0,"sequence":37,"prices":[178,174,186,217,167,181,188,168,208,156],"times":[940,584,540,581,906],"next_num":5,"trial_type":"ticket-choose","trial_index":57,"time_elapsed":699276,"internal_node_id":"0.0-57.0"},{"result":165,"points":2,"place":1,"phase":0,"sequence":38,"prices":[177,175,186,210,165,179,187,166,153,208],"times":[1077,530,604,540,780],"next_num":5,"trial_type":"ticket-choose","trial_index":58,"time_elapsed":705548,"internal_node_id":"0.0-58.0"},{"result":165,"points":3,"place":0,"phase":0,"sequence":39,"prices":[193,181,175,181,185,165,224,199,218,184],"times":[902,523,813,548,500,1039],"next_num":6,"trial_type":"ticket-choose","trial_index":59,"time_elapsed":712798,"internal_node_id":"0.0-59.0"},{"result":165,"points":1,"place":2,"phase":0,"sequence":40,"prices":[185,179,191,165,161,173,199,150,188,168],"times":[1020,492,546,868],"next_num":4,"trial_type":"ticket-choose","trial_index":60,"time_elapsed":718447,"internal_node_id":"0.0-60.0"},{"result":163,"points":1,"place":2,"phase":0,"sequence":41,"prices":[173,163,185,181,166,148,160,185,176,184],"times":[807,831],"next_num":2,"trial_type":"ticket-choose","trial_index":61,"time_elapsed":722142,"internal_node_id":"0.0-61.0"},{"result":149,"points":3,"place":0,"phase":0,"sequence":42,"prices":[181,159,149,175,185,151,163,174,178,207],"times":[1040,546,877],"next_num":3,"trial_type":"ticket-choose","trial_index":62,"time_elapsed":726931,"internal_node_id":"0.0-62.0"},{"result":167,"points":2,"place":1,"phase":0,"sequence":43,"prices":[167,175,186,225,178,179,187,169,209,153],"times":[1286],"next_num":1,"trial_type":"ticket-choose","trial_index":63,"time_elapsed":730119,"internal_node_id":"0.0-63.0"},{"result":150,"points":3,"place":0,"phase":0,"sequence":44,"prices":[190,150,175,161,188,207,157,194,178,199],"times":[1698,822],"next_num":2,"trial_type":"ticket-choose","trial_index":64,"time_elapsed":734724,"internal_node_id":"0.0-64.0"},{"result":163,"points":2,"place":1,"phase":0,"sequence":45,"prices":[163,175,186,214,176,179,187,166,153,208],"times":[908],"next_num":1,"trial_type":"ticket-choose","trial_index":65,"time_elapsed":737394,"internal_node_id":"0.0-65.0"},{"result":163,"points":2,"place":1,"phase":0,"sequence":46,"prices":[176,175,186,210,163,179,187,166,153,208],"times":[1149,491,564,558,819],"next_num":5,"trial_type":"ticket-choose","trial_index":66,"time_elapsed":743697,"internal_node_id":"0.0-66.0"},{"result":158,"points":2,"place":1,"phase":0,"sequence":47,"prices":[177,176,187,225,158,181,187,165,208,153],"times":[1009,678,580,531,968],"next_num":5,"trial_type":"ticket-choose","trial_index":67,"time_elapsed":750206,"internal_node_id":"0.0-67.0"},{"result":165,"points":2,"place":1,"phase":0,"sequence":48,"prices":[187,201,165,172,196,174,178,154,172,180],"times":[3098,677,1171],"next_num":3,"trial_type":"ticket-choose","trial_index":68,"time_elapsed":757517,"internal_node_id":"0.0-68.0"},{"result":165,"points":2,"place":1,"phase":0,"sequence":49,"prices":[193,174,224,165,187,190,224,161,194,195],"times":[1000,555,697,850],"next_num":4,"trial_type":"ticket-choose","trial_index":69,"time_elapsed":763252,"internal_node_id":"0.0-69.0"},{"responses":[{"value":1,"offby":0,"category":"$115 - $130","category_index":0},{"value":5,"offby":0,"category":"$131 - $145","category_index":1},{"value":9,"offby":-3,"category":"$146 - $160","category_index":2},{"value":24,"offby":2,"category":"$161 - $175","category_index":3},{"value":32,"offby":-2,"category":"$176 - $190","category_index":4},{"value":24,"offby":9,"category":"$191 - $205","category_index":5},{"value":5,"offby":-6,"category":"$206 - $220","category_index":6}],"phase":1,"number":1,"trial_type":"bar-choose","trial_index":70,"time_elapsed":827199,"internal_node_id":"0.0-70.0"},{"rt":26733,"url":"\/christiane\/tickets\/utils\/testing2.html","trial_type":"point_update","trial_index":71,"time_elapsed":855272,"internal_node_id":"0.0-71.0"},{"phase":1,"order":[43,42,48,41,35,25,39,13,16,4,11,19,31,28,45,20,37,10,6,22,17,30,14,1,27,7,46,8,47,18,26,38,21,0,33,5,34,3,9,24,29,49,44,2,40,12,15,23,36,32],"trial_type":"store_order","trial_index":72,"time_elapsed":856277,"internal_node_id":"0.0-72.0"},{"result":167,"points":2,"place":1,"phase":1,"sequence":0,"prices":[174,186,178,217,181,188,167,168,208,156],"times":[4390,528,519,538,546,540,1087],"next_num":7,"trial_type":"ticket-choose","trial_index":73,"time_elapsed":867664,"internal_node_id":"0.0-73.0"},{"result":165,"points":2,"place":1,"phase":1,"sequence":1,"prices":[175,186,165,214,179,187,177,166,153,208],"times":[1043,452,861],"next_num":3,"trial_type":"ticket-choose","trial_index":74,"time_elapsed":872365,"internal_node_id":"0.0-74.0"},{"result":163,"points":2,"place":1,"phase":1,"sequence":2,"prices":[175,186,163,214,179,187,176,166,153,208],"times":[957,567,891],"next_num":3,"trial_type":"ticket-choose","trial_index":75,"time_elapsed":877373,"internal_node_id":"0.0-75.0"},{"result":163,"points":2,"place":1,"phase":1,"sequence":3,"prices":[174,186,176,217,181,187,163,166,153,209],"times":[707,525,561,578,564,554,884],"next_num":7,"trial_type":"ticket-choose","trial_index":76,"time_elapsed":884897,"internal_node_id":"0.0-76.0"},{"result":158,"points":2,"place":1,"phase":1,"sequence":4,"prices":[175,186,177,209,181,188,158,167,208,154],"times":[1702,586,607,601,858,759,890],"next_num":7,"trial_type":"ticket-choose","trial_index":77,"time_elapsed":893991,"internal_node_id":"0.0-77.0"},{"result":167,"points":2,"place":1,"phase":1,"sequence":5,"prices":[175,186,167,225,179,187,178,169,209,153],"times":[685,846,819],"next_num":3,"trial_type":"ticket-choose","trial_index":78,"time_elapsed":898656,"internal_node_id":"0.0-78.0"},{"result":168,"points":1,"place":2,"phase":1,"sequence":6,"prices":[168,199,196,198,185,195,227,163,177,166],"times":[980],"next_num":1,"trial_type":"ticket-choose","trial_index":79,"time_elapsed":901423,"internal_node_id":"0.0-79.0"},{"result":158,"points":3,"place":0,"phase":1,"sequence":7,"prices":[210,184,226,193,215,158,199,175,176,208],"times":[897,595,484,608,735,899],"next_num":6,"trial_type":"ticket-choose","trial_index":80,"time_elapsed":908624,"internal_node_id":"0.0-80.0"},{"result":163,"points":1,"place":2,"phase":1,"sequence":8,"prices":[183,163,185,180,166,148,160,186,176,184],"times":[919,758],"next_num":2,"trial_type":"ticket-choose","trial_index":81,"time_elapsed":912390,"internal_node_id":"0.0-81.0"},{"result":167,"points":2,"place":1,"phase":1,"sequence":9,"prices":[175,185,178,215,181,186,167,168,208,156],"times":[730,516,536,594,564,595,925],"next_num":7,"trial_type":"ticket-choose","trial_index":82,"time_elapsed":920108,"internal_node_id":"0.0-82.0"},{"result":163,"points":2,"place":1,"phase":1,"sequence":10,"prices":[175,187,163,209,180,188,176,165,154,208],"times":[1412,1586,853],"next_num":3,"trial_type":"ticket-choose","trial_index":83,"time_elapsed":926264,"internal_node_id":"0.0-83.0"},{"result":165,"points":2,"place":1,"phase":1,"sequence":11,"prices":[200,165,165,173,182,207,161,202,204,180],"times":[807,892],"next_num":2,"trial_type":"ticket-choose","trial_index":84,"time_elapsed":929999,"internal_node_id":"0.0-84.0"},{"result":165,"points":2,"place":1,"phase":1,"sequence":12,"prices":[175,187,177,209,180,188,165,165,154,208],"times":[710,516,555,552,539,525,805],"next_num":7,"trial_type":"ticket-choose","trial_index":85,"time_elapsed":937397,"internal_node_id":"0.0-85.0"},{"result":158,"points":2,"place":1,"phase":1,"sequence":13,"prices":[175,186,158,211,180,187,177,166,209,153],"times":[807,534,874],"next_num":3,"trial_type":"ticket-choose","trial_index":86,"time_elapsed":941859,"internal_node_id":"0.0-86.0"},{"result":157,"points":3,"place":0,"phase":1,"sequence":14,"prices":[201,187,157,184,198,179,188,185,178,170],"times":[1095,611,890],"next_num":3,"trial_type":"ticket-choose","trial_index":87,"time_elapsed":946819,"internal_node_id":"0.0-87.0"},{"result":167,"points":2,"place":1,"phase":1,"sequence":15,"prices":[175,185,167,224,181,186,178,168,208,156],"times":[3129,507,812],"next_num":3,"trial_type":"ticket-choose","trial_index":88,"time_elapsed":953647,"internal_node_id":"0.0-88.0"},{"result":163,"points":2,"place":1,"phase":1,"sequence":16,"prices":[198,193,169,163,202,182,152,164,177,171],"times":[1064,587,1460,741],"next_num":4,"trial_type":"ticket-choose","trial_index":89,"time_elapsed":960031,"internal_node_id":"0.0-89.0"},{"result":152,"points":3,"place":0,"phase":1,"sequence":17,"prices":[200,181,203,152,175,171,160,154,176,191],"times":[786,721,663,854],"next_num":4,"trial_type":"ticket-choose","trial_index":90,"time_elapsed":965561,"internal_node_id":"0.0-90.0"},{"result":155,"points":2,"place":1,"phase":1,"sequence":18,"prices":[201,207,155,158,156,165,167,135,178,177],"times":[740,634,828],"next_num":3,"trial_type":"ticket-choose","trial_index":91,"time_elapsed":970038,"internal_node_id":"0.0-91.0"},{"result":165,"points":2,"place":1,"phase":1,"sequence":19,"prices":[175,187,165,209,180,188,177,166,154,208],"times":[1376,556,968],"next_num":3,"trial_type":"ticket-choose","trial_index":92,"time_elapsed":975398,"internal_node_id":"0.0-92.0"},{"result":167,"points":2,"place":1,"phase":1,"sequence":20,"prices":[183,182,192,168,173,205,167,187,165,170],"times":[1165,537,539,1477,553,596,765],"next_num":7,"trial_type":"ticket-choose","trial_index":93,"time_elapsed":984131,"internal_node_id":"0.0-93.0"},{"result":167,"points":2,"place":1,"phase":1,"sequence":21,"prices":[212,192,188,184,167,193,189,164,176,170],"times":[1224,555,2659,561,1449],"next_num":5,"trial_type":"ticket-choose","trial_index":94,"time_elapsed":993374,"internal_node_id":"0.0-94.0"},{"result":163,"points":2,"place":1,"phase":1,"sequence":22,"prices":[175,186,176,210,179,187,163,166,153,208],"times":[718,681,585,541,540,734,930],"next_num":7,"trial_type":"ticket-choose","trial_index":95,"time_elapsed":1001296,"internal_node_id":"0.0-95.0"},{"result":159,"points":1,"place":2,"phase":1,"sequence":23,"prices":[180,159,149,175,185,141,163,174,178,207],"times":[1140,773],"next_num":2,"trial_type":"ticket-choose","trial_index":96,"time_elapsed":1005258,"internal_node_id":"0.0-96.0"},{"result":163,"points":2,"place":1,"phase":1,"sequence":24,"prices":[175,187,176,209,180,188,163,165,154,208],"times":[1427,561,607,596,618,605,2109],"next_num":7,"trial_type":"ticket-choose","trial_index":97,"time_elapsed":1015055,"internal_node_id":"0.0-97.0"},{"result":165,"points":3,"place":0,"phase":1,"sequence":25,"prices":[196,165,170,184,187,211,171,201,202,185],"times":[1269,912],"next_num":2,"trial_type":"ticket-choose","trial_index":98,"time_elapsed":1019351,"internal_node_id":"0.0-98.0"},{"result":168,"points":1,"place":2,"phase":1,"sequence":26,"prices":[168,154,172,185,195,144,184,211,177,227],"times":[903],"next_num":1,"trial_type":"ticket-choose","trial_index":99,"time_elapsed":1022087,"internal_node_id":"0.0-99.0"},{"result":163,"points":2,"place":1,"phase":1,"sequence":27,"prices":[174,186,163,212,181,187,176,166,153,209],"times":[1174,546,1003],"next_num":3,"trial_type":"ticket-choose","trial_index":100,"time_elapsed":1027421,"internal_node_id":"0.0-100.0"},{"result":143,"points":3,"place":0,"phase":1,"sequence":28,"prices":[222,173,202,197,143,205,198,183,178,186],"times":[3692,1477,859,546,1033],"next_num":5,"trial_type":"ticket-choose","trial_index":101,"time_elapsed":1038797,"internal_node_id":"0.0-101.0"},{"result":155,"points":2,"place":1,"phase":1,"sequence":29,"prices":[181,155,148,161,168,187,172,199,176,194],"times":[1398,781],"next_num":2,"trial_type":"ticket-choose","trial_index":102,"time_elapsed":1042971,"internal_node_id":"0.0-102.0"},{"result":165,"points":3,"place":0,"phase":1,"sequence":30,"prices":[191,172,169,175,182,203,170,195,165,176],"times":[946,1314,851,586,648,604,601,586,1015],"next_num":9,"trial_type":"ticket-choose","trial_index":103,"time_elapsed":1053806,"internal_node_id":"0.0-103.0"},{"result":165,"points":2,"place":1,"phase":1,"sequence":31,"prices":[174,186,165,212,181,187,177,167,153,209],"times":[1120,531,945],"next_num":3,"trial_type":"ticket-choose","trial_index":104,"time_elapsed":1058821,"internal_node_id":"0.0-104.0"},{"result":150,"points":3,"place":0,"phase":1,"sequence":32,"prices":[189,150,175,160,188,207,158,194,178,199],"times":[700,913],"next_num":2,"trial_type":"ticket-choose","trial_index":105,"time_elapsed":1062635,"internal_node_id":"0.0-105.0"},{"result":165,"points":2,"place":1,"phase":1,"sequence":33,"prices":[175,186,177,210,179,187,165,166,153,208],"times":[885,626,578,555,531,556,916],"next_num":7,"trial_type":"ticket-choose","trial_index":106,"time_elapsed":1070368,"internal_node_id":"0.0-106.0"},{"result":165,"points":2,"place":1,"phase":1,"sequence":34,"prices":[174,186,177,217,181,187,165,166,153,209],"times":[985,811,516,554,797,525,804],"next_num":7,"trial_type":"ticket-choose","trial_index":107,"time_elapsed":1078493,"internal_node_id":"0.0-107.0"},{"result":165,"points":3,"place":0,"phase":1,"sequence":35,"prices":[185,170,182,201,173,199,171,188,165,168],"times":[1049,526,609,593,555,586,916,764,1017],"next_num":9,"trial_type":"ticket-choose","trial_index":108,"time_elapsed":1088681,"internal_node_id":"0.0-108.0"},{"result":179,"points":1,"place":4,"phase":1,"sequence":36,"prices":[181,215,169,147,182,193,177,184,176,179],"times":[1105,572,1002,560,875,884,867,572,687,680],"next_num":10,"trial_type":"ticket-choose","trial_index":109,"time_elapsed":1100219,"internal_node_id":"0.0-109.0"},{"result":158,"points":2,"place":1,"phase":1,"sequence":37,"prices":[176,187,177,225,181,187,158,165,208,153],"times":[951,578,617,681,601,602,892],"next_num":7,"trial_type":"ticket-choose","trial_index":110,"time_elapsed":1108260,"internal_node_id":"0.0-110.0"},{"result":167,"points":2,"place":1,"phase":1,"sequence":38,"prices":[174,186,167,211,181,188,178,168,208,156],"times":[993,584,1204],"next_num":3,"trial_type":"ticket-choose","trial_index":111,"time_elapsed":1113228,"internal_node_id":"0.0-111.0"},{"result":167,"points":2,"place":1,"phase":1,"sequence":39,"prices":[189,167,180,197,165,168,172,213,178,171],"times":[936,800],"next_num":2,"trial_type":"ticket-choose","trial_index":112,"time_elapsed":1116978,"internal_node_id":"0.0-112.0"},{"result":165,"points":2,"place":1,"phase":1,"sequence":40,"prices":[201,165,162,166,185,214,165,202,204,179],"times":[980,822],"next_num":2,"trial_type":"ticket-choose","trial_index":113,"time_elapsed":1120822,"internal_node_id":"0.0-113.0"},{"result":167,"points":2,"place":1,"phase":1,"sequence":41,"prices":[175,186,178,212,179,187,167,169,209,153],"times":[887,696,580,651,531,577,1410],"next_num":7,"trial_type":"ticket-choose","trial_index":114,"time_elapsed":1132361,"internal_node_id":"0.0-114.0"},{"result":158,"points":2,"place":1,"phase":1,"sequence":42,"prices":[175,186,158,209,181,188,177,167,208,154],"times":[1157,586,901],"next_num":3,"trial_type":"ticket-choose","trial_index":115,"time_elapsed":1137292,"internal_node_id":"0.0-115.0"},{"result":165,"points":3,"place":0,"phase":1,"sequence":43,"prices":[193,169,171,187,190,224,174,194,165,188],"times":[962,1061,573,559,549,541,603,695,954],"next_num":9,"trial_type":"ticket-choose","trial_index":116,"time_elapsed":1147338,"internal_node_id":"0.0-116.0"},{"result":158,"points":2,"place":1,"phase":1,"sequence":44,"prices":[175,186,177,221,180,187,158,166,209,153],"times":[1211,726,571,530,589,553,953],"next_num":7,"trial_type":"ticket-choose","trial_index":117,"time_elapsed":1155597,"internal_node_id":"0.0-117.0"},{"result":165,"points":3,"place":0,"phase":1,"sequence":45,"prices":[192,165,171,178,188,217,172,195,197,186],"times":[1806,966],"next_num":2,"trial_type":"ticket-choose","trial_index":118,"time_elapsed":1160410,"internal_node_id":"0.0-118.0"},{"result":165,"points":2,"place":1,"phase":1,"sequence":46,"prices":[188,200,165,172,198,174,177,154,177,180],"times":[26278,769,1398],"next_num":3,"trial_type":"ticket-choose","trial_index":119,"time_elapsed":1191278,"internal_node_id":"0.0-119.0"},{"result":165,"points":3,"place":0,"phase":1,"sequence":47,"prices":[193,165,175,181,185,224,180,199,218,184],"times":[26119,1064],"next_num":2,"trial_type":"ticket-choose","trial_index":120,"time_elapsed":1221098,"internal_node_id":"0.0-120.0"},{"result":158,"points":2,"place":1,"phase":1,"sequence":48,"prices":[176,187,158,210,181,187,177,165,208,153],"times":[933,1834,1048],"next_num":3,"trial_type":"ticket-choose","trial_index":121,"time_elapsed":1227255,"internal_node_id":"0.0-121.0"},{"result":165,"points":3,"place":0,"phase":1,"sequence":49,"prices":[171,203,175,170,167,220,192,186,165,165],"times":[1059,549,622,597,1249,720,579,695,776],"next_num":9,"trial_type":"ticket-choose","trial_index":122,"time_elapsed":1237825,"internal_node_id":"0.0-122.0"},{"responses":[{"value":1,"offby":0,"category":"$115 - $130","category_index":0},{"value":3,"offby":-2,"category":"$131 - $145","category_index":1},{"value":8,"offby":-4,"category":"$146 - $160","category_index":2},{"value":24,"offby":2,"category":"$161 - $175","category_index":3},{"value":30,"offby":-4,"category":"$176 - $190","category_index":4},{"value":20,"offby":5,"category":"$191 - $205","category_index":5},{"value":14,"offby":3,"category":"$206 - $220","category_index":6}],"phase":1,"number":1,"trial_type":"bar-choose","trial_index":123,"time_elapsed":1273567,"internal_node_id":"0.0-123.0"},{"special_comment":"Nothing in particular, other than a good mix of prices.  Seemed like a gamble - pass up a good price for a better price?","trial_type":"special_sequence","trial_index":124,"time_elapsed":1322307,"internal_node_id":"0.0-124.0"},{"during":"Nothing","bonus":276,"trial_type":"final","trial_index":125,"time_elapsed":1355884,"internal_node_id":"0.0-125.0"}],"bonus":276}