{"start_time":"2017-05-24 15:35:51","end_time":"2017-05-24 16:09:15","points_phase0":110,"points_phase1":113,"phase_order":0,"age":34,"gender":"m","tries":1,"during":"Nothing","worker_id":"A17F06M11XQX6S","assignment_id":"3TXD01ZLD5AQNS4PJ8EDZZUCO0I4U8","data":[{"rt":6172,"url":"\/christiane\/tickets\/utils\/consent.html","trial_type":"html","trial_index":0,"time_elapsed":6363,"internal_node_id":"0.0-0.0"},{"age":34,"gender":"m","trial_type":"age","trial_index":1,"time_elapsed":11831,"internal_node_id":"0.0-1.0"},{"worker_id":"A17F06M11XQX6S","trial_type":"workerid","trial_index":2,"time_elapsed":37851,"internal_node_id":"0.0-2.0"},{"tries":1,"trial_type":"instructions_check","trial_index":3,"time_elapsed":77323,"internal_node_id":"0.0-3.0"},{"rt":16051,"url":"\/christiane\/tickets\/utils\/start.html","trial_type":"html","trial_index":4,"time_elapsed":94401,"internal_node_id":"0.0-4.0"},{"trial_type":"number-animation","trial_index":5,"time_elapsed":122853,"internal_node_id":"0.0-5.0"},{"phase":0,"sequence":0,"avg":181,"response":180,"trial_type":"training_avg","trial_index":6,"time_elapsed":182194,"internal_node_id":"0.0-6.0"},{"trial_type":"number-animation","trial_index":7,"time_elapsed":212797,"internal_node_id":"0.0-7.0"},{"phase":0,"sequence":1,"avg":188,"response":188,"trial_type":"training_avg","trial_index":8,"time_elapsed":265498,"internal_node_id":"0.0-8.0"},{"trial_type":"number-animation","trial_index":9,"time_elapsed":297821,"internal_node_id":"0.0-9.0"},{"phase":0,"sequence":2,"avg":188,"response":188,"trial_type":"training_avg","trial_index":10,"time_elapsed":350065,"internal_node_id":"0.0-10.0"},{"trial_type":"number-animation","trial_index":11,"time_elapsed":376697,"internal_node_id":"0.0-11.0"},{"phase":0,"sequence":3,"avg":177,"response":177,"trial_type":"training_avg","trial_index":12,"time_elapsed":421850,"internal_node_id":"0.0-12.0"},{"trial_type":"number-animation","trial_index":13,"time_elapsed":458692,"internal_node_id":"0.0-13.0"},{"phase":0,"sequence":4,"avg":182,"response":182,"trial_type":"training_avg","trial_index":14,"time_elapsed":513873,"internal_node_id":"0.0-14.0"},{"responses":[{"value":0,"offby":-1,"category":"$115 - $130","category_index":0},{"value":4,"offby":-1,"category":"$131 - $145","category_index":1},{"value":8,"offby":-4,"category":"$146 - $160","category_index":2},{"value":18,"offby":-4,"category":"$161 - $175","category_index":3},{"value":34,"offby":0,"category":"$176 - $190","category_index":4},{"value":16,"offby":1,"category":"$191 - $205","category_index":5},{"value":20,"offby":9,"category":"$206 - $220","category_index":6}],"phase":0,"number":0,"trial_type":"bar-choose","trial_index":15,"time_elapsed":908681,"internal_node_id":"0.0-15.0"},{"rt":24373,"url":"\/christiane\/tickets\/utils\/testing.html","trial_type":"html","trial_index":16,"time_elapsed":934080,"internal_node_id":"0.0-16.0"},{"phase":0,"order":[34,47,32,35,13,17,45,40,49,44,22,23,19,16,27,11,26,15,36,8,1,31,4,25,10,9,21,33,18,48,28,46,5,43,42,14,24,30,20,7,29,37,2,41,3,38,6,0,39,12],"trial_type":"store_order","trial_index":17,"time_elapsed":935081,"internal_node_id":"0.0-17.0"},{"result":165,"points":2,"place":1,"phase":0,"sequence":-1,"prices":[184,180,224,165,181,199,185,193,218,146],"times":[4822,2822,1302,1407],"next_num":4,"trial_type":"ticket-choose","trial_index":18,"time_elapsed":948729,"internal_node_id":"0.0-18.0"},{"rt":28685,"url":"\/christiane\/tickets\/utils\/testing_after.html","trial_type":"html","trial_index":19,"time_elapsed":978440,"internal_node_id":"0.0-19.0"},{"result":155,"points":2,"place":1,"phase":0,"sequence":0,"prices":[181,155,148,161,168,187,172,199,176,194],"times":[1888,1205],"next_num":2,"trial_type":"ticket-choose","trial_index":20,"time_elapsed":984744,"internal_node_id":"0.0-20.0"},{"result":191,"points":0,"place":7,"phase":0,"sequence":1,"prices":[200,181,203,152,175,171,160,154,176,191],"times":[1929,1582,806,3111,597,662,950,1535,815,1566],"next_num":10,"trial_type":"ticket-choose","trial_index":21,"time_elapsed":1002759,"internal_node_id":"0.0-21.0"},{"result":165,"points":3,"place":0,"phase":0,"sequence":2,"prices":[193,169,171,187,190,224,174,194,165,188],"times":[1250,1111,790,782,870,885,1390,718,1136],"next_num":9,"trial_type":"ticket-choose","trial_index":22,"time_elapsed":1017009,"internal_node_id":"0.0-22.0"},{"result":154,"points":2,"place":1,"phase":0,"sequence":3,"prices":[168,154,172,185,195,144,184,211,177,227],"times":[1833,1080],"next_num":2,"trial_type":"ticket-choose","trial_index":23,"time_elapsed":1022441,"internal_node_id":"0.0-23.0"},{"result":163,"points":2,"place":1,"phase":0,"sequence":4,"prices":[175,187,163,209,180,188,176,165,154,208],"times":[1153,677,2350],"next_num":3,"trial_type":"ticket-choose","trial_index":24,"time_elapsed":1029144,"internal_node_id":"0.0-24.0"},{"result":163,"points":2,"place":1,"phase":0,"sequence":5,"prices":[174,186,176,217,181,187,163,166,153,209],"times":[1321,638,989,806,679,758,1277],"next_num":7,"trial_type":"ticket-choose","trial_index":25,"time_elapsed":1039249,"internal_node_id":"0.0-25.0"},{"result":167,"points":2,"place":1,"phase":0,"sequence":6,"prices":[212,192,188,184,167,193,189,164,176,170],"times":[1161,695,1477,862,1831],"next_num":5,"trial_type":"ticket-choose","trial_index":26,"time_elapsed":1048384,"internal_node_id":"0.0-26.0"},{"result":150,"points":3,"place":0,"phase":0,"sequence":7,"prices":[189,150,175,160,188,207,158,194,178,199],"times":[2417,1086],"next_num":2,"trial_type":"ticket-choose","trial_index":27,"time_elapsed":1054656,"internal_node_id":"0.0-27.0"},{"result":163,"points":1,"place":2,"phase":0,"sequence":8,"prices":[183,163,185,180,166,148,160,186,176,184],"times":[1529,918],"next_num":2,"trial_type":"ticket-choose","trial_index":28,"time_elapsed":1060560,"internal_node_id":"0.0-28.0"},{"result":159,"points":1,"place":2,"phase":0,"sequence":9,"prices":[180,159,149,175,185,141,163,174,178,207],"times":[865,1558],"next_num":2,"trial_type":"ticket-choose","trial_index":29,"time_elapsed":1065696,"internal_node_id":"0.0-29.0"},{"result":158,"points":2,"place":1,"phase":0,"sequence":10,"prices":[175,186,177,209,181,188,158,167,208,154],"times":[705,598,591,614,791,528,1101],"next_num":7,"trial_type":"ticket-choose","trial_index":30,"time_elapsed":1073929,"internal_node_id":"0.0-30.0"},{"result":158,"points":2,"place":1,"phase":0,"sequence":11,"prices":[176,187,177,225,181,187,158,165,208,153],"times":[1048,591,687,1007,951,919,1319],"next_num":7,"trial_type":"ticket-choose","trial_index":31,"time_elapsed":1083912,"internal_node_id":"0.0-31.0"},{"result":158,"points":2,"place":1,"phase":0,"sequence":12,"prices":[175,186,158,209,181,188,177,167,208,154],"times":[1008,3119,895],"next_num":3,"trial_type":"ticket-choose","trial_index":32,"time_elapsed":1091464,"internal_node_id":"0.0-32.0"},{"result":165,"points":1,"place":2,"phase":0,"sequence":13,"prices":[175,187,176,209,180,188,163,165,154,208],"times":[688,566,830,639,591,596,2751,1247],"next_num":8,"trial_type":"ticket-choose","trial_index":33,"time_elapsed":1102832,"internal_node_id":"0.0-33.0"},{"result":165,"points":3,"place":0,"phase":0,"sequence":14,"prices":[192,165,171,178,188,217,172,195,197,186],"times":[672,982],"next_num":2,"trial_type":"ticket-choose","trial_index":34,"time_elapsed":1106736,"internal_node_id":"0.0-34.0"},{"result":165,"points":2,"place":1,"phase":0,"sequence":15,"prices":[174,186,177,217,181,187,165,166,153,209],"times":[969,615,694,534,718,549,1094],"next_num":7,"trial_type":"ticket-choose","trial_index":35,"time_elapsed":1115279,"internal_node_id":"0.0-35.0"},{"result":165,"points":2,"place":1,"phase":0,"sequence":16,"prices":[200,165,165,173,182,207,161,202,204,180],"times":[1106,1062],"next_num":2,"trial_type":"ticket-choose","trial_index":36,"time_elapsed":1119824,"internal_node_id":"0.0-36.0"},{"result":163,"points":2,"place":1,"phase":0,"sequence":17,"prices":[175,186,176,210,179,187,163,166,153,208],"times":[1824,759,678,533,606,622,984],"next_num":7,"trial_type":"ticket-choose","trial_index":37,"time_elapsed":1129063,"internal_node_id":"0.0-37.0"},{"result":165,"points":2,"place":1,"phase":0,"sequence":18,"prices":[188,200,165,172,198,174,177,154,177,180],"times":[2114,573,1349],"next_num":3,"trial_type":"ticket-choose","trial_index":38,"time_elapsed":1135640,"internal_node_id":"0.0-38.0"},{"result":165,"points":2,"place":1,"phase":0,"sequence":19,"prices":[174,186,165,212,181,187,177,167,153,209],"times":[2137,605,3032],"next_num":3,"trial_type":"ticket-choose","trial_index":39,"time_elapsed":1143967,"internal_node_id":"0.0-39.0"},{"result":168,"points":1,"place":2,"phase":0,"sequence":20,"prices":[175,185,167,224,181,186,178,168,208,156],"times":[793,558,1415,542,566,606,696,2910],"next_num":8,"trial_type":"ticket-choose","trial_index":40,"time_elapsed":1155543,"internal_node_id":"0.0-40.0"},{"result":165,"points":3,"place":0,"phase":0,"sequence":21,"prices":[171,203,175,170,167,220,192,186,165,165],"times":[1225,592,646,1815,2350,630,846,1078,1166],"next_num":9,"trial_type":"ticket-choose","trial_index":41,"time_elapsed":1169943,"internal_node_id":"0.0-41.0"},{"result":167,"points":2,"place":1,"phase":0,"sequence":22,"prices":[175,185,178,215,181,186,167,168,208,156],"times":[4072,647,711,551,566,647,1038],"next_num":7,"trial_type":"ticket-choose","trial_index":42,"time_elapsed":1181439,"internal_node_id":"0.0-42.0"},{"result":165,"points":2,"place":1,"phase":0,"sequence":23,"prices":[201,165,162,166,185,214,165,202,204,179],"times":[6352,1287],"next_num":2,"trial_type":"ticket-choose","trial_index":43,"time_elapsed":1191296,"internal_node_id":"0.0-43.0"},{"result":165,"points":2,"place":1,"phase":0,"sequence":24,"prices":[175,187,177,209,180,188,165,165,154,208],"times":[831,470,527,576,590,679,919],"next_num":7,"trial_type":"ticket-choose","trial_index":44,"time_elapsed":1199119,"internal_node_id":"0.0-44.0"},{"result":153,"points":3,"place":0,"phase":0,"sequence":25,"prices":[175,186,177,210,179,187,165,166,153,208],"times":[736,527,631,558,703,639,1645,838,965],"next_num":9,"trial_type":"ticket-choose","trial_index":45,"time_elapsed":1210047,"internal_node_id":"0.0-45.0"},{"result":153,"points":3,"place":0,"phase":0,"sequence":26,"prices":[175,186,177,221,180,187,158,166,209,153],"times":[929,782,815,566,614,566,1828,976,615,783],"next_num":10,"trial_type":"ticket-choose","trial_index":46,"time_elapsed":1223255,"internal_node_id":"0.0-46.0"},{"result":167,"points":2,"place":1,"phase":0,"sequence":27,"prices":[183,182,192,168,173,205,167,187,165,170],"times":[1041,503,606,935,599,613,1934],"next_num":7,"trial_type":"ticket-choose","trial_index":47,"time_elapsed":1232807,"internal_node_id":"0.0-47.0"},{"result":158,"points":2,"place":1,"phase":0,"sequence":28,"prices":[175,186,158,211,180,187,177,166,209,153],"times":[1017,830,1998],"next_num":3,"trial_type":"ticket-choose","trial_index":48,"time_elapsed":1239030,"internal_node_id":"0.0-48.0"},{"result":147,"points":3,"place":0,"phase":0,"sequence":29,"prices":[181,215,169,147,182,193,177,184,176,179],"times":[720,494,694,1165],"next_num":4,"trial_type":"ticket-choose","trial_index":49,"time_elapsed":1244710,"internal_node_id":"0.0-49.0"},{"result":185,"points":1,"place":4,"phase":0,"sequence":30,"prices":[196,165,170,184,187,211,171,201,202,185],"times":[714,719,573,615,597,574,639,645,654,1047],"next_num":10,"trial_type":"ticket-choose","trial_index":50,"time_elapsed":1255407,"internal_node_id":"0.0-50.0"},{"result":158,"points":3,"place":0,"phase":0,"sequence":31,"prices":[210,184,226,193,215,158,199,175,176,208],"times":[1160,709,671,639,606,990],"next_num":6,"trial_type":"ticket-choose","trial_index":51,"time_elapsed":1263599,"internal_node_id":"0.0-51.0"},{"result":167,"points":2,"place":1,"phase":0,"sequence":32,"prices":[175,186,178,212,179,187,167,169,209,153],"times":[944,622,750,2078,967,646,1342],"next_num":7,"trial_type":"ticket-choose","trial_index":52,"time_elapsed":1274175,"internal_node_id":"0.0-52.0"},{"result":157,"points":3,"place":0,"phase":0,"sequence":33,"prices":[201,187,157,184,198,179,188,185,178,170],"times":[968,630,1134],"next_num":3,"trial_type":"ticket-choose","trial_index":53,"time_elapsed":1279351,"internal_node_id":"0.0-53.0"},{"result":143,"points":3,"place":0,"phase":0,"sequence":34,"prices":[222,173,202,197,143,205,198,183,178,186],"times":[729,607,478,534,1519],"next_num":5,"trial_type":"ticket-choose","trial_index":54,"time_elapsed":1286167,"internal_node_id":"0.0-54.0"},{"result":163,"points":2,"place":1,"phase":0,"sequence":35,"prices":[174,186,163,212,181,187,176,166,153,209],"times":[658,510,918],"next_num":3,"trial_type":"ticket-choose","trial_index":55,"time_elapsed":1290655,"internal_node_id":"0.0-55.0"},{"result":165,"points":3,"place":0,"phase":0,"sequence":36,"prices":[193,165,175,181,185,224,180,199,218,184],"times":[816,1590],"next_num":2,"trial_type":"ticket-choose","trial_index":56,"time_elapsed":1295271,"internal_node_id":"0.0-56.0"},{"result":165,"points":3,"place":0,"phase":0,"sequence":37,"prices":[191,172,169,175,182,203,170,195,165,176],"times":[641,574,799,558,614,590,606,727,1063],"next_num":9,"trial_type":"ticket-choose","trial_index":57,"time_elapsed":1305055,"internal_node_id":"0.0-57.0"},{"result":158,"points":2,"place":1,"phase":0,"sequence":38,"prices":[176,187,158,210,181,187,177,165,208,153],"times":[698,566,1135],"next_num":3,"trial_type":"ticket-choose","trial_index":58,"time_elapsed":1309799,"internal_node_id":"0.0-58.0"},{"result":154,"points":3,"place":0,"phase":0,"sequence":39,"prices":[175,187,165,209,180,188,177,166,154,208],"times":[730,519,2615,534,623,607,606,1607,878],"next_num":9,"trial_type":"ticket-choose","trial_index":59,"time_elapsed":1322311,"internal_node_id":"0.0-59.0"},{"result":165,"points":3,"place":0,"phase":0,"sequence":40,"prices":[185,170,182,201,173,199,171,188,165,168],"times":[1210,631,639,573,759,631,966,663,998],"next_num":9,"trial_type":"ticket-choose","trial_index":60,"time_elapsed":1333119,"internal_node_id":"0.0-60.0"},{"result":163,"points":2,"place":1,"phase":0,"sequence":41,"prices":[198,193,169,163,202,182,152,164,177,171],"times":[1265,559,847,1158],"next_num":4,"trial_type":"ticket-choose","trial_index":61,"time_elapsed":1339615,"internal_node_id":"0.0-61.0"},{"result":153,"points":3,"place":0,"phase":0,"sequence":42,"prices":[175,186,167,225,179,187,178,169,209,153],"times":[1737,773,2551,518,607,590,607,854,727,823],"next_num":10,"trial_type":"ticket-choose","trial_index":62,"time_elapsed":1353575,"internal_node_id":"0.0-62.0"},{"result":155,"points":2,"place":1,"phase":0,"sequence":43,"prices":[201,207,155,158,156,165,167,135,178,177],"times":[1426,478,1198],"next_num":3,"trial_type":"ticket-choose","trial_index":63,"time_elapsed":1359366,"internal_node_id":"0.0-63.0"},{"result":167,"points":2,"place":1,"phase":0,"sequence":44,"prices":[174,186,178,217,181,188,167,168,208,156],"times":[730,517,591,543,614,567,1095],"next_num":7,"trial_type":"ticket-choose","trial_index":64,"time_elapsed":1367310,"internal_node_id":"0.0-64.0"},{"result":163,"points":3,"place":0,"phase":0,"sequence":45,"prices":[168,199,196,198,185,195,227,163,177,166],"times":[656,710,582,494,727,599,574,990],"next_num":8,"trial_type":"ticket-choose","trial_index":65,"time_elapsed":1376166,"internal_node_id":"0.0-65.0"},{"result":165,"points":2,"place":1,"phase":0,"sequence":46,"prices":[175,186,165,214,179,187,177,166,153,208],"times":[744,391,998],"next_num":3,"trial_type":"ticket-choose","trial_index":66,"time_elapsed":1380622,"internal_node_id":"0.0-66.0"},{"result":167,"points":2,"place":1,"phase":0,"sequence":47,"prices":[174,186,167,211,181,188,178,168,208,156],"times":[720,558,1775],"next_num":3,"trial_type":"ticket-choose","trial_index":67,"time_elapsed":1386118,"internal_node_id":"0.0-67.0"},{"result":165,"points":3,"place":0,"phase":0,"sequence":48,"prices":[189,167,180,197,165,168,172,213,178,171],"times":[695,1310,566,606,926],"next_num":5,"trial_type":"ticket-choose","trial_index":68,"time_elapsed":1392990,"internal_node_id":"0.0-68.0"},{"result":163,"points":2,"place":1,"phase":0,"sequence":49,"prices":[175,186,163,214,179,187,176,166,153,208],"times":[602,582,1118],"next_num":3,"trial_type":"ticket-choose","trial_index":69,"time_elapsed":1397566,"internal_node_id":"0.0-69.0"},{"responses":[{"value":5,"offby":4,"category":"$115 - $130","category_index":0},{"value":15,"offby":10,"category":"$131 - $145","category_index":1},{"value":20,"offby":8,"category":"$146 - $160","category_index":2},{"value":10,"offby":-12,"category":"$161 - $175","category_index":3},{"value":30,"offby":-4,"category":"$176 - $190","category_index":4},{"value":15,"offby":0,"category":"$191 - $205","category_index":5},{"value":5,"offby":-6,"category":"$206 - $220","category_index":6}],"phase":1,"number":1,"trial_type":"bar-choose","trial_index":70,"time_elapsed":1485719,"internal_node_id":"0.0-70.0"},{"rt":27001,"url":"\/christiane\/tickets\/utils\/testing2.html","trial_type":"point_update","trial_index":71,"time_elapsed":1513830,"internal_node_id":"0.0-71.0"},{"phase":1,"order":[16,26,20,13,40,27,31,14,46,10,32,35,6,2,19,37,48,39,0,43,24,12,11,21,28,45,7,33,8,9,42,29,17,4,36,30,15,1,41,47,25,38,44,18,23,5,3,34,49,22],"trial_type":"store_order","trial_index":72,"time_elapsed":1514831,"internal_node_id":"0.0-72.0"},{"result":163,"points":2,"place":1,"phase":1,"sequence":0,"prices":[176,187,179,209,163,180,188,165,154,208],"times":[1048,485,439,479,990],"next_num":5,"trial_type":"ticket-choose","trial_index":73,"time_elapsed":1521366,"internal_node_id":"0.0-73.0"},{"result":165,"points":1,"place":2,"phase":1,"sequence":1,"prices":[200,173,182,169,207,165,152,202,161,204],"times":[814,366,534,783,430,1509],"next_num":6,"trial_type":"ticket-choose","trial_index":74,"time_elapsed":1528774,"internal_node_id":"0.0-74.0"},{"result":153,"points":3,"place":0,"phase":1,"sequence":2,"prices":[158,176,187,210,177,181,187,165,208,153],"times":[1545,501,534,479,542,535,606,1030,638,887],"next_num":10,"trial_type":"ticket-choose","trial_index":75,"time_elapsed":1540192,"internal_node_id":"0.0-75.0"},{"result":163,"points":2,"place":1,"phase":1,"sequence":3,"prices":[163,175,187,209,176,180,188,165,154,208],"times":[1905],"next_num":1,"trial_type":"ticket-choose","trial_index":76,"time_elapsed":1543991,"internal_node_id":"0.0-76.0"},{"result":150,"points":3,"place":0,"phase":1,"sequence":4,"prices":[190,150,175,161,188,207,157,194,178,199],"times":[633,1199],"next_num":2,"trial_type":"ticket-choose","trial_index":77,"time_elapsed":1547991,"internal_node_id":"0.0-77.0"},{"result":165,"points":3,"place":0,"phase":1,"sequence":5,"prices":[192,172,171,178,188,165,217,168,195,197],"times":[723,718,718,527,528,1181],"next_num":6,"trial_type":"ticket-choose","trial_index":78,"time_elapsed":1555518,"internal_node_id":"0.0-78.0"},{"result":165,"points":1,"place":2,"phase":1,"sequence":6,"prices":[171,169,186,165,163,167,220,148,187,165],"times":[545,726,503,903],"next_num":4,"trial_type":"ticket-choose","trial_index":79,"time_elapsed":1560839,"internal_node_id":"0.0-79.0"},{"result":153,"points":3,"place":0,"phase":1,"sequence":7,"prices":[163,174,186,212,176,181,187,166,153,209],"times":[497,494,519,543,479,518,575,862,1080],"next_num":9,"trial_type":"ticket-choose","trial_index":80,"time_elapsed":1570016,"internal_node_id":"0.0-80.0"},{"result":158,"points":3,"place":0,"phase":1,"sequence":8,"prices":[214,184,226,192,215,158,199,175,176,208],"times":[665,367,398,422,567,1574],"next_num":6,"trial_type":"ticket-choose","trial_index":81,"time_elapsed":1577047,"internal_node_id":"0.0-81.0"},{"result":154,"points":3,"place":0,"phase":1,"sequence":9,"prices":[177,175,187,209,165,180,188,165,154,208],"times":[624,485,495,487,2199,565,574,2303,1061],"next_num":9,"trial_type":"ticket-choose","trial_index":82,"time_elapsed":1589638,"internal_node_id":"0.0-82.0"},{"result":161,"points":3,"place":0,"phase":1,"sequence":10,"prices":[193,174,224,165,187,190,224,161,194,195],"times":[825,599,501,438,702,407,439,1350],"next_num":8,"trial_type":"ticket-choose","trial_index":83,"time_elapsed":1598359,"internal_node_id":"0.0-83.0"},{"result":153,"points":2,"place":1,"phase":1,"sequence":11,"prices":[167,153,172,185,195,143,184,211,177,227],"times":[1312,999],"next_num":2,"trial_type":"ticket-choose","trial_index":84,"time_elapsed":1602863,"internal_node_id":"0.0-84.0"},{"result":153,"points":3,"place":0,"phase":1,"sequence":12,"prices":[165,175,186,214,177,179,187,166,153,208],"times":[864,535,470,568,462,670,559,1014,917],"next_num":9,"trial_type":"ticket-choose","trial_index":85,"time_elapsed":1612566,"internal_node_id":"0.0-85.0"},{"result":153,"points":3,"place":0,"phase":1,"sequence":13,"prices":[167,175,186,225,178,179,187,169,209,153],"times":[847,446,366,455,543,526,655,694,630,823],"next_num":10,"trial_type":"ticket-choose","trial_index":86,"time_elapsed":1622518,"internal_node_id":"0.0-86.0"},{"result":158,"points":2,"place":1,"phase":1,"sequence":14,"prices":[158,175,186,209,177,181,188,167,208,154],"times":[1353],"next_num":1,"trial_type":"ticket-choose","trial_index":87,"time_elapsed":1625734,"internal_node_id":"0.0-87.0"},{"result":165,"points":1,"place":2,"phase":1,"sequence":15,"prices":[199,193,169,165,202,182,151,164,176,171],"times":[727,415,373,1205],"next_num":4,"trial_type":"ticket-choose","trial_index":88,"time_elapsed":1631078,"internal_node_id":"0.0-88.0"},{"result":147,"points":3,"place":0,"phase":1,"sequence":16,"prices":[181,214,169,147,182,193,178,184,176,179],"times":[1345,662,302,1390],"next_num":4,"trial_type":"ticket-choose","trial_index":89,"time_elapsed":1637374,"internal_node_id":"0.0-89.0"},{"result":171,"points":1,"place":3,"phase":1,"sequence":17,"prices":[189,167,180,197,165,168,172,213,178,171],"times":[761,742,478,446,470,1150,687,630,1126,1015],"next_num":10,"trial_type":"ticket-choose","trial_index":90,"time_elapsed":1648766,"internal_node_id":"0.0-90.0"},{"result":156,"points":3,"place":0,"phase":1,"sequence":18,"prices":[167,174,186,211,178,181,188,168,208,156],"times":[18199,575,359,294,550,503,515,913,645,838],"next_num":10,"trial_type":"ticket-choose","trial_index":91,"time_elapsed":1676166,"internal_node_id":"0.0-91.0"},{"result":170,"points":2,"place":1,"phase":1,"sequence":19,"prices":[201,187,157,184,198,179,188,185,178,170],"times":[785,806,367,821,526,510,527,663,654,982],"next_num":10,"trial_type":"ticket-choose","trial_index":92,"time_elapsed":1686702,"internal_node_id":"0.0-92.0"},{"result":184,"points":1,"place":4,"phase":1,"sequence":20,"prices":[193,181,175,181,185,165,224,199,218,184],"times":[921,527,719,486,535,2022,486,573,567,767],"next_num":10,"trial_type":"ticket-choose","trial_index":93,"time_elapsed":1698093,"internal_node_id":"0.0-93.0"},{"result":153,"points":3,"place":0,"phase":1,"sequence":21,"prices":[163,175,186,214,176,179,187,166,153,208],"times":[608,694,574,511,518,542,694,2046,790],"next_num":9,"trial_type":"ticket-choose","trial_index":94,"time_elapsed":1708637,"internal_node_id":"0.0-94.0"},{"result":153,"points":3,"place":0,"phase":1,"sequence":22,"prices":[177,174,186,217,165,181,187,166,153,209],"times":[913,327,645,390,1734,494,501,863,1006],"next_num":9,"trial_type":"ticket-choose","trial_index":95,"time_elapsed":1719054,"internal_node_id":"0.0-95.0"},{"result":158,"points":2,"place":1,"phase":1,"sequence":23,"prices":[177,175,186,221,158,180,187,166,209,153],"times":[721,238,383,430,1447],"next_num":5,"trial_type":"ticket-choose","trial_index":96,"time_elapsed":1724965,"internal_node_id":"0.0-96.0"},{"result":165,"points":3,"place":0,"phase":1,"sequence":24,"prices":[196,171,170,184,187,165,211,169,201,202],"times":[730,270,414,526,614,1502],"next_num":6,"trial_type":"ticket-choose","trial_index":97,"time_elapsed":1732055,"internal_node_id":"0.0-97.0"},{"result":164,"points":3,"place":0,"phase":1,"sequence":25,"prices":[199,191,188,174,167,193,189,164,176,170],"times":[624,510,591,694,2055,526,534,1294],"next_num":8,"trial_type":"ticket-choose","trial_index":98,"time_elapsed":1742311,"internal_node_id":"0.0-98.0"},{"result":165,"points":2,"place":1,"phase":1,"sequence":26,"prices":[165,175,187,209,177,180,188,167,154,208],"times":[1768],"next_num":1,"trial_type":"ticket-choose","trial_index":99,"time_elapsed":1745998,"internal_node_id":"0.0-99.0"},{"result":165,"points":2,"place":1,"phase":1,"sequence":27,"prices":[183,179,188,165,168,173,205,159,187,191],"times":[573,414,423,1398],"next_num":4,"trial_type":"ticket-choose","trial_index":100,"time_elapsed":1751294,"internal_node_id":"0.0-100.0"},{"result":153,"points":3,"place":0,"phase":1,"sequence":28,"prices":[165,174,186,212,177,181,187,166,153,209],"times":[952,590,430,487,559,560,550,870,1087],"next_num":9,"trial_type":"ticket-choose","trial_index":101,"time_elapsed":1760958,"internal_node_id":"0.0-101.0"},{"result":153,"points":3,"place":0,"phase":1,"sequence":29,"prices":[177,175,186,210,165,179,187,166,153,208],"times":[736,558,367,477,1357,502,534,1142,1038],"next_num":9,"trial_type":"ticket-choose","trial_index":102,"time_elapsed":1771286,"internal_node_id":"0.0-102.0"},{"result":186,"points":1,"place":4,"phase":1,"sequence":30,"prices":[220,173,201,197,169,205,198,183,178,186],"times":[744,431,559,374,949,655,559,694,711,1047],"next_num":10,"trial_type":"ticket-choose","trial_index":103,"time_elapsed":1781878,"internal_node_id":"0.0-103.0"},{"result":165,"points":1,"place":2,"phase":1,"sequence":31,"prices":[185,179,191,165,161,173,199,150,188,168],"times":[634,391,671,983],"next_num":4,"trial_type":"ticket-choose","trial_index":104,"time_elapsed":1787126,"internal_node_id":"0.0-104.0"},{"result":163,"points":2,"place":1,"phase":1,"sequence":32,"prices":[176,186,178,217,163,181,187,166,153,209],"times":[490,581,557,606,1110],"next_num":5,"trial_type":"ticket-choose","trial_index":105,"time_elapsed":1793215,"internal_node_id":"0.0-105.0"},{"result":156,"points":3,"place":0,"phase":1,"sequence":33,"prices":[178,175,185,215,167,181,186,168,208,156],"times":[496,350,351,502,1046,1134,566,678,799,1223],"next_num":10,"trial_type":"ticket-choose","trial_index":106,"time_elapsed":1804463,"internal_node_id":"0.0-106.0"},{"result":154,"points":3,"place":0,"phase":1,"sequence":34,"prices":[187,201,165,172,196,174,178,154,172,180],"times":[585,271,270,406,342,543,590,1327],"next_num":8,"trial_type":"ticket-choose","trial_index":107,"time_elapsed":1812183,"internal_node_id":"0.0-107.0"},{"result":165,"points":2,"place":1,"phase":1,"sequence":35,"prices":[191,170,182,165,175,182,203,157,195,200],"times":[809,517,533,2150],"next_num":4,"trial_type":"ticket-choose","trial_index":108,"time_elapsed":1818751,"internal_node_id":"0.0-108.0"},{"result":208,"points":0,"place":8,"phase":1,"sequence":36,"prices":[176,175,186,210,163,179,187,166,153,208],"times":[929,390,261,262,438,511,663,703,615,622],"next_num":11,"trial_type":"ticket-choose","trial_index":109,"time_elapsed":1828334,"internal_node_id":"0.0-109.0"},{"result":156,"points":3,"place":0,"phase":1,"sequence":37,"prices":[167,175,185,224,178,181,186,168,208,156],"times":[1439,398,422,575,678,975,575,1014,830,911],"next_num":10,"trial_type":"ticket-choose","trial_index":110,"time_elapsed":1840238,"internal_node_id":"0.0-110.0"},{"result":155,"points":2,"place":1,"phase":1,"sequence":38,"prices":[200,207,155,158,156,168,167,135,178,177],"times":[864,476,1119],"next_num":3,"trial_type":"ticket-choose","trial_index":111,"time_elapsed":1845031,"internal_node_id":"0.0-111.0"},{"result":152,"points":3,"place":0,"phase":1,"sequence":39,"prices":[200,180,203,152,175,170,160,154,176,191],"times":[737,534,400,1038],"next_num":4,"trial_type":"ticket-choose","trial_index":112,"time_elapsed":1850502,"internal_node_id":"0.0-112.0"},{"result":165,"points":2,"place":1,"phase":1,"sequence":40,"prices":[201,204,179,166,185,165,214,156,202,165],"times":[785,534,934,1326,710,1703],"next_num":6,"trial_type":"ticket-choose","trial_index":113,"time_elapsed":1859430,"internal_node_id":"0.0-113.0"},{"result":163,"points":3,"place":0,"phase":1,"sequence":41,"prices":[163,199,196,199,185,195,227,163,177,166],"times":[1177],"next_num":1,"trial_type":"ticket-choose","trial_index":114,"time_elapsed":1862630,"internal_node_id":"0.0-114.0"},{"result":159,"points":1,"place":2,"phase":1,"sequence":42,"prices":[181,159,149,175,185,151,163,174,178,207],"times":[608,1568],"next_num":2,"trial_type":"ticket-choose","trial_index":115,"time_elapsed":1867030,"internal_node_id":"0.0-115.0"},{"result":153,"points":3,"place":0,"phase":1,"sequence":43,"prices":[158,175,186,211,177,180,187,166,209,153],"times":[1049,478,581,533,599,558,583,1255,694,877],"next_num":10,"trial_type":"ticket-choose","trial_index":116,"time_elapsed":1878367,"internal_node_id":"0.0-116.0"},{"result":158,"points":2,"place":1,"phase":1,"sequence":44,"prices":[177,176,187,225,158,181,187,165,208,153],"times":[817,510,559,543,1022],"next_num":5,"trial_type":"ticket-choose","trial_index":117,"time_elapsed":1884590,"internal_node_id":"0.0-117.0"},{"result":167,"points":2,"place":1,"phase":1,"sequence":45,"prices":[178,175,186,212,167,179,187,169,209,153],"times":[593,486,718,583,951],"next_num":5,"trial_type":"ticket-choose","trial_index":118,"time_elapsed":1890670,"internal_node_id":"0.0-118.0"},{"result":156,"points":3,"place":0,"phase":1,"sequence":46,"prices":[178,174,186,217,167,181,188,168,208,156],"times":[528,501,487,518,1447,541,599,1215,1478,765],"next_num":10,"trial_type":"ticket-choose","trial_index":119,"time_elapsed":1902686,"internal_node_id":"0.0-119.0"},{"result":156,"points":2,"place":1,"phase":1,"sequence":47,"prices":[180,156,149,160,168,186,172,198,176,195],"times":[792,1239],"next_num":2,"trial_type":"ticket-choose","trial_index":120,"time_elapsed":1906814,"internal_node_id":"0.0-120.0"},{"result":163,"points":1,"place":2,"phase":1,"sequence":48,"prices":[173,163,185,181,166,148,160,185,176,184],"times":[704,839],"next_num":2,"trial_type":"ticket-choose","trial_index":121,"time_elapsed":1910597,"internal_node_id":"0.0-121.0"},{"result":158,"points":2,"place":1,"phase":1,"sequence":49,"prices":[177,175,186,209,158,181,188,167,208,154],"times":[560,262,239,550,871],"next_num":5,"trial_type":"ticket-choose","trial_index":122,"time_elapsed":1915829,"internal_node_id":"0.0-122.0"},{"responses":[{"value":2,"offby":1,"category":"$115 - $130","category_index":0},{"value":5,"offby":0,"category":"$131 - $145","category_index":1},{"value":10,"offby":-2,"category":"$146 - $160","category_index":2},{"value":25,"offby":3,"category":"$161 - $175","category_index":3},{"value":25,"offby":-9,"category":"$176 - $190","category_index":4},{"value":25,"offby":10,"category":"$191 - $205","category_index":5},{"value":8,"offby":-3,"category":"$206 - $220","category_index":6}],"phase":1,"number":1,"trial_type":"bar-choose","trial_index":123,"time_elapsed":1958446,"internal_node_id":"0.0-123.0"},{"special_comment":"Sometimes there would be a pattern and the best was the last price shown","trial_type":"special_sequence","trial_index":124,"time_elapsed":1980015,"internal_node_id":"0.0-124.0"},{"during":"Nothing","bonus":296,"trial_type":"final","trial_index":125,"time_elapsed":2002423,"internal_node_id":"0.0-125.0"}],"bonus":296}