{"start_time":"2017-05-24 12:02:29","end_time":"2017-05-24 12:33:46","points_phase0":109,"points_phase1":93,"phase_order":0,"age":58,"gender":"m","tries":1,"during":"Nothing","worker_id":"A18SXC3JEN1O0U","assignment_id":"3DHE4R9OCX4XFWO7VP6825WNVDQG25","data":[{"rt":16670,"url":"\/christiane\/tickets\/utils\/consent.html","trial_type":"html","trial_index":0,"time_elapsed":16825,"internal_node_id":"0.0-0.0"},{"age":58,"gender":"m","trial_type":"age","trial_index":1,"time_elapsed":27241,"internal_node_id":"0.0-1.0"},{"worker_id":"A18SXC3JEN1O0U","trial_type":"workerid","trial_index":2,"time_elapsed":40170,"internal_node_id":"0.0-2.0"},{"tries":1,"trial_type":"instructions_check","trial_index":3,"time_elapsed":59794,"internal_node_id":"0.0-3.0"},{"rt":30279,"url":"\/christiane\/tickets\/utils\/start.html","trial_type":"html","trial_index":4,"time_elapsed":91210,"internal_node_id":"0.0-4.0"},{"trial_type":"number-animation","trial_index":5,"time_elapsed":141789,"internal_node_id":"0.0-5.0"},{"phase":0,"sequence":0,"avg":181,"response":174,"trial_type":"training_avg","trial_index":6,"time_elapsed":162556,"internal_node_id":"0.0-6.0"},{"trial_type":"number-animation","trial_index":7,"time_elapsed":183012,"internal_node_id":"0.0-7.0"},{"phase":0,"sequence":1,"avg":188,"response":175,"trial_type":"training_avg","trial_index":8,"time_elapsed":194395,"internal_node_id":"0.0-8.0"},{"trial_type":"number-animation","trial_index":9,"time_elapsed":207394,"internal_node_id":"0.0-9.0"},{"phase":0,"sequence":2,"avg":188,"response":182,"trial_type":"training_avg","trial_index":10,"time_elapsed":216482,"internal_node_id":"0.0-10.0"},{"trial_type":"number-animation","trial_index":11,"time_elapsed":226717,"internal_node_id":"0.0-11.0"},{"phase":0,"sequence":3,"avg":177,"response":162,"trial_type":"training_avg","trial_index":12,"time_elapsed":235234,"internal_node_id":"0.0-12.0"},{"trial_type":"number-animation","trial_index":13,"time_elapsed":244076,"internal_node_id":"0.0-13.0"},{"phase":0,"sequence":4,"avg":182,"response":171,"trial_type":"training_avg","trial_index":14,"time_elapsed":253513,"internal_node_id":"0.0-14.0"},{"responses":[{"value":0,"offby":-1,"category":"$115 - $130","category_index":0},{"value":0,"offby":-5,"category":"$131 - $145","category_index":1},{"value":15,"offby":3,"category":"$146 - $160","category_index":2},{"value":20,"offby":-2,"category":"$161 - $175","category_index":3},{"value":35,"offby":1,"category":"$176 - $190","category_index":4},{"value":20,"offby":5,"category":"$191 - $205","category_index":5},{"value":10,"offby":-1,"category":"$206 - $220","category_index":6}],"phase":0,"number":0,"trial_type":"bar-choose","trial_index":15,"time_elapsed":368552,"internal_node_id":"0.0-15.0"},{"rt":32798,"url":"\/christiane\/tickets\/utils\/testing.html","trial_type":"html","trial_index":16,"time_elapsed":402510,"internal_node_id":"0.0-16.0"},{"phase":0,"order":[11,30,31,4,35,9,48,33,27,10,25,21,28,23,42,37,43,16,13,38,49,34,40,0,7,5,6,20,15,39,8,14,1,45,18,36,29,32,12,3,46,19,24,2,41,26,17,22,47,44],"trial_type":"store_order","trial_index":17,"time_elapsed":403510,"internal_node_id":"0.0-17.0"},{"result":165,"points":2,"place":1,"phase":0,"sequence":-1,"prices":[184,180,224,165,181,199,185,193,218,146],"times":[5111,1277,735,2289],"next_num":4,"trial_type":"ticket-choose","trial_index":18,"time_elapsed":416748,"internal_node_id":"0.0-18.0"},{"rt":12585,"url":"\/christiane\/tickets\/utils\/testing_after.html","trial_type":"html","trial_index":19,"time_elapsed":430485,"internal_node_id":"0.0-19.0"},{"result":165,"points":2,"place":1,"phase":0,"sequence":0,"prices":[174,186,177,217,181,187,165,166,153,209],"times":[3799,702,703,672,909,631,1511],"next_num":7,"trial_type":"ticket-choose","trial_index":20,"time_elapsed":443656,"internal_node_id":"0.0-20.0"},{"result":170,"points":1,"place":2,"phase":0,"sequence":1,"prices":[191,172,169,175,182,203,170,195,165,176],"times":[2015,876,1463,652,637,710,2125],"next_num":7,"trial_type":"ticket-choose","trial_index":21,"time_elapsed":456074,"internal_node_id":"0.0-21.0"},{"result":167,"points":1,"place":2,"phase":0,"sequence":2,"prices":[171,203,175,170,167,220,192,186,165,165],"times":[3121,652,727,892,2008],"next_num":5,"trial_type":"ticket-choose","trial_index":22,"time_elapsed":466713,"internal_node_id":"0.0-22.0"},{"result":156,"points":3,"place":0,"phase":0,"sequence":3,"prices":[175,185,178,215,181,186,167,168,208,156],"times":[1363,761,652,694,760,734,1368,919,661,1393],"next_num":10,"trial_type":"ticket-choose","trial_index":23,"time_elapsed":480628,"internal_node_id":"0.0-23.0"},{"result":144,"points":3,"place":0,"phase":0,"sequence":4,"prices":[168,154,172,185,195,144,184,211,177,227],"times":[1678,622,635,657,600,1479],"next_num":6,"trial_type":"ticket-choose","trial_index":24,"time_elapsed":489916,"internal_node_id":"0.0-24.0"},{"result":153,"points":3,"place":0,"phase":0,"sequence":5,"prices":[175,186,177,210,179,187,165,166,153,208],"times":[1635,633,615,623,727,679,649,1118,1351],"next_num":9,"trial_type":"ticket-choose","trial_index":25,"time_elapsed":502106,"internal_node_id":"0.0-25.0"},{"result":147,"points":3,"place":0,"phase":0,"sequence":6,"prices":[181,215,169,147,182,193,177,184,176,179],"times":[1474,670,838,2597],"next_num":4,"trial_type":"ticket-choose","trial_index":26,"time_elapsed":511209,"internal_node_id":"0.0-26.0"},{"result":165,"points":3,"place":0,"phase":0,"sequence":7,"prices":[183,182,192,168,173,205,167,187,165,170],"times":[1122,749,596,631,694,775,831,631,1407],"next_num":9,"trial_type":"ticket-choose","trial_index":27,"time_elapsed":522929,"internal_node_id":"0.0-27.0"},{"result":186,"points":1,"place":4,"phase":0,"sequence":8,"prices":[192,165,171,178,188,217,172,195,197,186],"times":[1305,567,614,639,694,647,703,638,702,1623],"next_num":11,"trial_type":"ticket-choose","trial_index":28,"time_elapsed":535794,"internal_node_id":"0.0-28.0"},{"result":165,"points":2,"place":1,"phase":0,"sequence":9,"prices":[175,187,177,209,180,188,165,165,154,208],"times":[1455,679,721,716,822,1116,1256],"next_num":7,"trial_type":"ticket-choose","trial_index":29,"time_elapsed":546434,"internal_node_id":"0.0-29.0"},{"result":165,"points":2,"place":1,"phase":0,"sequence":10,"prices":[201,165,162,166,185,214,165,202,204,179],"times":[1216,1662],"next_num":2,"trial_type":"ticket-choose","trial_index":30,"time_elapsed":552171,"internal_node_id":"0.0-30.0"},{"result":158,"points":2,"place":1,"phase":0,"sequence":11,"prices":[175,186,177,221,180,187,158,166,209,153],"times":[1193,686,848,673,734,687,2374],"next_num":7,"trial_type":"ticket-choose","trial_index":31,"time_elapsed":563172,"internal_node_id":"0.0-31.0"},{"result":165,"points":3,"place":0,"phase":0,"sequence":12,"prices":[196,165,170,184,187,211,171,201,202,185],"times":[1146,1176],"next_num":2,"trial_type":"ticket-choose","trial_index":32,"time_elapsed":568283,"internal_node_id":"0.0-32.0"},{"result":158,"points":2,"place":1,"phase":0,"sequence":13,"prices":[176,187,177,225,181,187,158,165,208,153],"times":[1674,613,729,936,789,714,1262],"next_num":7,"trial_type":"ticket-choose","trial_index":33,"time_elapsed":578802,"internal_node_id":"0.0-33.0"},{"result":143,"points":3,"place":0,"phase":0,"sequence":14,"prices":[222,173,202,197,143,205,198,183,178,186],"times":[1153,637,727,665,1360],"next_num":5,"trial_type":"ticket-choose","trial_index":34,"time_elapsed":587115,"internal_node_id":"0.0-34.0"},{"result":163,"points":2,"place":1,"phase":0,"sequence":15,"prices":[198,193,169,163,202,182,152,164,177,171],"times":[1370,699,1073,1411],"next_num":4,"trial_type":"ticket-choose","trial_index":35,"time_elapsed":594756,"internal_node_id":"0.0-35.0"},{"result":170,"points":2,"place":1,"phase":0,"sequence":16,"prices":[201,187,157,184,198,179,188,185,178,170],"times":[1555,758,690,734,671,767,655,687,1007,808],"next_num":11,"trial_type":"ticket-choose","trial_index":36,"time_elapsed":607932,"internal_node_id":"0.0-36.0"},{"result":163,"points":2,"place":1,"phase":0,"sequence":17,"prices":[175,187,176,209,180,188,163,165,154,208],"times":[1507,704,965,727,1001,966,2010],"next_num":7,"trial_type":"ticket-choose","trial_index":37,"time_elapsed":619752,"internal_node_id":"0.0-37.0"},{"result":163,"points":2,"place":1,"phase":0,"sequence":18,"prices":[175,187,163,209,180,188,176,165,154,208],"times":[2422,734,1519],"next_num":3,"trial_type":"ticket-choose","trial_index":38,"time_elapsed":627441,"internal_node_id":"0.0-38.0"},{"result":163,"points":3,"place":0,"phase":0,"sequence":19,"prices":[168,199,196,198,185,195,227,163,177,166],"times":[1663,678,681,752,704,1280,816,1412],"next_num":8,"trial_type":"ticket-choose","trial_index":39,"time_elapsed":639561,"internal_node_id":"0.0-39.0"},{"result":163,"points":1,"place":2,"phase":0,"sequence":20,"prices":[183,163,185,180,166,148,160,186,176,184],"times":[3008,1414],"next_num":2,"trial_type":"ticket-choose","trial_index":40,"time_elapsed":647131,"internal_node_id":"0.0-40.0"},{"result":155,"points":2,"place":1,"phase":0,"sequence":21,"prices":[181,155,148,161,168,187,172,199,176,194],"times":[1228,1678],"next_num":2,"trial_type":"ticket-choose","trial_index":41,"time_elapsed":652801,"internal_node_id":"0.0-41.0"},{"result":150,"points":3,"place":0,"phase":0,"sequence":22,"prices":[189,150,175,160,188,207,158,194,178,199],"times":[1687,1167],"next_num":2,"trial_type":"ticket-choose","trial_index":42,"time_elapsed":658945,"internal_node_id":"0.0-42.0"},{"result":167,"points":2,"place":1,"phase":0,"sequence":23,"prices":[174,186,167,211,181,188,178,168,208,156],"times":[1439,672,1434],"next_num":3,"trial_type":"ticket-choose","trial_index":43,"time_elapsed":665457,"internal_node_id":"0.0-43.0"},{"result":165,"points":2,"place":1,"phase":0,"sequence":24,"prices":[175,187,165,209,180,188,177,166,154,208],"times":[1245,677,1337],"next_num":3,"trial_type":"ticket-choose","trial_index":44,"time_elapsed":671754,"internal_node_id":"0.0-44.0"},{"result":167,"points":2,"place":1,"phase":0,"sequence":25,"prices":[175,186,178,212,179,187,167,169,209,153],"times":[3112,660,616,678,895,707,1322],"next_num":7,"trial_type":"ticket-choose","trial_index":45,"time_elapsed":683684,"internal_node_id":"0.0-45.0"},{"result":165,"points":2,"place":1,"phase":0,"sequence":26,"prices":[175,186,165,214,179,187,177,166,153,208],"times":[2704,745,1463],"next_num":3,"trial_type":"ticket-choose","trial_index":46,"time_elapsed":691963,"internal_node_id":"0.0-46.0"},{"result":158,"points":2,"place":1,"phase":0,"sequence":27,"prices":[176,187,158,210,181,187,177,165,208,153],"times":[296610,1080,1996],"next_num":3,"trial_type":"ticket-choose","trial_index":47,"time_elapsed":994643,"internal_node_id":"0.0-47.0"},{"result":163,"points":2,"place":1,"phase":0,"sequence":28,"prices":[175,186,176,210,179,187,163,166,153,208],"times":[2370,2151,840,751,774,1079,1656],"next_num":7,"trial_type":"ticket-choose","trial_index":48,"time_elapsed":1008074,"internal_node_id":"0.0-48.0"},{"result":167,"points":2,"place":1,"phase":0,"sequence":29,"prices":[189,167,180,197,165,168,172,213,178,171],"times":[1901,2706],"next_num":2,"trial_type":"ticket-choose","trial_index":49,"time_elapsed":1015268,"internal_node_id":"0.0-49.0"},{"result":165,"points":2,"place":1,"phase":0,"sequence":30,"prices":[174,186,165,212,181,187,177,167,153,209],"times":[1541,662,1829],"next_num":3,"trial_type":"ticket-choose","trial_index":50,"time_elapsed":1022259,"internal_node_id":"0.0-50.0"},{"result":163,"points":2,"place":1,"phase":0,"sequence":31,"prices":[174,186,163,212,181,187,176,166,153,209],"times":[34946,822,1639],"next_num":3,"trial_type":"ticket-choose","trial_index":51,"time_elapsed":1063787,"internal_node_id":"0.0-51.0"},{"result":156,"points":3,"place":0,"phase":0,"sequence":32,"prices":[175,185,167,224,181,186,178,168,208,156],"times":[2094,961,1893,728,742,761,680,1102,710,1472],"next_num":10,"trial_type":"ticket-choose","trial_index":52,"time_elapsed":1086292,"internal_node_id":"0.0-52.0"},{"result":167,"points":2,"place":1,"phase":0,"sequence":33,"prices":[212,192,188,184,167,193,189,164,176,170],"times":[3373,32312,1310,1633,3774],"next_num":5,"trial_type":"ticket-choose","trial_index":53,"time_elapsed":1133532,"internal_node_id":"0.0-53.0"},{"result":158,"points":2,"place":1,"phase":0,"sequence":34,"prices":[175,186,158,211,180,187,177,166,209,153],"times":[1914,1147,2330],"next_num":3,"trial_type":"ticket-choose","trial_index":54,"time_elapsed":1142556,"internal_node_id":"0.0-54.0"},{"result":165,"points":2,"place":1,"phase":0,"sequence":35,"prices":[188,200,165,172,198,174,177,154,177,180],"times":[1389,959,1680],"next_num":3,"trial_type":"ticket-choose","trial_index":55,"time_elapsed":1150822,"internal_node_id":"0.0-55.0"},{"result":165,"points":3,"place":0,"phase":0,"sequence":36,"prices":[185,170,182,201,173,199,171,188,165,168],"times":[1455,1269,639,1008,1030,686,2271,1518,1359],"next_num":9,"trial_type":"ticket-choose","trial_index":56,"time_elapsed":1170362,"internal_node_id":"0.0-56.0"},{"result":169,"points":2,"place":1,"phase":0,"sequence":37,"prices":[193,169,171,187,190,224,174,194,165,188],"times":[2973,2646],"next_num":2,"trial_type":"ticket-choose","trial_index":57,"time_elapsed":1179059,"internal_node_id":"0.0-57.0"},{"result":163,"points":2,"place":1,"phase":0,"sequence":38,"prices":[175,186,163,214,179,187,176,166,153,208],"times":[1710,799,1568],"next_num":3,"trial_type":"ticket-choose","trial_index":58,"time_elapsed":1186068,"internal_node_id":"0.0-58.0"},{"result":167,"points":2,"place":1,"phase":0,"sequence":39,"prices":[174,186,178,217,181,188,167,168,208,156],"times":[1716,908,952,926,1319,759,1568],"next_num":7,"trial_type":"ticket-choose","trial_index":59,"time_elapsed":1197948,"internal_node_id":"0.0-59.0"},{"result":158,"points":3,"place":0,"phase":0,"sequence":40,"prices":[210,184,226,193,215,158,199,175,176,208],"times":[1355,1041,734,1264,792,1686],"next_num":6,"trial_type":"ticket-choose","trial_index":60,"time_elapsed":1209026,"internal_node_id":"0.0-60.0"},{"result":158,"points":2,"place":1,"phase":0,"sequence":41,"prices":[175,186,158,209,181,188,177,167,208,154],"times":[7148,1558,1476],"next_num":3,"trial_type":"ticket-choose","trial_index":61,"time_elapsed":1223554,"internal_node_id":"0.0-61.0"},{"result":165,"points":3,"place":0,"phase":0,"sequence":42,"prices":[193,165,175,181,185,224,180,199,218,184],"times":[2683,2670],"next_num":2,"trial_type":"ticket-choose","trial_index":62,"time_elapsed":1232186,"internal_node_id":"0.0-62.0"},{"result":167,"points":2,"place":1,"phase":0,"sequence":43,"prices":[175,186,167,225,179,187,178,169,209,153],"times":[1902,793,1333],"next_num":3,"trial_type":"ticket-choose","trial_index":63,"time_elapsed":1239643,"internal_node_id":"0.0-63.0"},{"result":155,"points":2,"place":1,"phase":0,"sequence":44,"prices":[201,207,155,158,156,165,167,135,178,177],"times":[3516,661,1311],"next_num":3,"trial_type":"ticket-choose","trial_index":64,"time_elapsed":1248540,"internal_node_id":"0.0-64.0"},{"result":165,"points":2,"place":1,"phase":0,"sequence":45,"prices":[200,165,165,173,182,207,161,202,204,180],"times":[2128,1207],"next_num":2,"trial_type":"ticket-choose","trial_index":65,"time_elapsed":1255675,"internal_node_id":"0.0-65.0"},{"result":163,"points":2,"place":1,"phase":0,"sequence":46,"prices":[174,186,176,217,181,187,163,166,153,209],"times":[5091,693,689,712,966,750,1231],"next_num":7,"trial_type":"ticket-choose","trial_index":66,"time_elapsed":1270563,"internal_node_id":"0.0-66.0"},{"result":158,"points":2,"place":1,"phase":0,"sequence":47,"prices":[175,186,177,209,181,188,158,167,208,154],"times":[1653,806,1134,952,746,1269,1148],"next_num":7,"trial_type":"ticket-choose","trial_index":67,"time_elapsed":1282170,"internal_node_id":"0.0-67.0"},{"result":152,"points":3,"place":0,"phase":0,"sequence":48,"prices":[200,181,203,152,175,171,160,154,176,191],"times":[1566,967,862,1765],"next_num":4,"trial_type":"ticket-choose","trial_index":68,"time_elapsed":1290579,"internal_node_id":"0.0-68.0"},{"result":159,"points":1,"place":2,"phase":0,"sequence":49,"prices":[180,159,149,175,185,141,163,174,178,207],"times":[1687,1277],"next_num":2,"trial_type":"ticket-choose","trial_index":69,"time_elapsed":1297484,"internal_node_id":"0.0-69.0"},{"responses":[{"value":0,"offby":-1,"category":"$115 - $130","category_index":0},{"value":0,"offby":-5,"category":"$131 - $145","category_index":1},{"value":10,"offby":-2,"category":"$146 - $160","category_index":2},{"value":25,"offby":3,"category":"$161 - $175","category_index":3},{"value":35,"offby":1,"category":"$176 - $190","category_index":4},{"value":25,"offby":10,"category":"$191 - $205","category_index":5},{"value":5,"offby":-6,"category":"$206 - $220","category_index":6}],"phase":1,"number":1,"trial_type":"bar-choose","trial_index":70,"time_elapsed":1375432,"internal_node_id":"0.0-70.0"},{"rt":12903,"url":"\/christiane\/tickets\/utils\/testing2.html","trial_type":"point_update","trial_index":71,"time_elapsed":1389675,"internal_node_id":"0.0-71.0"},{"phase":1,"order":[17,5,30,8,25,27,4,9,7,35,29,39,26,36,13,41,18,49,2,28,3,16,15,32,19,0,14,10,46,12,24,45,11,22,23,31,40,21,47,34,37,42,44,6,1,33,43,38,48,20],"trial_type":"store_order","trial_index":72,"time_elapsed":1390676,"internal_node_id":"0.0-72.0"},{"result":163,"points":2,"place":1,"phase":1,"sequence":0,"prices":[176,186,178,217,163,181,187,166,153,209],"times":[4035,909,641,671,2479],"next_num":5,"trial_type":"ticket-choose","trial_index":73,"time_elapsed":1402588,"internal_node_id":"0.0-73.0"},{"result":153,"points":3,"place":0,"phase":1,"sequence":1,"prices":[178,175,186,212,167,179,187,169,209,153],"times":[3514,823,680,694,1214,606,712,1686,599,1536],"next_num":10,"trial_type":"ticket-choose","trial_index":74,"time_elapsed":1419082,"internal_node_id":"0.0-74.0"},{"result":165,"points":2,"place":1,"phase":1,"sequence":2,"prices":[191,170,182,165,175,182,203,157,195,200],"times":[1441,974,665,1479],"next_num":4,"trial_type":"ticket-choose","trial_index":75,"time_elapsed":1426610,"internal_node_id":"0.0-75.0"},{"result":165,"points":2,"place":1,"phase":1,"sequence":3,"prices":[165,174,186,212,177,181,187,166,153,209],"times":[9014],"next_num":1,"trial_type":"ticket-choose","trial_index":76,"time_elapsed":1438091,"internal_node_id":"0.0-76.0"},{"result":166,"points":1,"place":3,"phase":1,"sequence":4,"prices":[201,204,179,166,185,165,214,156,202,165],"times":[4887,824,1311,2024],"next_num":4,"trial_type":"ticket-choose","trial_index":77,"time_elapsed":1449947,"internal_node_id":"0.0-77.0"},{"result":197,"points":0,"place":8,"phase":1,"sequence":5,"prices":[192,172,171,178,188,165,217,168,195,197],"times":[1222,526,583,630,624,1245,601,1102,631,692],"next_num":11,"trial_type":"ticket-choose","trial_index":78,"time_elapsed":1462369,"internal_node_id":"0.0-78.0"},{"result":168,"points":1,"place":2,"phase":1,"sequence":6,"prices":[178,175,185,215,167,181,186,168,208,156],"times":[1733,690,653,626,1167,687,774,1904],"next_num":8,"trial_type":"ticket-choose","trial_index":79,"time_elapsed":1474313,"internal_node_id":"0.0-79.0"},{"result":165,"points":2,"place":1,"phase":1,"sequence":7,"prices":[177,175,186,210,165,179,187,166,153,208],"times":[1522,1447,613,784,1360],"next_num":5,"trial_type":"ticket-choose","trial_index":80,"time_elapsed":1483514,"internal_node_id":"0.0-80.0"},{"result":165,"points":2,"place":1,"phase":1,"sequence":8,"prices":[165,175,187,209,177,180,188,167,154,208],"times":[2019],"next_num":1,"trial_type":"ticket-choose","trial_index":81,"time_elapsed":1487882,"internal_node_id":"0.0-81.0"},{"result":153,"points":2,"place":1,"phase":1,"sequence":9,"prices":[167,153,172,185,195,143,184,211,177,227],"times":[1471,1536],"next_num":2,"trial_type":"ticket-choose","trial_index":82,"time_elapsed":1493282,"internal_node_id":"0.0-82.0"},{"result":165,"points":1,"place":2,"phase":1,"sequence":10,"prices":[185,179,191,165,161,173,199,150,188,168],"times":[1596,1343,753,1657],"next_num":4,"trial_type":"ticket-choose","trial_index":83,"time_elapsed":1501500,"internal_node_id":"0.0-83.0"},{"result":167,"points":2,"place":1,"phase":1,"sequence":11,"prices":[189,167,180,197,165,168,172,213,178,171],"times":[1147,1317],"next_num":2,"trial_type":"ticket-choose","trial_index":84,"time_elapsed":1506346,"internal_node_id":"0.0-84.0"},{"result":165,"points":1,"place":2,"phase":1,"sequence":12,"prices":[200,173,182,169,207,165,152,202,161,204],"times":[1462,934,615,886,703,1433],"next_num":6,"trial_type":"ticket-choose","trial_index":85,"time_elapsed":1515676,"internal_node_id":"0.0-85.0"},{"result":165,"points":2,"place":1,"phase":1,"sequence":13,"prices":[187,201,165,172,196,174,178,154,172,180],"times":[1238,709,2082],"next_num":3,"trial_type":"ticket-choose","trial_index":86,"time_elapsed":1522347,"internal_node_id":"0.0-86.0"},{"result":165,"points":1,"place":2,"phase":1,"sequence":14,"prices":[163,175,187,209,176,180,188,165,154,208],"times":[1248,646,656,606,576,652,641,1335],"next_num":8,"trial_type":"ticket-choose","trial_index":87,"time_elapsed":1532548,"internal_node_id":"0.0-87.0"},{"result":155,"points":2,"place":1,"phase":1,"sequence":15,"prices":[200,207,155,158,156,168,167,135,178,177],"times":[1132,538,1334],"next_num":3,"trial_type":"ticket-choose","trial_index":88,"time_elapsed":1538348,"internal_node_id":"0.0-88.0"},{"result":158,"points":2,"place":1,"phase":1,"sequence":16,"prices":[158,175,186,211,177,180,187,166,209,153],"times":[1543],"next_num":1,"trial_type":"ticket-choose","trial_index":89,"time_elapsed":1542364,"internal_node_id":"0.0-89.0"},{"result":163,"points":1,"place":2,"phase":1,"sequence":17,"prices":[173,163,185,181,166,148,160,185,176,184],"times":[957,1166],"next_num":2,"trial_type":"ticket-choose","trial_index":90,"time_elapsed":1547154,"internal_node_id":"0.0-90.0"},{"result":153,"points":3,"place":0,"phase":1,"sequence":18,"prices":[167,175,186,225,178,179,187,169,209,153],"times":[1055,656,612,670,653,594,639,1175,583,1311],"next_num":10,"trial_type":"ticket-choose","trial_index":91,"time_elapsed":1559755,"internal_node_id":"0.0-91.0"},{"result":202,"points":0,"place":8,"phase":1,"sequence":19,"prices":[196,171,170,184,187,165,211,169,201,202],"times":[1068,677,632,655,605,895,631,669,661,721],"next_num":11,"trial_type":"ticket-choose","trial_index":92,"time_elapsed":1571451,"internal_node_id":"0.0-92.0"},{"result":156,"points":3,"place":0,"phase":1,"sequence":20,"prices":[178,174,186,217,167,181,188,168,208,156],"times":[1325,805,567,616,652,639,622,737,695,1295],"next_num":10,"trial_type":"ticket-choose","trial_index":93,"time_elapsed":1584018,"internal_node_id":"0.0-93.0"},{"result":163,"points":2,"place":1,"phase":1,"sequence":21,"prices":[176,187,179,209,163,180,188,165,154,208],"times":[1092,727,632,637,1554],"next_num":5,"trial_type":"ticket-choose","trial_index":94,"time_elapsed":1591891,"internal_node_id":"0.0-94.0"},{"result":163,"points":2,"place":1,"phase":1,"sequence":22,"prices":[176,175,186,210,163,179,187,166,153,208],"times":[1356,720,621,632,1232],"next_num":5,"trial_type":"ticket-choose","trial_index":95,"time_elapsed":1600521,"internal_node_id":"0.0-95.0"},{"result":165,"points":2,"place":1,"phase":1,"sequence":23,"prices":[193,174,224,165,187,190,224,161,194,195],"times":[1491,726,661,1664],"next_num":4,"trial_type":"ticket-choose","trial_index":96,"time_elapsed":1608260,"internal_node_id":"0.0-96.0"},{"result":158,"points":2,"place":1,"phase":1,"sequence":24,"prices":[158,175,186,209,177,181,188,167,208,154],"times":[1800],"next_num":1,"trial_type":"ticket-choose","trial_index":97,"time_elapsed":1612435,"internal_node_id":"0.0-97.0"},{"result":168,"points":1,"place":2,"phase":1,"sequence":25,"prices":[167,174,186,211,178,181,188,168,208,156],"times":[1764,673,582,617,664,703,727,2378],"next_num":8,"trial_type":"ticket-choose","trial_index":98,"time_elapsed":1624444,"internal_node_id":"0.0-98.0"},{"result":163,"points":2,"place":1,"phase":1,"sequence":26,"prices":[163,174,186,212,176,181,187,166,153,209],"times":[2608],"next_num":1,"trial_type":"ticket-choose","trial_index":99,"time_elapsed":1629396,"internal_node_id":"0.0-99.0"},{"result":165,"points":2,"place":1,"phase":1,"sequence":27,"prices":[177,175,187,209,165,180,188,165,154,208],"times":[1189,767,687,686,1184],"next_num":5,"trial_type":"ticket-choose","trial_index":100,"time_elapsed":1637091,"internal_node_id":"0.0-100.0"},{"result":158,"points":3,"place":0,"phase":1,"sequence":28,"prices":[214,184,226,192,215,158,199,175,176,208],"times":[1228,1145,670,735,662,1279],"next_num":6,"trial_type":"ticket-choose","trial_index":101,"time_elapsed":1646746,"internal_node_id":"0.0-101.0"},{"result":163,"points":2,"place":1,"phase":1,"sequence":29,"prices":[163,175,186,214,176,179,187,166,153,208],"times":[1929],"next_num":1,"trial_type":"ticket-choose","trial_index":102,"time_elapsed":1650979,"internal_node_id":"0.0-102.0"},{"result":165,"points":3,"place":0,"phase":1,"sequence":30,"prices":[193,181,175,181,185,165,224,199,218,184],"times":[1487,590,1055,639,665,1268],"next_num":6,"trial_type":"ticket-choose","trial_index":103,"time_elapsed":1660292,"internal_node_id":"0.0-103.0"},{"result":164,"points":3,"place":0,"phase":1,"sequence":31,"prices":[199,191,188,174,167,193,189,164,176,170],"times":[1234,1062,622,751,1423,1902,687,1671],"next_num":8,"trial_type":"ticket-choose","trial_index":104,"time_elapsed":1673971,"internal_node_id":"0.0-104.0"},{"result":174,"points":1,"place":3,"phase":1,"sequence":32,"prices":[177,174,186,217,165,181,187,166,153,209],"times":[1639,1631],"next_num":2,"trial_type":"ticket-choose","trial_index":105,"time_elapsed":1679931,"internal_node_id":"0.0-105.0"},{"result":158,"points":2,"place":1,"phase":1,"sequence":33,"prices":[177,175,186,209,158,181,188,167,208,154],"times":[1259,879,718,629,1227],"next_num":5,"trial_type":"ticket-choose","trial_index":106,"time_elapsed":1687977,"internal_node_id":"0.0-106.0"},{"result":176,"points":1,"place":3,"phase":1,"sequence":34,"prices":[177,176,187,225,158,181,187,165,208,153],"times":[1238,1613],"next_num":2,"trial_type":"ticket-choose","trial_index":107,"time_elapsed":1693906,"internal_node_id":"0.0-107.0"},{"result":169,"points":0,"place":5,"phase":1,"sequence":35,"prices":[171,169,186,165,163,167,220,148,187,165],"times":[1206,1278],"next_num":2,"trial_type":"ticket-choose","trial_index":108,"time_elapsed":1699363,"internal_node_id":"0.0-108.0"},{"result":150,"points":3,"place":0,"phase":1,"sequence":36,"prices":[190,150,175,161,188,207,157,194,178,199],"times":[1403,1735],"next_num":2,"trial_type":"ticket-choose","trial_index":109,"time_elapsed":1705361,"internal_node_id":"0.0-109.0"},{"result":158,"points":2,"place":1,"phase":1,"sequence":37,"prices":[177,175,186,221,158,180,187,166,209,153],"times":[1332,1079,704,630,1298],"next_num":5,"trial_type":"ticket-choose","trial_index":110,"time_elapsed":1713707,"internal_node_id":"0.0-110.0"},{"result":152,"points":3,"place":0,"phase":1,"sequence":38,"prices":[200,180,203,152,175,170,160,154,176,191],"times":[1013,616,694,1215],"next_num":4,"trial_type":"ticket-choose","trial_index":111,"time_elapsed":1720442,"internal_node_id":"0.0-111.0"},{"result":156,"points":2,"place":1,"phase":1,"sequence":39,"prices":[180,156,149,160,168,186,172,198,176,195],"times":[1111,1247],"next_num":2,"trial_type":"ticket-choose","trial_index":112,"time_elapsed":1725426,"internal_node_id":"0.0-112.0"},{"result":165,"points":1,"place":2,"phase":1,"sequence":40,"prices":[199,193,169,165,202,182,151,164,176,171],"times":[1466,597,577,1263],"next_num":4,"trial_type":"ticket-choose","trial_index":113,"time_elapsed":1732555,"internal_node_id":"0.0-113.0"},{"result":186,"points":1,"place":4,"phase":1,"sequence":41,"prices":[220,173,201,197,169,205,198,183,178,186],"times":[1331,647,656,678,799,709,663,663,1055,1447],"next_num":11,"trial_type":"ticket-choose","trial_index":114,"time_elapsed":1745692,"internal_node_id":"0.0-114.0"},{"result":159,"points":1,"place":2,"phase":1,"sequence":42,"prices":[181,159,149,175,185,151,163,174,178,207],"times":[1501,1167],"next_num":2,"trial_type":"ticket-choose","trial_index":115,"time_elapsed":1750932,"internal_node_id":"0.0-115.0"},{"result":165,"points":2,"place":1,"phase":1,"sequence":43,"prices":[165,175,186,214,177,179,187,166,153,208],"times":[1472],"next_num":1,"trial_type":"ticket-choose","trial_index":116,"time_elapsed":1754963,"internal_node_id":"0.0-116.0"},{"result":167,"points":2,"place":1,"phase":1,"sequence":44,"prices":[167,175,185,224,178,181,186,168,208,156],"times":[1764],"next_num":1,"trial_type":"ticket-choose","trial_index":117,"time_elapsed":1759213,"internal_node_id":"0.0-117.0"},{"result":165,"points":2,"place":1,"phase":1,"sequence":45,"prices":[183,179,188,165,168,173,205,159,187,191],"times":[1435,862,736,1335],"next_num":4,"trial_type":"ticket-choose","trial_index":118,"time_elapsed":1766700,"internal_node_id":"0.0-118.0"},{"result":157,"points":3,"place":0,"phase":1,"sequence":46,"prices":[201,187,157,184,198,179,188,185,178,170],"times":[1156,682,1158],"next_num":3,"trial_type":"ticket-choose","trial_index":119,"time_elapsed":1772810,"internal_node_id":"0.0-119.0"},{"result":163,"points":3,"place":0,"phase":1,"sequence":47,"prices":[163,199,196,199,185,195,227,163,177,166],"times":[1569,639,679,615,668,665,903,1290],"next_num":8,"trial_type":"ticket-choose","trial_index":120,"time_elapsed":1784300,"internal_node_id":"0.0-120.0"},{"result":147,"points":3,"place":0,"phase":1,"sequence":48,"prices":[181,214,169,147,182,193,178,184,176,179],"times":[2838,616,573,1273],"next_num":4,"trial_type":"ticket-choose","trial_index":121,"time_elapsed":1792690,"internal_node_id":"0.0-121.0"},{"result":158,"points":2,"place":1,"phase":1,"sequence":49,"prices":[158,176,187,210,177,181,187,165,208,153],"times":[1336],"next_num":1,"trial_type":"ticket-choose","trial_index":122,"time_elapsed":1796315,"internal_node_id":"0.0-122.0"},{"responses":[{"value":0,"offby":-1,"category":"$115 - $130","category_index":0},{"value":0,"offby":-5,"category":"$131 - $145","category_index":1},{"value":25,"offby":13,"category":"$146 - $160","category_index":2},{"value":30,"offby":8,"category":"$161 - $175","category_index":3},{"value":35,"offby":1,"category":"$176 - $190","category_index":4},{"value":10,"offby":-5,"category":"$191 - $205","category_index":5},{"value":0,"offby":-11,"category":"$206 - $220","category_index":6}],"phase":1,"number":1,"trial_type":"bar-choose","trial_index":123,"time_elapsed":1842771,"internal_node_id":"0.0-123.0"},{"special_comment":"no","trial_type":"special_sequence","trial_index":124,"time_elapsed":1850284,"internal_node_id":"0.0-124.0"},{"during":"Nothing","bonus":268,"trial_type":"final","trial_index":125,"time_elapsed":1873046,"internal_node_id":"0.0-125.0"}],"bonus":268}