{"start_time":"2017-05-24 08:57:09","end_time":"2017-05-24 09:19:50","points_phase0":118,"points_phase1":98,"phase_order":0,"age":22,"gender":"f","tries":1,"during":"Nothing","worker_id":"A19F0UPKU4IT2P","assignment_id":"3YMTUJH0DT9BNFP0J3O3U38A5KDT44","data":[{"rt":128933,"url":"\/christiane\/tickets\/utils\/consent.html","trial_type":"html","trial_index":0,"time_elapsed":129006,"internal_node_id":"0.0-0.0"},{"age":22,"gender":"f","trial_type":"age","trial_index":1,"time_elapsed":134581,"internal_node_id":"0.0-1.0"},{"worker_id":"A19F0UPKU4IT2P","trial_type":"workerid","trial_index":2,"time_elapsed":140011,"internal_node_id":"0.0-2.0"},{"tries":1,"trial_type":"instructions_check","trial_index":3,"time_elapsed":176555,"internal_node_id":"0.0-3.0"},{"rt":14250,"url":"\/christiane\/tickets\/utils\/start.html","trial_type":"html","trial_index":4,"time_elapsed":191905,"internal_node_id":"0.0-4.0"},{"trial_type":"number-animation","trial_index":5,"time_elapsed":205344,"internal_node_id":"0.0-5.0"},{"phase":0,"sequence":0,"avg":181,"response":185,"trial_type":"training_avg","trial_index":6,"time_elapsed":218362,"internal_node_id":"0.0-6.0"},{"trial_type":"number-animation","trial_index":7,"time_elapsed":228670,"internal_node_id":"0.0-7.0"},{"phase":0,"sequence":1,"avg":188,"response":178,"trial_type":"training_avg","trial_index":8,"time_elapsed":235587,"internal_node_id":"0.0-8.0"},{"trial_type":"number-animation","trial_index":9,"time_elapsed":253724,"internal_node_id":"0.0-9.0"},{"phase":0,"sequence":2,"avg":188,"response":189,"trial_type":"training_avg","trial_index":10,"time_elapsed":261364,"internal_node_id":"0.0-10.0"},{"trial_type":"number-animation","trial_index":11,"time_elapsed":285666,"internal_node_id":"0.0-11.0"},{"phase":0,"sequence":3,"avg":177,"response":176,"trial_type":"training_avg","trial_index":12,"time_elapsed":292785,"internal_node_id":"0.0-12.0"},{"trial_type":"number-animation","trial_index":13,"time_elapsed":325929,"internal_node_id":"0.0-13.0"},{"phase":0,"sequence":4,"avg":182,"response":182,"trial_type":"training_avg","trial_index":14,"time_elapsed":332073,"internal_node_id":"0.0-14.0"},{"responses":[{"value":0,"offby":-1,"category":"$115 - $130","category_index":0},{"value":5,"offby":0,"category":"$131 - $145","category_index":1},{"value":5,"offby":-7,"category":"$146 - $160","category_index":2},{"value":15,"offby":-7,"category":"$161 - $175","category_index":3},{"value":50,"offby":16,"category":"$176 - $190","category_index":4},{"value":25,"offby":10,"category":"$191 - $205","category_index":5},{"value":0,"offby":-11,"category":"$206 - $220","category_index":6}],"phase":0,"number":0,"trial_type":"bar-choose","trial_index":15,"time_elapsed":401956,"internal_node_id":"0.0-15.0"},{"rt":28636,"url":"\/christiane\/tickets\/utils\/testing.html","trial_type":"html","trial_index":16,"time_elapsed":431699,"internal_node_id":"0.0-16.0"},{"phase":0,"order":[43,26,47,21,34,44,49,19,40,0,29,8,1,14,41,37,13,5,33,12,38,11,7,45,24,35,9,42,23,20,15,31,2,17,4,27,3,28,10,46,36,32,22,30,16,48,25,6,39,18],"trial_type":"store_order","trial_index":17,"time_elapsed":432700,"internal_node_id":"0.0-17.0"},{"result":165,"points":2,"place":1,"phase":0,"sequence":-1,"prices":[184,180,224,165,181,199,185,193,218,146],"times":[1754,784,650,1194],"next_num":4,"trial_type":"ticket-choose","trial_index":18,"time_elapsed":441015,"internal_node_id":"0.0-18.0"},{"rt":19665,"url":"\/christiane\/tickets\/utils\/testing_after.html","trial_type":"html","trial_index":19,"time_elapsed":461777,"internal_node_id":"0.0-19.0"},{"result":157,"points":3,"place":0,"phase":0,"sequence":0,"prices":[201,187,157,184,198,179,188,185,178,170],"times":[1761,659,958],"next_num":3,"trial_type":"ticket-choose","trial_index":20,"time_elapsed":468047,"internal_node_id":"0.0-20.0"},{"result":161,"points":3,"place":0,"phase":0,"sequence":1,"prices":[200,165,165,173,182,207,161,202,204,180],"times":[860,1848,1840,639,554,548,957],"next_num":7,"trial_type":"ticket-choose","trial_index":21,"time_elapsed":478558,"internal_node_id":"0.0-21.0"},{"result":152,"points":3,"place":0,"phase":0,"sequence":2,"prices":[200,181,203,152,175,171,160,154,176,191],"times":[701,597,563,913],"next_num":4,"trial_type":"ticket-choose","trial_index":22,"time_elapsed":483873,"internal_node_id":"0.0-22.0"},{"result":166,"points":1,"place":2,"phase":0,"sequence":3,"prices":[175,186,177,221,180,187,158,166,209,153],"times":[1033,494,761,773,633,768,746,2006],"next_num":8,"trial_type":"ticket-choose","trial_index":23,"time_elapsed":494699,"internal_node_id":"0.0-23.0"},{"result":155,"points":2,"place":1,"phase":0,"sequence":4,"prices":[181,155,148,161,168,187,172,199,176,194],"times":[655,1139],"next_num":2,"trial_type":"ticket-choose","trial_index":24,"time_elapsed":498616,"internal_node_id":"0.0-24.0"},{"result":159,"points":1,"place":2,"phase":0,"sequence":5,"prices":[180,159,149,175,185,141,163,174,178,207],"times":[556,2258],"next_num":2,"trial_type":"ticket-choose","trial_index":25,"time_elapsed":503915,"internal_node_id":"0.0-25.0"},{"result":148,"points":3,"place":0,"phase":0,"sequence":6,"prices":[183,163,185,180,166,148,160,186,176,184],"times":[893,688,588,599,689,1038],"next_num":6,"trial_type":"ticket-choose","trial_index":26,"time_elapsed":511184,"internal_node_id":"0.0-26.0"},{"result":158,"points":2,"place":1,"phase":0,"sequence":7,"prices":[175,186,158,209,181,188,177,167,208,154],"times":[2022,583,1065],"next_num":3,"trial_type":"ticket-choose","trial_index":27,"time_elapsed":517145,"internal_node_id":"0.0-27.0"},{"result":150,"points":3,"place":0,"phase":0,"sequence":8,"prices":[189,150,175,160,188,207,158,194,178,199],"times":[994,863],"next_num":2,"trial_type":"ticket-choose","trial_index":28,"time_elapsed":521031,"internal_node_id":"0.0-28.0"},{"result":156,"points":3,"place":0,"phase":0,"sequence":9,"prices":[174,186,167,211,181,188,178,168,208,156],"times":[713,633,1130,1289,772,831,744,1314,994,875],"next_num":10,"trial_type":"ticket-choose","trial_index":29,"time_elapsed":534108,"internal_node_id":"0.0-29.0"},{"result":165,"points":3,"place":0,"phase":0,"sequence":10,"prices":[185,170,182,201,173,199,171,188,165,168],"times":[684,603,625,607,552,571,548,763,774],"next_num":9,"trial_type":"ticket-choose","trial_index":30,"time_elapsed":543391,"internal_node_id":"0.0-30.0"},{"result":165,"points":2,"place":1,"phase":0,"sequence":11,"prices":[174,186,165,212,181,187,177,167,153,209],"times":[634,567,1000],"next_num":3,"trial_type":"ticket-choose","trial_index":31,"time_elapsed":547822,"internal_node_id":"0.0-31.0"},{"result":168,"points":1,"place":2,"phase":0,"sequence":12,"prices":[175,185,167,224,181,186,178,168,208,156],"times":[809,562,1069,580,559,584,781,1409],"next_num":8,"trial_type":"ticket-choose","trial_index":32,"time_elapsed":557477,"internal_node_id":"0.0-32.0"},{"result":163,"points":2,"place":1,"phase":0,"sequence":13,"prices":[174,186,163,212,181,187,176,166,153,209],"times":[563,563,930],"next_num":3,"trial_type":"ticket-choose","trial_index":33,"time_elapsed":561646,"internal_node_id":"0.0-33.0"},{"result":155,"points":2,"place":1,"phase":0,"sequence":14,"prices":[201,207,155,158,156,165,167,135,178,177],"times":[1115,735,918],"next_num":3,"trial_type":"ticket-choose","trial_index":34,"time_elapsed":566480,"internal_node_id":"0.0-34.0"},{"result":152,"points":3,"place":0,"phase":0,"sequence":15,"prices":[198,193,169,163,202,182,152,164,177,171],"times":[596,531,804,579,567,557,944],"next_num":7,"trial_type":"ticket-choose","trial_index":35,"time_elapsed":574070,"internal_node_id":"0.0-35.0"},{"result":165,"points":1,"place":2,"phase":0,"sequence":16,"prices":[175,187,163,209,180,188,176,165,154,208],"times":[508,511,733,526,605,559,618,1442],"next_num":8,"trial_type":"ticket-choose","trial_index":36,"time_elapsed":582815,"internal_node_id":"0.0-36.0"},{"result":153,"points":3,"place":0,"phase":0,"sequence":17,"prices":[175,186,178,212,179,187,167,169,209,153],"times":[629,612,602,572,561,568,1317,718,675,1498],"next_num":10,"trial_type":"ticket-choose","trial_index":37,"time_elapsed":594602,"internal_node_id":"0.0-37.0"},{"result":165,"points":3,"place":0,"phase":0,"sequence":18,"prices":[183,182,192,168,173,205,167,187,165,170],"times":[857,505,933,658,591,575,956,598,932],"next_num":9,"trial_type":"ticket-choose","trial_index":38,"time_elapsed":604687,"internal_node_id":"0.0-38.0"},{"result":163,"points":2,"place":1,"phase":0,"sequence":19,"prices":[175,186,163,214,179,187,176,166,153,208],"times":[453,611,950],"next_num":3,"trial_type":"ticket-choose","trial_index":39,"time_elapsed":608898,"internal_node_id":"0.0-39.0"},{"result":163,"points":3,"place":0,"phase":0,"sequence":20,"prices":[168,199,196,198,185,195,227,163,177,166],"times":[503,1533,630,585,644,590,588,989],"next_num":8,"trial_type":"ticket-choose","trial_index":40,"time_elapsed":618118,"internal_node_id":"0.0-40.0"},{"result":165,"points":2,"place":1,"phase":0,"sequence":21,"prices":[174,186,177,217,181,187,165,166,153,209],"times":[541,524,555,709,645,584,930],"next_num":7,"trial_type":"ticket-choose","trial_index":41,"time_elapsed":625557,"internal_node_id":"0.0-41.0"},{"result":165,"points":2,"place":1,"phase":0,"sequence":22,"prices":[175,187,165,209,180,188,177,166,154,208],"times":[451,544,1419],"next_num":3,"trial_type":"ticket-choose","trial_index":42,"time_elapsed":630836,"internal_node_id":"0.0-42.0"},{"result":164,"points":3,"place":0,"phase":0,"sequence":23,"prices":[212,192,188,184,167,193,189,164,176,170],"times":[535,585,536,578,736,555,533,1063],"next_num":8,"trial_type":"ticket-choose","trial_index":43,"time_elapsed":639198,"internal_node_id":"0.0-43.0"},{"result":184,"points":1,"place":4,"phase":0,"sequence":24,"prices":[193,165,175,181,185,224,180,199,218,184],"times":[4141,1293,397,565,616,534,510,560,536,1231],"next_num":10,"trial_type":"ticket-choose","trial_index":44,"time_elapsed":653599,"internal_node_id":"0.0-44.0"},{"result":144,"points":3,"place":0,"phase":0,"sequence":25,"prices":[168,154,172,185,195,144,184,211,177,227],"times":[981,468,385,540,556,996],"next_num":6,"trial_type":"ticket-choose","trial_index":45,"time_elapsed":660287,"internal_node_id":"0.0-45.0"},{"result":165,"points":2,"place":1,"phase":0,"sequence":26,"prices":[175,186,177,210,179,187,165,166,153,208],"times":[584,483,537,649,623,546,883],"next_num":7,"trial_type":"ticket-choose","trial_index":46,"time_elapsed":667654,"internal_node_id":"0.0-46.0"},{"result":143,"points":3,"place":0,"phase":0,"sequence":27,"prices":[222,173,202,197,143,205,198,183,178,186],"times":[470,2341,634,762,1196],"next_num":5,"trial_type":"ticket-choose","trial_index":47,"time_elapsed":675660,"internal_node_id":"0.0-47.0"},{"result":158,"points":2,"place":1,"phase":0,"sequence":28,"prices":[176,187,177,225,181,187,158,165,208,153],"times":[434,467,576,567,561,522,852],"next_num":7,"trial_type":"ticket-choose","trial_index":48,"time_elapsed":682619,"internal_node_id":"0.0-48.0"},{"result":153,"points":3,"place":0,"phase":0,"sequence":29,"prices":[176,187,158,210,181,187,177,165,208,153],"times":[1298,499,458,359,507,700,610,1313,568,1063],"next_num":10,"trial_type":"ticket-choose","trial_index":49,"time_elapsed":698235,"internal_node_id":"0.0-49.0"},{"result":163,"points":2,"place":1,"phase":0,"sequence":30,"prices":[175,186,176,210,179,187,163,166,153,208],"times":[1136,493,388,546,513,588,939],"next_num":7,"trial_type":"ticket-choose","trial_index":50,"time_elapsed":705908,"internal_node_id":"0.0-50.0"},{"result":165,"points":3,"place":0,"phase":0,"sequence":31,"prices":[171,203,175,170,167,220,192,186,165,165],"times":[445,360,411,386,398,355,607,558,897],"next_num":9,"trial_type":"ticket-choose","trial_index":51,"time_elapsed":713869,"internal_node_id":"0.0-51.0"},{"result":153,"points":3,"place":0,"phase":0,"sequence":32,"prices":[175,186,167,225,179,187,178,169,209,153],"times":[755,386,366,331,362,567,565,564,429,885],"next_num":10,"trial_type":"ticket-choose","trial_index":52,"time_elapsed":723112,"internal_node_id":"0.0-52.0"},{"result":153,"points":3,"place":0,"phase":0,"sequence":33,"prices":[174,186,176,217,181,187,163,166,153,209],"times":[1002,265,283,304,287,519,797,700,884],"next_num":9,"trial_type":"ticket-choose","trial_index":53,"time_elapsed":731636,"internal_node_id":"0.0-53.0"},{"result":156,"points":3,"place":0,"phase":0,"sequence":34,"prices":[175,185,178,215,181,186,167,168,208,156],"times":[569,269,287,385,571,554,690,1132,569,749],"next_num":10,"trial_type":"ticket-choose","trial_index":54,"time_elapsed":741219,"internal_node_id":"0.0-54.0"},{"result":186,"points":1,"place":4,"phase":0,"sequence":35,"prices":[192,165,171,178,188,217,172,195,197,186],"times":[717,1098,434,512,525,511,624,649,561,757],"next_num":11,"trial_type":"ticket-choose","trial_index":55,"time_elapsed":751805,"internal_node_id":"0.0-55.0"},{"result":167,"points":2,"place":1,"phase":0,"sequence":36,"prices":[174,186,178,217,181,188,167,168,208,156],"times":[487,531,538,572,519,551,972],"next_num":7,"trial_type":"ticket-choose","trial_index":56,"time_elapsed":759033,"internal_node_id":"0.0-56.0"},{"result":165,"points":3,"place":0,"phase":0,"sequence":37,"prices":[196,165,170,184,187,211,171,201,202,185],"times":[517,838],"next_num":2,"trial_type":"ticket-choose","trial_index":57,"time_elapsed":762342,"internal_node_id":"0.0-57.0"},{"result":165,"points":2,"place":1,"phase":0,"sequence":38,"prices":[175,187,177,209,180,188,165,165,154,208],"times":[484,895,388,543,556,544,867],"next_num":7,"trial_type":"ticket-choose","trial_index":58,"time_elapsed":769650,"internal_node_id":"0.0-58.0"},{"result":158,"points":3,"place":0,"phase":0,"sequence":39,"prices":[210,184,226,193,215,158,199,175,176,208],"times":[653,635,656,686,641,993],"next_num":6,"trial_type":"ticket-choose","trial_index":59,"time_elapsed":776699,"internal_node_id":"0.0-59.0"},{"result":154,"points":3,"place":0,"phase":0,"sequence":40,"prices":[188,200,165,172,198,174,177,154,177,180],"times":[478,500,454,331,518,552,513,958],"next_num":8,"trial_type":"ticket-choose","trial_index":60,"time_elapsed":784119,"internal_node_id":"0.0-60.0"},{"result":169,"points":2,"place":1,"phase":0,"sequence":41,"prices":[193,169,171,187,190,224,174,194,165,188],"times":[902,965],"next_num":2,"trial_type":"ticket-choose","trial_index":61,"time_elapsed":788230,"internal_node_id":"0.0-61.0"},{"result":158,"points":2,"place":1,"phase":0,"sequence":42,"prices":[175,186,177,209,181,188,158,167,208,154],"times":[548,2074,554,567,552,619,934],"next_num":7,"trial_type":"ticket-choose","trial_index":62,"time_elapsed":797283,"internal_node_id":"0.0-62.0"},{"result":165,"points":3,"place":0,"phase":0,"sequence":43,"prices":[191,172,169,175,182,203,170,195,165,176],"times":[595,539,460,510,775,622,546,535,821],"next_num":9,"trial_type":"ticket-choose","trial_index":63,"time_elapsed":806103,"internal_node_id":"0.0-63.0"},{"result":163,"points":2,"place":1,"phase":0,"sequence":44,"prices":[175,187,176,209,180,188,163,165,154,208],"times":[513,478,724,568,578,575,1071],"next_num":7,"trial_type":"ticket-choose","trial_index":64,"time_elapsed":813927,"internal_node_id":"0.0-64.0"},{"result":147,"points":3,"place":0,"phase":0,"sequence":45,"prices":[181,215,169,147,182,193,177,184,176,179],"times":[771,436,485,1141],"next_num":4,"trial_type":"ticket-choose","trial_index":65,"time_elapsed":819516,"internal_node_id":"0.0-65.0"},{"result":179,"points":1,"place":4,"phase":0,"sequence":46,"prices":[201,165,162,166,185,214,165,202,204,179],"times":[645,371,365,412,594,572,559,595,557,760],"next_num":11,"trial_type":"ticket-choose","trial_index":66,"time_elapsed":828924,"internal_node_id":"0.0-66.0"},{"result":165,"points":2,"place":1,"phase":0,"sequence":47,"prices":[175,186,165,214,179,187,177,166,153,208],"times":[970,586,1007],"next_num":3,"trial_type":"ticket-choose","trial_index":67,"time_elapsed":833744,"internal_node_id":"0.0-67.0"},{"result":165,"points":3,"place":0,"phase":0,"sequence":48,"prices":[189,167,180,197,165,168,172,213,178,171],"times":[665,555,468,553,853],"next_num":5,"trial_type":"ticket-choose","trial_index":68,"time_elapsed":839670,"internal_node_id":"0.0-68.0"},{"result":158,"points":2,"place":1,"phase":0,"sequence":49,"prices":[175,186,158,211,180,187,177,166,209,153],"times":[940,545,1041],"next_num":3,"trial_type":"ticket-choose","trial_index":69,"time_elapsed":844418,"internal_node_id":"0.0-69.0"},{"responses":[{"value":0,"offby":-1,"category":"$115 - $130","category_index":0},{"value":0,"offby":-5,"category":"$131 - $145","category_index":1},{"value":5,"offby":-7,"category":"$146 - $160","category_index":2},{"value":25,"offby":3,"category":"$161 - $175","category_index":3},{"value":30,"offby":-4,"category":"$176 - $190","category_index":4},{"value":25,"offby":10,"category":"$191 - $205","category_index":5},{"value":15,"offby":4,"category":"$206 - $220","category_index":6}],"phase":1,"number":1,"trial_type":"bar-choose","trial_index":70,"time_elapsed":887275,"internal_node_id":"0.0-70.0"},{"rt":34454,"url":"\/christiane\/tickets\/utils\/testing2.html","trial_type":"point_update","trial_index":71,"time_elapsed":922950,"internal_node_id":"0.0-71.0"},{"phase":1,"order":[26,27,19,41,33,23,28,7,42,21,15,5,40,16,24,37,6,17,18,29,49,32,12,13,3,31,2,35,46,48,8,14,1,44,10,39,43,38,20,30,47,0,9,25,4,11,34,36,22,45],"trial_type":"store_order","trial_index":72,"time_elapsed":923962,"internal_node_id":"0.0-72.0"},{"result":169,"points":1,"place":3,"phase":1,"sequence":0,"prices":[200,173,182,169,207,165,152,202,161,204],"times":[1528,608,529,965],"next_num":4,"trial_type":"ticket-choose","trial_index":73,"time_elapsed":930045,"internal_node_id":"0.0-73.0"},{"result":197,"points":0,"place":8,"phase":1,"sequence":1,"prices":[192,172,171,178,188,165,217,168,195,197],"times":[655,492,481,489,506,1215,497,684,507,588],"next_num":11,"trial_type":"ticket-choose","trial_index":74,"time_elapsed":939971,"internal_node_id":"0.0-74.0"},{"result":158,"points":2,"place":1,"phase":1,"sequence":2,"prices":[158,175,186,209,177,181,188,167,208,154],"times":[1100],"next_num":1,"trial_type":"ticket-choose","trial_index":75,"time_elapsed":942845,"internal_node_id":"0.0-75.0"},{"result":155,"points":2,"place":1,"phase":1,"sequence":3,"prices":[200,207,155,158,156,168,167,135,178,177],"times":[746,518,758],"next_num":3,"trial_type":"ticket-choose","trial_index":76,"time_elapsed":946966,"internal_node_id":"0.0-76.0"},{"result":165,"points":2,"place":1,"phase":1,"sequence":4,"prices":[183,179,188,165,168,173,205,159,187,191],"times":[468,544,567,837],"next_num":4,"trial_type":"ticket-choose","trial_index":77,"time_elapsed":951655,"internal_node_id":"0.0-77.0"},{"result":158,"points":2,"place":1,"phase":1,"sequence":5,"prices":[177,176,187,225,158,181,187,165,208,153],"times":[690,471,560,540,884],"next_num":5,"trial_type":"ticket-choose","trial_index":78,"time_elapsed":957255,"internal_node_id":"0.0-78.0"},{"result":165,"points":3,"place":0,"phase":1,"sequence":6,"prices":[196,171,170,184,187,165,211,169,201,202],"times":[550,496,671,504,573,886],"next_num":6,"trial_type":"ticket-choose","trial_index":79,"time_elapsed":963681,"internal_node_id":"0.0-79.0"},{"result":165,"points":2,"place":1,"phase":1,"sequence":7,"prices":[165,175,187,209,177,180,188,167,154,208],"times":[900],"next_num":1,"trial_type":"ticket-choose","trial_index":80,"time_elapsed":966495,"internal_node_id":"0.0-80.0"},{"result":186,"points":1,"place":4,"phase":1,"sequence":8,"prices":[220,173,201,197,169,205,198,183,178,186],"times":[4617,608,594,532,891,471,809,596,542,1042],"next_num":11,"trial_type":"ticket-choose","trial_index":81,"time_elapsed":980897,"internal_node_id":"0.0-81.0"},{"result":158,"points":2,"place":1,"phase":1,"sequence":9,"prices":[177,175,186,221,158,180,187,166,209,153],"times":[1694,798,558,514,807],"next_num":5,"trial_type":"ticket-choose","trial_index":82,"time_elapsed":987753,"internal_node_id":"0.0-82.0"},{"result":163,"points":2,"place":1,"phase":1,"sequence":10,"prices":[176,175,186,210,163,179,187,166,153,208],"times":[451,457,526,529,869],"next_num":5,"trial_type":"ticket-choose","trial_index":83,"time_elapsed":993193,"internal_node_id":"0.0-83.0"},{"result":169,"points":1,"place":2,"phase":1,"sequence":11,"prices":[178,175,186,212,167,179,187,169,209,153],"times":[448,441,495,512,626,672,685,829],"next_num":8,"trial_type":"ticket-choose","trial_index":84,"time_elapsed":1001151,"internal_node_id":"0.0-84.0"},{"result":150,"points":3,"place":0,"phase":1,"sequence":12,"prices":[190,150,175,161,188,207,157,194,178,199],"times":[445,820],"next_num":2,"trial_type":"ticket-choose","trial_index":85,"time_elapsed":1004353,"internal_node_id":"0.0-85.0"},{"result":165,"points":1,"place":2,"phase":1,"sequence":13,"prices":[175,187,176,209,163,180,188,165,154,208],"times":[449,695,532,555,585,739,478,857],"next_num":8,"trial_type":"ticket-choose","trial_index":86,"time_elapsed":1012418,"internal_node_id":"0.0-86.0"},{"result":165,"points":3,"place":0,"phase":1,"sequence":14,"prices":[193,181,175,181,185,165,224,199,218,184],"times":[486,407,482,546,489,848],"next_num":6,"trial_type":"ticket-choose","trial_index":87,"time_elapsed":1018381,"internal_node_id":"0.0-87.0"},{"result":165,"points":1,"place":2,"phase":1,"sequence":15,"prices":[199,193,169,165,202,182,151,164,176,171],"times":[552,487,520,847],"next_num":4,"trial_type":"ticket-choose","trial_index":88,"time_elapsed":1023322,"internal_node_id":"0.0-88.0"},{"result":165,"points":2,"place":1,"phase":1,"sequence":16,"prices":[165,175,186,214,177,179,187,166,153,208],"times":[915],"next_num":1,"trial_type":"ticket-choose","trial_index":89,"time_elapsed":1026027,"internal_node_id":"0.0-89.0"},{"result":163,"points":2,"place":1,"phase":1,"sequence":17,"prices":[174,186,176,217,163,181,187,166,153,209],"times":[845,516,501,559,1113],"next_num":5,"trial_type":"ticket-choose","trial_index":90,"time_elapsed":1032101,"internal_node_id":"0.0-90.0"},{"result":158,"points":2,"place":1,"phase":1,"sequence":18,"prices":[158,175,186,211,177,180,187,166,209,153],"times":[1059],"next_num":1,"trial_type":"ticket-choose","trial_index":91,"time_elapsed":1034867,"internal_node_id":"0.0-91.0"},{"result":165,"points":1,"place":2,"phase":1,"sequence":19,"prices":[185,179,191,165,161,173,199,150,188,168],"times":[1021,628,537,878],"next_num":4,"trial_type":"ticket-choose","trial_index":92,"time_elapsed":1040304,"internal_node_id":"0.0-92.0"},{"result":163,"points":1,"place":2,"phase":1,"sequence":20,"prices":[173,163,185,181,166,148,160,185,176,184],"times":[514,1148],"next_num":2,"trial_type":"ticket-choose","trial_index":93,"time_elapsed":1043834,"internal_node_id":"0.0-93.0"},{"result":165,"points":2,"place":1,"phase":1,"sequence":21,"prices":[193,174,224,165,187,190,224,161,194,195],"times":[583,490,566,865],"next_num":4,"trial_type":"ticket-choose","trial_index":94,"time_elapsed":1048665,"internal_node_id":"0.0-94.0"},{"result":163,"points":2,"place":1,"phase":1,"sequence":22,"prices":[163,175,186,214,176,179,187,166,153,208],"times":[882],"next_num":1,"trial_type":"ticket-choose","trial_index":95,"time_elapsed":1051171,"internal_node_id":"0.0-95.0"},{"result":154,"points":3,"place":0,"phase":1,"sequence":23,"prices":[163,175,187,209,176,180,188,165,154,208],"times":[477,439,483,522,692,555,562,505,865],"next_num":9,"trial_type":"ticket-choose","trial_index":96,"time_elapsed":1059685,"internal_node_id":"0.0-96.0"},{"result":168,"points":1,"place":2,"phase":1,"sequence":24,"prices":[178,174,186,217,167,181,188,168,208,156],"times":[1582,530,722,528,612,501,820,942],"next_num":8,"trial_type":"ticket-choose","trial_index":97,"time_elapsed":1069394,"internal_node_id":"0.0-97.0"},{"result":165,"points":1,"place":2,"phase":1,"sequence":25,"prices":[171,169,186,165,163,167,220,148,187,165],"times":[669,648,521,793],"next_num":4,"trial_type":"ticket-choose","trial_index":98,"time_elapsed":1074431,"internal_node_id":"0.0-98.0"},{"result":169,"points":1,"place":2,"phase":1,"sequence":26,"prices":[167,175,186,225,178,179,187,169,209,153],"times":[1006,795,682,659,584,542,751,1319],"next_num":8,"trial_type":"ticket-choose","trial_index":99,"time_elapsed":1084061,"internal_node_id":"0.0-99.0"},{"result":143,"points":3,"place":0,"phase":1,"sequence":27,"prices":[167,153,172,185,195,143,184,211,177,227],"times":[867,350,345,470,514,932],"next_num":6,"trial_type":"ticket-choose","trial_index":100,"time_elapsed":1090299,"internal_node_id":"0.0-100.0"},{"result":158,"points":3,"place":0,"phase":1,"sequence":28,"prices":[214,184,226,192,215,158,199,175,176,208],"times":[433,500,516,507,784,872],"next_num":6,"trial_type":"ticket-choose","trial_index":101,"time_elapsed":1096627,"internal_node_id":"0.0-101.0"},{"result":169,"points":2,"place":1,"phase":1,"sequence":29,"prices":[181,214,169,147,182,193,178,184,176,179],"times":[1690,525,877],"next_num":3,"trial_type":"ticket-choose","trial_index":102,"time_elapsed":1101896,"internal_node_id":"0.0-102.0"},{"result":166,"points":1,"place":2,"phase":1,"sequence":30,"prices":[165,174,186,212,177,181,187,166,153,209],"times":[448,469,530,578,475,511,509,902],"next_num":8,"trial_type":"ticket-choose","trial_index":103,"time_elapsed":1109532,"internal_node_id":"0.0-103.0"},{"result":153,"points":3,"place":0,"phase":1,"sequence":31,"prices":[163,174,186,212,176,181,187,166,153,209],"times":[549,643,514,522,505,502,499,554,806],"next_num":9,"trial_type":"ticket-choose","trial_index":104,"time_elapsed":1117930,"internal_node_id":"0.0-104.0"},{"result":168,"points":1,"place":2,"phase":1,"sequence":32,"prices":[167,175,185,224,178,181,186,168,208,156],"times":[698,633,482,508,534,519,482,1074],"next_num":8,"trial_type":"ticket-choose","trial_index":105,"time_elapsed":1126070,"internal_node_id":"0.0-105.0"},{"result":159,"points":1,"place":2,"phase":1,"sequence":33,"prices":[181,159,149,175,185,151,163,174,178,207],"times":[577,793],"next_num":2,"trial_type":"ticket-choose","trial_index":106,"time_elapsed":1129302,"internal_node_id":"0.0-106.0"},{"result":165,"points":2,"place":1,"phase":1,"sequence":34,"prices":[177,175,187,209,165,180,188,165,154,208],"times":[709,514,498,990,917],"next_num":5,"trial_type":"ticket-choose","trial_index":107,"time_elapsed":1135960,"internal_node_id":"0.0-107.0"},{"result":165,"points":3,"place":0,"phase":1,"sequence":35,"prices":[189,167,180,197,165,168,172,213,178,171],"times":[719,500,538,601,918],"next_num":5,"trial_type":"ticket-choose","trial_index":108,"time_elapsed":1141866,"internal_node_id":"0.0-108.0"},{"result":157,"points":3,"place":0,"phase":1,"sequence":36,"prices":[201,187,157,184,198,179,188,185,178,170],"times":[616,574,959],"next_num":3,"trial_type":"ticket-choose","trial_index":109,"time_elapsed":1146212,"internal_node_id":"0.0-109.0"},{"result":163,"points":3,"place":0,"phase":1,"sequence":37,"prices":[163,199,196,199,185,195,227,163,177,166],"times":[881,560,562,579,783,571,580,1120],"next_num":8,"trial_type":"ticket-choose","trial_index":110,"time_elapsed":1155493,"internal_node_id":"0.0-110.0"},{"result":158,"points":2,"place":1,"phase":1,"sequence":38,"prices":[158,176,187,210,177,181,187,165,208,153],"times":[899],"next_num":1,"trial_type":"ticket-choose","trial_index":111,"time_elapsed":1158064,"internal_node_id":"0.0-111.0"},{"result":157,"points":3,"place":0,"phase":1,"sequence":39,"prices":[191,170,182,165,175,182,203,157,195,200],"times":[924,499,532,483,427,511,807,816],"next_num":8,"trial_type":"ticket-choose","trial_index":112,"time_elapsed":1166141,"internal_node_id":"0.0-112.0"},{"result":152,"points":3,"place":0,"phase":1,"sequence":40,"prices":[200,180,203,152,175,170,160,154,176,191],"times":[975,570,544,849],"next_num":4,"trial_type":"ticket-choose","trial_index":113,"time_elapsed":1171616,"internal_node_id":"0.0-113.0"},{"result":167,"points":2,"place":1,"phase":1,"sequence":41,"prices":[167,174,186,211,178,181,188,168,208,156],"times":[1116],"next_num":1,"trial_type":"ticket-choose","trial_index":114,"time_elapsed":1174660,"internal_node_id":"0.0-114.0"},{"result":165,"points":2,"place":1,"phase":1,"sequence":42,"prices":[177,175,186,210,165,179,187,166,153,208],"times":[897,506,536,509,756],"next_num":5,"trial_type":"ticket-choose","trial_index":115,"time_elapsed":1180398,"internal_node_id":"0.0-115.0"},{"result":165,"points":2,"place":1,"phase":1,"sequence":43,"prices":[201,204,179,166,185,165,214,156,202,165],"times":[653,505,593,663,557,710],"next_num":6,"trial_type":"ticket-choose","trial_index":116,"time_elapsed":1186802,"internal_node_id":"0.0-116.0"},{"result":168,"points":1,"place":2,"phase":1,"sequence":44,"prices":[178,175,185,215,167,181,186,168,208,156],"times":[443,473,443,605,621,708,532,818],"next_num":8,"trial_type":"ticket-choose","trial_index":117,"time_elapsed":1194544,"internal_node_id":"0.0-117.0"},{"result":153,"points":3,"place":0,"phase":1,"sequence":45,"prices":[177,174,186,217,165,181,187,166,153,209],"times":[676,511,471,444,395,515,555,707,783],"next_num":9,"trial_type":"ticket-choose","trial_index":118,"time_elapsed":1203059,"internal_node_id":"0.0-118.0"},{"result":156,"points":2,"place":1,"phase":1,"sequence":46,"prices":[180,156,149,160,168,186,172,198,176,195],"times":[557,982],"next_num":2,"trial_type":"ticket-choose","trial_index":119,"time_elapsed":1206432,"internal_node_id":"0.0-119.0"},{"result":154,"points":3,"place":0,"phase":1,"sequence":47,"prices":[187,201,165,172,196,174,178,154,172,180],"times":[760,568,1216,488,523,563,518,768],"next_num":8,"trial_type":"ticket-choose","trial_index":120,"time_elapsed":1215108,"internal_node_id":"0.0-120.0"},{"result":158,"points":2,"place":1,"phase":1,"sequence":48,"prices":[177,175,186,209,158,181,188,167,208,154],"times":[1805,503,563,581,914],"next_num":5,"trial_type":"ticket-choose","trial_index":121,"time_elapsed":1221994,"internal_node_id":"0.0-121.0"},{"result":167,"points":2,"place":1,"phase":1,"sequence":49,"prices":[199,191,188,174,167,193,189,164,176,170],"times":[724,509,920,493,799],"next_num":5,"trial_type":"ticket-choose","trial_index":122,"time_elapsed":1227986,"internal_node_id":"0.0-122.0"},{"responses":[{"value":0,"offby":-1,"category":"$115 - $130","category_index":0},{"value":0,"offby":-5,"category":"$131 - $145","category_index":1},{"value":5,"offby":-7,"category":"$146 - $160","category_index":2},{"value":25,"offby":3,"category":"$161 - $175","category_index":3},{"value":40,"offby":6,"category":"$176 - $190","category_index":4},{"value":25,"offby":10,"category":"$191 - $205","category_index":5},{"value":5,"offby":-6,"category":"$206 - $220","category_index":6}],"phase":1,"number":1,"trial_type":"bar-choose","trial_index":123,"time_elapsed":1277961,"internal_node_id":"0.0-123.0"},{"special_comment":"They sometimes seem to feel as if they followed the pattern of \"high-risk-high-reward\".","trial_type":"special_sequence","trial_index":124,"time_elapsed":1329473,"internal_node_id":"0.0-124.0"},{"during":"Nothing","bonus":288,"trial_type":"final","trial_index":125,"time_elapsed":1359072,"internal_node_id":"0.0-125.0"}],"bonus":288}