{"start_time":"2017-05-24 15:42:47","end_time":"2017-05-24 16:11:21","points_phase0":106,"points_phase1":114,"phase_order":1,"age":55,"gender":"f","tries":2,"during":"Nothing","worker_id":"A1B4WL7N3ACF2T","assignment_id":"3D8YOU6S9FD42F832W7SWXEQKRO6UV","data":[{"rt":12730,"url":"\/christiane\/tickets\/utils\/consent.html","trial_type":"html","trial_index":0,"time_elapsed":12883,"internal_node_id":"0.0-0.0"},{"age":55,"gender":"f","trial_type":"age","trial_index":1,"time_elapsed":19307,"internal_node_id":"0.0-1.0"},{"worker_id":"A1B4WL7N3ACF2T","trial_type":"workerid","trial_index":2,"time_elapsed":41267,"internal_node_id":"0.0-2.0"},{"tries":2,"trial_type":"instructions_check","trial_index":3,"time_elapsed":176720,"internal_node_id":"0.0-3.0"},{"rt":4949,"url":"\/christiane\/tickets\/utils\/start.html","trial_type":"html","trial_index":4,"time_elapsed":182809,"internal_node_id":"0.0-4.0"},{"trial_type":"number-animation","trial_index":5,"time_elapsed":198985,"internal_node_id":"0.0-5.0"},{"phase":0,"sequence":0,"avg":181,"response":177,"trial_type":"training_avg","trial_index":6,"time_elapsed":209544,"internal_node_id":"0.0-6.0"},{"trial_type":"number-animation","trial_index":7,"time_elapsed":220791,"internal_node_id":"0.0-7.0"},{"phase":0,"sequence":1,"avg":188,"response":200,"trial_type":"training_avg","trial_index":8,"time_elapsed":228583,"internal_node_id":"0.0-8.0"},{"trial_type":"number-animation","trial_index":9,"time_elapsed":294319,"internal_node_id":"0.0-9.0"},{"phase":0,"sequence":2,"avg":188,"response":188,"trial_type":"training_avg","trial_index":10,"time_elapsed":326031,"internal_node_id":"0.0-10.0"},{"trial_type":"number-animation","trial_index":11,"time_elapsed":435647,"internal_node_id":"0.0-11.0"},{"phase":0,"sequence":3,"avg":177,"response":177,"trial_type":"training_avg","trial_index":12,"time_elapsed":482871,"internal_node_id":"0.0-12.0"},{"trial_type":"number-animation","trial_index":13,"time_elapsed":547485,"internal_node_id":"0.0-13.0"},{"phase":0,"sequence":4,"avg":182,"response":182,"trial_type":"training_avg","trial_index":14,"time_elapsed":560709,"internal_node_id":"0.0-14.0"},{"responses":[{"value":0,"offby":-1,"category":"$115 - $130","category_index":0},{"value":11,"offby":6,"category":"$131 - $145","category_index":1},{"value":23,"offby":11,"category":"$146 - $160","category_index":2},{"value":24,"offby":2,"category":"$161 - $175","category_index":3},{"value":25,"offby":-9,"category":"$176 - $190","category_index":4},{"value":11,"offby":-4,"category":"$191 - $205","category_index":5},{"value":6,"offby":-5,"category":"$206 - $220","category_index":6}],"phase":0,"number":0,"trial_type":"bar-choose","trial_index":15,"time_elapsed":613414,"internal_node_id":"0.0-15.0"},{"rt":9059,"url":"\/christiane\/tickets\/utils\/testing.html","trial_type":"html","trial_index":16,"time_elapsed":623613,"internal_node_id":"0.0-16.0"},{"phase":0,"order":[39,32,8,27,43,44,12,13,28,30,14,22,41,45,5,38,10,16,23,17,2,19,1,21,9,3,48,26,24,37,42,11,29,47,20,36,34,49,4,7,15,31,33,25,6,46,18,35,40,0],"trial_type":"store_order","trial_index":17,"time_elapsed":624614,"internal_node_id":"0.0-17.0"},{"result":165,"points":2,"place":1,"phase":0,"sequence":-1,"prices":[184,180,224,165,181,199,185,193,218,146],"times":[4264,1110,1046,1418],"next_num":4,"trial_type":"ticket-choose","trial_index":18,"time_elapsed":635637,"internal_node_id":"0.0-18.0"},{"rt":15640,"url":"\/christiane\/tickets\/utils\/testing_after.html","trial_type":"html","trial_index":19,"time_elapsed":652420,"internal_node_id":"0.0-19.0"},{"result":163,"points":1,"place":2,"phase":0,"sequence":0,"prices":[173,163,185,181,166,148,160,185,176,184],"times":[2446,5631],"next_num":2,"trial_type":"ticket-choose","trial_index":20,"time_elapsed":663765,"internal_node_id":"0.0-20.0"},{"result":147,"points":3,"place":0,"phase":0,"sequence":1,"prices":[181,214,169,147,182,193,178,184,176,179],"times":[1218,623,671,1390],"next_num":4,"trial_type":"ticket-choose","trial_index":21,"time_elapsed":671181,"internal_node_id":"0.0-21.0"},{"result":159,"points":3,"place":0,"phase":0,"sequence":2,"prices":[183,179,188,165,168,173,205,159,187,191],"times":[960,582,589,1670,719,676,821,1535],"next_num":8,"trial_type":"ticket-choose","trial_index":22,"time_elapsed":682533,"internal_node_id":"0.0-22.0"},{"result":153,"points":3,"place":0,"phase":0,"sequence":3,"prices":[176,175,186,210,163,179,187,166,153,208],"times":[1161,636,664,699,1565,695,822,1408,1365],"next_num":9,"trial_type":"ticket-choose","trial_index":23,"time_elapsed":695661,"internal_node_id":"0.0-23.0"},{"result":168,"points":1,"place":2,"phase":0,"sequence":4,"prices":[178,174,186,217,167,181,188,168,208,156],"times":[1008,590,646,678,959,743,830,2064],"next_num":8,"trial_type":"ticket-choose","trial_index":24,"time_elapsed":707085,"internal_node_id":"0.0-24.0"},{"result":156,"points":3,"place":0,"phase":0,"sequence":5,"prices":[167,175,185,224,178,181,186,168,208,156],"times":[1519,607,639,631,711,807,653,839,827,1119],"next_num":10,"trial_type":"ticket-choose","trial_index":25,"time_elapsed":719548,"internal_node_id":"0.0-25.0"},{"result":155,"points":2,"place":1,"phase":0,"sequence":6,"prices":[200,207,155,158,156,168,167,135,178,177],"times":[1159,615,1405],"next_num":3,"trial_type":"ticket-choose","trial_index":26,"time_elapsed":725452,"internal_node_id":"0.0-26.0"},{"result":153,"points":3,"place":0,"phase":0,"sequence":7,"prices":[163,175,186,214,176,179,187,166,153,208],"times":[1054,648,636,694,646,662,671,877,1590],"next_num":9,"trial_type":"ticket-choose","trial_index":27,"time_elapsed":736867,"internal_node_id":"0.0-27.0"},{"result":170,"points":1,"place":2,"phase":0,"sequence":8,"prices":[199,191,188,174,167,193,189,164,176,170],"times":[2522,510,599,574,629,639,638,1166,759,1345],"next_num":10,"trial_type":"ticket-choose","trial_index":28,"time_elapsed":750692,"internal_node_id":"0.0-28.0"},{"result":157,"points":2,"place":1,"phase":0,"sequence":9,"prices":[190,150,175,161,188,207,157,194,178,199],"times":[990,438,541,671,542,615,1111],"next_num":7,"trial_type":"ticket-choose","trial_index":29,"time_elapsed":758908,"internal_node_id":"0.0-29.0"},{"result":169,"points":1,"place":3,"phase":0,"sequence":10,"prices":[199,193,169,165,202,182,151,164,176,171],"times":[880,564,1671],"next_num":3,"trial_type":"ticket-choose","trial_index":30,"time_elapsed":764587,"internal_node_id":"0.0-30.0"},{"result":163,"points":2,"place":1,"phase":0,"sequence":11,"prices":[171,169,186,165,163,167,220,148,187,165],"times":[735,549,582,1494,1101],"next_num":5,"trial_type":"ticket-choose","trial_index":31,"time_elapsed":772099,"internal_node_id":"0.0-31.0"},{"result":184,"points":1,"place":4,"phase":0,"sequence":12,"prices":[193,181,175,181,185,165,224,199,218,184],"times":[807,727,583,598,605,1077,654,726,782,1088],"next_num":10,"trial_type":"ticket-choose","trial_index":32,"time_elapsed":783691,"internal_node_id":"0.0-32.0"},{"result":158,"points":2,"place":1,"phase":0,"sequence":13,"prices":[158,175,186,209,177,181,188,167,208,154],"times":[1101],"next_num":1,"trial_type":"ticket-choose","trial_index":33,"time_elapsed":786748,"internal_node_id":"0.0-33.0"},{"result":163,"points":2,"place":1,"phase":0,"sequence":14,"prices":[163,174,186,212,176,181,187,166,153,209],"times":[1352],"next_num":1,"trial_type":"ticket-choose","trial_index":34,"time_elapsed":790196,"internal_node_id":"0.0-34.0"},{"result":165,"points":2,"place":1,"phase":0,"sequence":15,"prices":[191,170,182,165,175,182,203,157,195,200],"times":[831,599,654,975],"next_num":4,"trial_type":"ticket-choose","trial_index":35,"time_elapsed":795845,"internal_node_id":"0.0-35.0"},{"result":165,"points":2,"place":1,"phase":0,"sequence":16,"prices":[165,175,186,214,177,179,187,166,153,208],"times":[1565],"next_num":1,"trial_type":"ticket-choose","trial_index":36,"time_elapsed":799612,"internal_node_id":"0.0-36.0"},{"result":165,"points":2,"place":1,"phase":0,"sequence":17,"prices":[177,175,186,210,165,179,187,166,153,208],"times":[856,583,663,615,927],"next_num":5,"trial_type":"ticket-choose","trial_index":37,"time_elapsed":806268,"internal_node_id":"0.0-37.0"},{"result":158,"points":2,"place":1,"phase":0,"sequence":18,"prices":[177,175,186,209,158,181,188,167,208,154],"times":[913,563,590,601,989],"next_num":5,"trial_type":"ticket-choose","trial_index":38,"time_elapsed":812772,"internal_node_id":"0.0-38.0"},{"result":165,"points":3,"place":0,"phase":0,"sequence":19,"prices":[189,167,180,197,165,168,172,213,178,171],"times":[1119,926,614,551,1222],"next_num":5,"trial_type":"ticket-choose","trial_index":39,"time_elapsed":820100,"internal_node_id":"0.0-39.0"},{"result":165,"points":1,"place":2,"phase":0,"sequence":20,"prices":[158,176,187,210,177,181,187,165,208,153],"times":[808,551,542,605,551,638,630,1394],"next_num":8,"trial_type":"ticket-choose","trial_index":40,"time_elapsed":829252,"internal_node_id":"0.0-40.0"},{"result":159,"points":1,"place":2,"phase":0,"sequence":21,"prices":[181,159,149,175,185,151,163,174,178,207],"times":[893,967],"next_num":2,"trial_type":"ticket-choose","trial_index":41,"time_elapsed":833444,"internal_node_id":"0.0-41.0"},{"result":154,"points":3,"place":0,"phase":0,"sequence":22,"prices":[165,175,187,209,177,180,188,167,154,208],"times":[1383,598,566,622,749,630,614,1246,1119],"next_num":9,"trial_type":"ticket-choose","trial_index":42,"time_elapsed":844579,"internal_node_id":"0.0-42.0"},{"result":156,"points":2,"place":1,"phase":0,"sequence":23,"prices":[180,156,149,160,168,186,172,198,176,195],"times":[712,1052],"next_num":2,"trial_type":"ticket-choose","trial_index":43,"time_elapsed":848509,"internal_node_id":"0.0-43.0"},{"result":157,"points":3,"place":0,"phase":0,"sequence":24,"prices":[201,187,157,184,198,179,188,185,178,170],"times":[749,567,943],"next_num":3,"trial_type":"ticket-choose","trial_index":44,"time_elapsed":853155,"internal_node_id":"0.0-44.0"},{"result":158,"points":2,"place":1,"phase":0,"sequence":25,"prices":[158,175,186,211,177,180,187,166,209,153],"times":[879],"next_num":1,"trial_type":"ticket-choose","trial_index":45,"time_elapsed":855820,"internal_node_id":"0.0-45.0"},{"result":186,"points":1,"place":4,"phase":0,"sequence":26,"prices":[220,173,201,197,169,205,198,183,178,186],"times":[870,584,558,582,582,631,638,671,910,1046],"next_num":10,"trial_type":"ticket-choose","trial_index":46,"time_elapsed":866861,"internal_node_id":"0.0-46.0"},{"result":165,"points":3,"place":0,"phase":0,"sequence":27,"prices":[196,171,170,184,187,165,211,169,201,202],"times":[766,614,542,558,558,918],"next_num":6,"trial_type":"ticket-choose","trial_index":47,"time_elapsed":873780,"internal_node_id":"0.0-47.0"},{"result":167,"points":1,"place":2,"phase":0,"sequence":28,"prices":[167,153,172,185,195,143,184,211,177,227],"times":[1331],"next_num":1,"trial_type":"ticket-choose","trial_index":48,"time_elapsed":877035,"internal_node_id":"0.0-48.0"},{"result":163,"points":2,"place":1,"phase":0,"sequence":29,"prices":[176,187,179,209,163,180,188,165,154,208],"times":[944,598,552,583,967],"next_num":5,"trial_type":"ticket-choose","trial_index":49,"time_elapsed":883540,"internal_node_id":"0.0-49.0"},{"result":152,"points":3,"place":0,"phase":0,"sequence":30,"prices":[200,180,203,152,175,170,160,154,176,191],"times":[1294,534,590,1078],"next_num":4,"trial_type":"ticket-choose","trial_index":50,"time_elapsed":889667,"internal_node_id":"0.0-50.0"},{"result":163,"points":2,"place":1,"phase":0,"sequence":31,"prices":[176,186,178,217,163,181,187,166,153,209],"times":[719,543,688,614,929],"next_num":5,"trial_type":"ticket-choose","trial_index":51,"time_elapsed":895987,"internal_node_id":"0.0-51.0"},{"result":165,"points":1,"place":2,"phase":0,"sequence":32,"prices":[163,175,187,209,176,180,188,165,154,208],"times":[841,757,567,582,614,598,606,990],"next_num":8,"trial_type":"ticket-choose","trial_index":52,"time_elapsed":905100,"internal_node_id":"0.0-52.0"},{"result":165,"points":2,"place":1,"phase":0,"sequence":33,"prices":[193,174,224,165,187,190,224,161,194,195],"times":[757,671,599,991],"next_num":4,"trial_type":"ticket-choose","trial_index":53,"time_elapsed":910739,"internal_node_id":"0.0-53.0"},{"result":165,"points":3,"place":0,"phase":0,"sequence":34,"prices":[192,172,171,178,188,165,217,168,195,197],"times":[671,718,583,591,661,1165],"next_num":6,"trial_type":"ticket-choose","trial_index":54,"time_elapsed":918019,"internal_node_id":"0.0-54.0"},{"result":158,"points":3,"place":0,"phase":0,"sequence":35,"prices":[214,184,226,192,215,158,199,175,176,208],"times":[912,622,654,622,695,1078],"next_num":6,"trial_type":"ticket-choose","trial_index":55,"time_elapsed":925555,"internal_node_id":"0.0-55.0"},{"result":158,"points":2,"place":1,"phase":0,"sequence":36,"prices":[177,176,187,225,158,181,187,165,208,153],"times":[759,567,583,638,1104],"next_num":5,"trial_type":"ticket-choose","trial_index":56,"time_elapsed":932091,"internal_node_id":"0.0-56.0"},{"result":163,"points":3,"place":0,"phase":0,"sequence":37,"prices":[163,199,196,199,185,195,227,163,177,166],"times":[1150],"next_num":1,"trial_type":"ticket-choose","trial_index":57,"time_elapsed":935152,"internal_node_id":"0.0-57.0"},{"result":167,"points":2,"place":1,"phase":0,"sequence":38,"prices":[178,175,186,212,167,179,187,169,209,153],"times":[1439,638,621,598,959],"next_num":5,"trial_type":"ticket-choose","trial_index":58,"time_elapsed":942155,"internal_node_id":"0.0-58.0"},{"result":165,"points":1,"place":2,"phase":0,"sequence":39,"prices":[185,179,191,165,161,173,199,150,188,168],"times":[967,567,646,920],"next_num":4,"trial_type":"ticket-choose","trial_index":59,"time_elapsed":947803,"internal_node_id":"0.0-59.0"},{"result":153,"points":3,"place":0,"phase":0,"sequence":40,"prices":[177,174,186,217,165,181,187,166,153,209],"times":[927,534,687,582,2437,624,598,839,991],"next_num":9,"trial_type":"ticket-choose","trial_index":60,"time_elapsed":959731,"internal_node_id":"0.0-60.0"},{"result":167,"points":2,"place":1,"phase":0,"sequence":41,"prices":[167,174,186,211,178,181,188,168,208,156],"times":[2277],"next_num":1,"trial_type":"ticket-choose","trial_index":61,"time_elapsed":964138,"internal_node_id":"0.0-61.0"},{"result":165,"points":2,"place":1,"phase":0,"sequence":42,"prices":[187,201,165,172,196,174,178,154,172,180],"times":[1110,606,1118],"next_num":3,"trial_type":"ticket-choose","trial_index":62,"time_elapsed":969371,"internal_node_id":"0.0-62.0"},{"result":165,"points":2,"place":1,"phase":0,"sequence":43,"prices":[165,174,186,212,177,181,187,166,153,209],"times":[1054],"next_num":1,"trial_type":"ticket-choose","trial_index":63,"time_elapsed":972267,"internal_node_id":"0.0-63.0"},{"result":167,"points":2,"place":1,"phase":0,"sequence":44,"prices":[178,175,185,215,167,181,186,168,208,156],"times":[1223,725,424,604,1431],"next_num":5,"trial_type":"ticket-choose","trial_index":64,"time_elapsed":979626,"internal_node_id":"0.0-64.0"},{"result":158,"points":2,"place":1,"phase":0,"sequence":45,"prices":[177,175,186,221,158,180,187,166,209,153],"times":[1158,599,648,605,944],"next_num":5,"trial_type":"ticket-choose","trial_index":65,"time_elapsed":986443,"internal_node_id":"0.0-65.0"},{"result":153,"points":3,"place":0,"phase":0,"sequence":46,"prices":[167,175,186,225,178,179,187,169,209,153],"times":[1047,615,583,583,607,614,918,950,719,1094],"next_num":10,"trial_type":"ticket-choose","trial_index":66,"time_elapsed":998026,"internal_node_id":"0.0-66.0"},{"result":165,"points":2,"place":1,"phase":0,"sequence":47,"prices":[201,204,179,166,185,165,214,156,202,165],"times":[2854,528,527,789,590,1679],"next_num":6,"trial_type":"ticket-choose","trial_index":67,"time_elapsed":1008002,"internal_node_id":"0.0-67.0"},{"result":152,"points":3,"place":0,"phase":0,"sequence":48,"prices":[200,173,182,169,207,165,152,202,161,204],"times":[821,670,551,590,596,1910,1070],"next_num":7,"trial_type":"ticket-choose","trial_index":68,"time_elapsed":1017538,"internal_node_id":"0.0-68.0"},{"result":154,"points":3,"place":0,"phase":0,"sequence":49,"prices":[177,175,187,209,165,180,188,165,154,208],"times":[961,639,591,551,1702,591,678,1998,1294],"next_num":9,"trial_type":"ticket-choose","trial_index":69,"time_elapsed":1030420,"internal_node_id":"0.0-69.0"},{"responses":[{"value":0,"offby":-1,"category":"$115 - $130","category_index":0},{"value":0,"offby":-5,"category":"$131 - $145","category_index":1},{"value":16,"offby":4,"category":"$146 - $160","category_index":2},{"value":29,"offby":7,"category":"$161 - $175","category_index":3},{"value":33,"offby":-1,"category":"$176 - $190","category_index":4},{"value":22,"offby":7,"category":"$191 - $205","category_index":5},{"value":0,"offby":-11,"category":"$206 - $220","category_index":6}],"phase":1,"number":1,"trial_type":"bar-choose","trial_index":70,"time_elapsed":1067301,"internal_node_id":"0.0-70.0"},{"rt":164295,"url":"\/christiane\/tickets\/utils\/testing2.html","trial_type":"point_update","trial_index":71,"time_elapsed":1233138,"internal_node_id":"0.0-71.0"},{"phase":1,"order":[49,48,33,15,3,1,41,12,45,40,37,31,24,19,14,30,6,9,22,39,20,44,7,34,43,18,42,28,35,16,47,17,13,32,27,46,23,38,5,29,11,0,36,8,4,21,2,25,26,10],"trial_type":"store_order","trial_index":72,"time_elapsed":1234140,"internal_node_id":"0.0-72.0"},{"result":165,"points":3,"place":0,"phase":1,"sequence":0,"prices":[189,167,180,197,165,168,172,213,178,171],"times":[2535,614,551,573,4360],"next_num":5,"trial_type":"ticket-choose","trial_index":73,"time_elapsed":1246080,"internal_node_id":"0.0-73.0"},{"result":165,"points":3,"place":0,"phase":1,"sequence":1,"prices":[193,169,171,187,190,224,174,194,165,188],"times":[1118,2598,655,599,573,607,630,646,1351],"next_num":9,"trial_type":"ticket-choose","trial_index":74,"time_elapsed":1258874,"internal_node_id":"0.0-74.0"},{"result":165,"points":2,"place":1,"phase":1,"sequence":2,"prices":[174,186,165,212,181,187,177,167,153,209],"times":[1245,13255,1083],"next_num":3,"trial_type":"ticket-choose","trial_index":75,"time_elapsed":1277673,"internal_node_id":"0.0-75.0"},{"result":165,"points":3,"place":0,"phase":1,"sequence":3,"prices":[192,165,171,178,188,217,172,195,197,186],"times":[968,1078],"next_num":2,"trial_type":"ticket-choose","trial_index":76,"time_elapsed":1282096,"internal_node_id":"0.0-76.0"},{"result":157,"points":3,"place":0,"phase":1,"sequence":4,"prices":[201,187,157,184,198,179,188,185,178,170],"times":[815,637,1318],"next_num":3,"trial_type":"ticket-choose","trial_index":77,"time_elapsed":1287265,"internal_node_id":"0.0-77.0"},{"result":159,"points":1,"place":2,"phase":1,"sequence":5,"prices":[180,159,149,175,185,141,163,174,178,207],"times":[932,943],"next_num":2,"trial_type":"ticket-choose","trial_index":78,"time_elapsed":1291176,"internal_node_id":"0.0-78.0"},{"result":163,"points":2,"place":1,"phase":1,"sequence":6,"prices":[175,186,163,214,179,187,176,166,153,208],"times":[853,567,1222],"next_num":3,"trial_type":"ticket-choose","trial_index":79,"time_elapsed":1296112,"internal_node_id":"0.0-79.0"},{"result":163,"points":2,"place":1,"phase":1,"sequence":7,"prices":[175,187,163,209,180,188,176,165,154,208],"times":[670,637,984],"next_num":3,"trial_type":"ticket-choose","trial_index":80,"time_elapsed":1300742,"internal_node_id":"0.0-80.0"},{"result":185,"points":1,"place":4,"phase":1,"sequence":8,"prices":[196,165,170,184,187,211,171,201,202,185],"times":[973,741,526,539,569,590,590,591,582,1310],"next_num":10,"trial_type":"ticket-choose","trial_index":81,"time_elapsed":1311656,"internal_node_id":"0.0-81.0"},{"result":165,"points":3,"place":0,"phase":1,"sequence":9,"prices":[191,172,169,175,182,203,170,195,165,176],"times":[661,598,1724,639,568,631,630,711,1063],"next_num":9,"trial_type":"ticket-choose","trial_index":82,"time_elapsed":1322384,"internal_node_id":"0.0-82.0"},{"result":163,"points":2,"place":1,"phase":1,"sequence":10,"prices":[174,186,163,212,181,187,176,166,153,209],"times":[1102,555,966],"next_num":3,"trial_type":"ticket-choose","trial_index":83,"time_elapsed":1327399,"internal_node_id":"0.0-83.0"},{"result":158,"points":2,"place":1,"phase":1,"sequence":11,"prices":[175,186,177,209,181,188,158,167,208,154],"times":[1135,526,526,574,575,527,1078],"next_num":7,"trial_type":"ticket-choose","trial_index":84,"time_elapsed":1335552,"internal_node_id":"0.0-84.0"},{"result":155,"points":2,"place":1,"phase":1,"sequence":12,"prices":[201,207,155,158,156,165,167,135,178,177],"times":[19752,597,1069],"next_num":3,"trial_type":"ticket-choose","trial_index":85,"time_elapsed":1359416,"internal_node_id":"0.0-85.0"},{"result":164,"points":3,"place":0,"phase":1,"sequence":13,"prices":[212,192,188,184,167,193,189,164,176,170],"times":[885,549,519,575,1328,566,572,952],"next_num":8,"trial_type":"ticket-choose","trial_index":86,"time_elapsed":1368719,"internal_node_id":"0.0-86.0"},{"result":167,"points":2,"place":1,"phase":1,"sequence":14,"prices":[175,186,178,212,179,187,167,169,209,153],"times":[741,534,553,643,610,582,923],"next_num":7,"trial_type":"ticket-choose","trial_index":87,"time_elapsed":1376359,"internal_node_id":"0.0-87.0"},{"result":163,"points":3,"place":0,"phase":1,"sequence":15,"prices":[168,199,196,198,185,195,227,163,177,166],"times":[784,559,621,551,558,597,583,935],"next_num":8,"trial_type":"ticket-choose","trial_index":88,"time_elapsed":1384759,"internal_node_id":"0.0-88.0"},{"result":165,"points":2,"place":1,"phase":1,"sequence":16,"prices":[175,187,177,209,180,188,165,165,154,208],"times":[741,551,582,542,550,550,943],"next_num":7,"trial_type":"ticket-choose","trial_index":89,"time_elapsed":1392239,"internal_node_id":"0.0-89.0"},{"result":163,"points":2,"place":1,"phase":1,"sequence":17,"prices":[175,187,176,209,180,188,163,165,154,208],"times":[612,583,639,575,551,567,980],"next_num":7,"trial_type":"ticket-choose","trial_index":90,"time_elapsed":1399879,"internal_node_id":"0.0-90.0"},{"result":158,"points":2,"place":1,"phase":1,"sequence":18,"prices":[176,187,177,225,181,187,158,165,208,153],"times":[1066,539,614,629,599,543,1006],"next_num":7,"trial_type":"ticket-choose","trial_index":91,"time_elapsed":1407999,"internal_node_id":"0.0-91.0"},{"result":153,"points":3,"place":0,"phase":1,"sequence":19,"prices":[174,186,176,217,181,187,163,166,153,209],"times":[742,414,503,518,560,485,990,801,1117],"next_num":9,"trial_type":"ticket-choose","trial_index":92,"time_elapsed":1417855,"internal_node_id":"0.0-92.0"},{"result":153,"points":3,"place":0,"phase":1,"sequence":20,"prices":[175,186,167,225,179,187,178,169,209,153],"times":[581,357,502,493,560,582,639,1335,671,749],"next_num":10,"trial_type":"ticket-choose","trial_index":93,"time_elapsed":1427944,"internal_node_id":"0.0-93.0"},{"result":158,"points":2,"place":1,"phase":1,"sequence":21,"prices":[175,186,158,209,181,188,177,167,208,154],"times":[816,645,1071],"next_num":3,"trial_type":"ticket-choose","trial_index":94,"time_elapsed":1432729,"internal_node_id":"0.0-94.0"},{"result":156,"points":3,"place":0,"phase":1,"sequence":22,"prices":[175,185,167,224,181,186,178,168,208,156],"times":[1461,526,519,548,565,558,575,890,635,815],"next_num":10,"trial_type":"ticket-choose","trial_index":95,"time_elapsed":1443528,"internal_node_id":"0.0-95.0"},{"result":158,"points":2,"place":1,"phase":1,"sequence":23,"prices":[175,186,177,221,180,187,158,166,209,153],"times":[804,470,535,548,570,572,974],"next_num":7,"trial_type":"ticket-choose","trial_index":96,"time_elapsed":1451297,"internal_node_id":"0.0-96.0"},{"result":153,"points":3,"place":0,"phase":1,"sequence":24,"prices":[175,186,177,210,179,187,165,166,153,208],"times":[700,342,513,548,566,583,872,741,951],"next_num":9,"trial_type":"ticket-choose","trial_index":97,"time_elapsed":1460705,"internal_node_id":"0.0-97.0"},{"result":156,"points":3,"place":0,"phase":1,"sequence":25,"prices":[174,186,178,217,181,188,167,168,208,156],"times":[1474,447,509,478,511,566,769,708,637,782],"next_num":10,"trial_type":"ticket-choose","trial_index":98,"time_elapsed":1471215,"internal_node_id":"0.0-98.0"},{"result":179,"points":1,"place":4,"phase":1,"sequence":26,"prices":[181,215,169,147,182,193,177,184,176,179],"times":[735,599,714,506,630,566,656,978,1035,700],"next_num":10,"trial_type":"ticket-choose","trial_index":99,"time_elapsed":1482302,"internal_node_id":"0.0-99.0"},{"result":165,"points":2,"place":1,"phase":1,"sequence":27,"prices":[200,165,165,173,182,207,161,202,204,180],"times":[719,1190],"next_num":2,"trial_type":"ticket-choose","trial_index":100,"time_elapsed":1486487,"internal_node_id":"0.0-100.0"},{"result":184,"points":1,"place":4,"phase":1,"sequence":28,"prices":[193,165,175,181,185,224,180,199,218,184],"times":[598,1413,686,599,551,670,712,637,847,1151],"next_num":10,"trial_type":"ticket-choose","trial_index":101,"time_elapsed":1498057,"internal_node_id":"0.0-101.0"},{"result":163,"points":2,"place":1,"phase":1,"sequence":29,"prices":[198,193,169,163,202,182,152,164,177,171],"times":[788,606,580,891],"next_num":4,"trial_type":"ticket-choose","trial_index":102,"time_elapsed":1503366,"internal_node_id":"0.0-102.0"},{"result":143,"points":3,"place":0,"phase":1,"sequence":30,"prices":[222,173,202,197,143,205,198,183,178,186],"times":[735,848,588,598,879],"next_num":5,"trial_type":"ticket-choose","trial_index":103,"time_elapsed":1510119,"internal_node_id":"0.0-103.0"},{"result":165,"points":2,"place":1,"phase":1,"sequence":31,"prices":[174,186,177,217,181,187,165,166,153,209],"times":[696,566,542,678,647,560,964],"next_num":7,"trial_type":"ticket-choose","trial_index":104,"time_elapsed":1517894,"internal_node_id":"0.0-104.0"},{"result":165,"points":3,"place":0,"phase":1,"sequence":32,"prices":[185,170,182,201,173,199,171,188,165,168],"times":[808,574,680,597,608,667,624,800,1206],"next_num":9,"trial_type":"ticket-choose","trial_index":105,"time_elapsed":1528040,"internal_node_id":"0.0-105.0"},{"result":152,"points":3,"place":0,"phase":1,"sequence":33,"prices":[200,181,203,152,175,171,160,154,176,191],"times":[1068,590,598,934],"next_num":4,"trial_type":"ticket-choose","trial_index":106,"time_elapsed":1533870,"internal_node_id":"0.0-106.0"},{"result":158,"points":2,"place":1,"phase":1,"sequence":34,"prices":[176,187,158,210,181,187,177,165,208,153],"times":[679,567,904],"next_num":3,"trial_type":"ticket-choose","trial_index":107,"time_elapsed":1538256,"internal_node_id":"0.0-107.0"},{"result":165,"points":2,"place":1,"phase":1,"sequence":35,"prices":[188,200,165,172,198,174,177,154,177,180],"times":[845,535,926],"next_num":3,"trial_type":"ticket-choose","trial_index":108,"time_elapsed":1542888,"internal_node_id":"0.0-108.0"},{"result":155,"points":2,"place":1,"phase":1,"sequence":36,"prices":[181,155,148,161,168,187,172,199,176,194],"times":[797,846],"next_num":2,"trial_type":"ticket-choose","trial_index":109,"time_elapsed":1546505,"internal_node_id":"0.0-109.0"},{"result":163,"points":1,"place":2,"phase":1,"sequence":37,"prices":[183,163,185,180,166,148,160,186,176,184],"times":[765,1181],"next_num":2,"trial_type":"ticket-choose","trial_index":110,"time_elapsed":1550599,"internal_node_id":"0.0-110.0"},{"result":156,"points":3,"place":0,"phase":1,"sequence":38,"prices":[175,185,178,215,181,186,167,168,208,156],"times":[838,559,543,544,547,582,862,950,714,871],"next_num":10,"trial_type":"ticket-choose","trial_index":111,"time_elapsed":1561327,"internal_node_id":"0.0-111.0"},{"result":165,"points":2,"place":1,"phase":1,"sequence":39,"prices":[175,187,165,209,180,188,177,166,154,208],"times":[956,542,894],"next_num":3,"trial_type":"ticket-choose","trial_index":112,"time_elapsed":1565983,"internal_node_id":"0.0-112.0"},{"result":163,"points":2,"place":1,"phase":1,"sequence":40,"prices":[175,186,176,210,179,187,163,166,153,208],"times":[677,534,552,581,559,574,983],"next_num":7,"trial_type":"ticket-choose","trial_index":113,"time_elapsed":1573542,"internal_node_id":"0.0-113.0"},{"result":167,"points":1,"place":2,"phase":1,"sequence":41,"prices":[171,203,175,170,167,220,192,186,165,165],"times":[915,1097,676,615,951],"next_num":5,"trial_type":"ticket-choose","trial_index":114,"time_elapsed":1580511,"internal_node_id":"0.0-114.0"},{"result":165,"points":3,"place":0,"phase":1,"sequence":42,"prices":[183,182,192,168,173,205,167,187,165,170],"times":[879,559,519,524,664,655,686,688,1541],"next_num":9,"trial_type":"ticket-choose","trial_index":115,"time_elapsed":1590976,"internal_node_id":"0.0-115.0"},{"result":165,"points":2,"place":1,"phase":1,"sequence":43,"prices":[201,165,162,166,185,214,165,202,204,179],"times":[620,1174],"next_num":2,"trial_type":"ticket-choose","trial_index":116,"time_elapsed":1594871,"internal_node_id":"0.0-116.0"},{"result":165,"points":2,"place":1,"phase":1,"sequence":44,"prices":[175,186,165,214,179,187,177,166,153,208],"times":[558,601,1077],"next_num":3,"trial_type":"ticket-choose","trial_index":117,"time_elapsed":1599527,"internal_node_id":"0.0-117.0"},{"result":158,"points":3,"place":0,"phase":1,"sequence":45,"prices":[210,184,226,193,215,158,199,175,176,208],"times":[724,551,576,526,639,1150],"next_num":6,"trial_type":"ticket-choose","trial_index":118,"time_elapsed":1606567,"internal_node_id":"0.0-118.0"},{"result":158,"points":2,"place":1,"phase":1,"sequence":46,"prices":[175,186,158,211,180,187,177,166,209,153],"times":[598,583,993],"next_num":3,"trial_type":"ticket-choose","trial_index":119,"time_elapsed":1611064,"internal_node_id":"0.0-119.0"},{"result":154,"points":2,"place":1,"phase":1,"sequence":47,"prices":[168,154,172,185,195,144,184,211,177,227],"times":[829,966],"next_num":2,"trial_type":"ticket-choose","trial_index":120,"time_elapsed":1615232,"internal_node_id":"0.0-120.0"},{"result":150,"points":3,"place":0,"phase":1,"sequence":48,"prices":[189,150,175,160,188,207,158,194,178,199],"times":[711,940],"next_num":2,"trial_type":"ticket-choose","trial_index":121,"time_elapsed":1619079,"internal_node_id":"0.0-121.0"},{"result":156,"points":3,"place":0,"phase":1,"sequence":49,"prices":[174,186,167,211,181,188,178,168,208,156],"times":[973,559,799,581,751,594,589,1014,710,824],"next_num":10,"trial_type":"ticket-choose","trial_index":122,"time_elapsed":1630557,"internal_node_id":"0.0-122.0"},{"responses":[{"value":0,"offby":-1,"category":"$115 - $130","category_index":0},{"value":0,"offby":-5,"category":"$131 - $145","category_index":1},{"value":28,"offby":16,"category":"$146 - $160","category_index":2},{"value":42,"offby":20,"category":"$161 - $175","category_index":3},{"value":30,"offby":-4,"category":"$176 - $190","category_index":4},{"value":0,"offby":-15,"category":"$191 - $205","category_index":5},{"value":0,"offby":-11,"category":"$206 - $220","category_index":6}],"phase":1,"number":1,"trial_type":"bar-choose","trial_index":123,"time_elapsed":1666928,"internal_node_id":"0.0-123.0"},{"special_comment":"the average seemed to be decreasing (by group)","trial_type":"special_sequence","trial_index":124,"time_elapsed":1690174,"internal_node_id":"0.0-124.0"},{"during":"Nothing","bonus":292,"trial_type":"final","trial_index":125,"time_elapsed":1712275,"internal_node_id":"0.0-125.0"}],"bonus":292}