{"start_time":"2017-05-24 13:13:53","end_time":"2017-05-24 13:29:40","points_phase0":104,"points_phase1":93,"phase_order":0,"age":22,"gender":"f","tries":1,"during":"Nothing","worker_id":"A1C59M3HPCO503","assignment_id":"3SB5N7Y3O4XQJMLTG22UJH38YF6G0L","data":[{"rt":2851,"url":"\/christiane\/tickets\/utils\/consent.html","trial_type":"html","trial_index":0,"time_elapsed":2919,"internal_node_id":"0.0-0.0"},{"age":22,"gender":"f","trial_type":"age","trial_index":1,"time_elapsed":8259,"internal_node_id":"0.0-1.0"},{"worker_id":"A1C59M3HPCO503","trial_type":"workerid","trial_index":2,"time_elapsed":12653,"internal_node_id":"0.0-2.0"},{"tries":1,"trial_type":"instructions_check","trial_index":3,"time_elapsed":41768,"internal_node_id":"0.0-3.0"},{"rt":6421,"url":"\/christiane\/tickets\/utils\/start.html","trial_type":"html","trial_index":4,"time_elapsed":49295,"internal_node_id":"0.0-4.0"},{"trial_type":"number-animation","trial_index":5,"time_elapsed":57533,"internal_node_id":"0.0-5.0"},{"phase":0,"sequence":0,"avg":181,"response":171,"trial_type":"training_avg","trial_index":6,"time_elapsed":67014,"internal_node_id":"0.0-6.0"},{"trial_type":"number-animation","trial_index":7,"time_elapsed":74538,"internal_node_id":"0.0-7.0"},{"phase":0,"sequence":1,"avg":188,"response":184,"trial_type":"training_avg","trial_index":8,"time_elapsed":81961,"internal_node_id":"0.0-8.0"},{"trial_type":"number-animation","trial_index":9,"time_elapsed":89105,"internal_node_id":"0.0-9.0"},{"phase":0,"sequence":2,"avg":188,"response":186,"trial_type":"training_avg","trial_index":10,"time_elapsed":95068,"internal_node_id":"0.0-10.0"},{"trial_type":"number-animation","trial_index":11,"time_elapsed":102641,"internal_node_id":"0.0-11.0"},{"phase":0,"sequence":3,"avg":177,"response":170,"trial_type":"training_avg","trial_index":12,"time_elapsed":108337,"internal_node_id":"0.0-12.0"},{"trial_type":"number-animation","trial_index":13,"time_elapsed":117320,"internal_node_id":"0.0-13.0"},{"phase":0,"sequence":4,"avg":182,"response":177,"trial_type":"training_avg","trial_index":14,"time_elapsed":122692,"internal_node_id":"0.0-14.0"},{"responses":[{"value":0,"offby":-1,"category":"$115 - $130","category_index":0},{"value":2,"offby":-3,"category":"$131 - $145","category_index":1},{"value":8,"offby":-4,"category":"$146 - $160","category_index":2},{"value":15,"offby":-7,"category":"$161 - $175","category_index":3},{"value":60,"offby":26,"category":"$176 - $190","category_index":4},{"value":12,"offby":-3,"category":"$191 - $205","category_index":5},{"value":3,"offby":-8,"category":"$206 - $220","category_index":6}],"phase":0,"number":0,"trial_type":"bar-choose","trial_index":15,"time_elapsed":188617,"internal_node_id":"0.0-15.0"},{"rt":11031,"url":"\/christiane\/tickets\/utils\/testing.html","trial_type":"html","trial_index":16,"time_elapsed":200755,"internal_node_id":"0.0-16.0"},{"phase":0,"order":[20,14,1,48,12,22,5,33,28,47,15,24,43,45,37,8,40,3,17,26,46,32,13,35,2,0,30,34,7,29,4,6,21,11,9,39,10,16,42,25,36,31,44,41,19,23,27,18,38,49],"trial_type":"store_order","trial_index":17,"time_elapsed":201755,"internal_node_id":"0.0-17.0"},{"result":165,"points":2,"place":1,"phase":0,"sequence":-1,"prices":[184,180,224,165,181,199,185,193,218,146],"times":[2046,1842,619,1064],"next_num":4,"trial_type":"ticket-choose","trial_index":18,"time_elapsed":210578,"internal_node_id":"0.0-18.0"},{"rt":12802,"url":"\/christiane\/tickets\/utils\/testing_after.html","trial_type":"html","trial_index":19,"time_elapsed":224494,"internal_node_id":"0.0-19.0"},{"result":158,"points":2,"place":1,"phase":0,"sequence":0,"prices":[176,187,158,210,181,187,177,165,208,153],"times":[2042,646,1053],"next_num":3,"trial_type":"ticket-choose","trial_index":20,"time_elapsed":231193,"internal_node_id":"0.0-20.0"},{"result":166,"points":1,"place":2,"phase":0,"sequence":1,"prices":[174,186,163,212,181,187,176,166,153,209],"times":[1088,619,615,608,619,622,2331,947],"next_num":8,"trial_type":"ticket-choose","trial_index":21,"time_elapsed":242425,"internal_node_id":"0.0-21.0"},{"result":167,"points":2,"place":1,"phase":0,"sequence":2,"prices":[175,185,167,224,181,186,178,168,208,156],"times":[2044,595,1016],"next_num":3,"trial_type":"ticket-choose","trial_index":22,"time_elapsed":248440,"internal_node_id":"0.0-22.0"},{"result":147,"points":3,"place":0,"phase":0,"sequence":3,"prices":[181,215,169,147,182,193,177,184,176,179],"times":[787,575,1187,1004],"next_num":4,"trial_type":"ticket-choose","trial_index":23,"time_elapsed":254860,"internal_node_id":"0.0-23.0"},{"result":163,"points":2,"place":1,"phase":0,"sequence":4,"prices":[175,186,163,214,179,187,176,166,153,208],"times":[914,639,995],"next_num":3,"trial_type":"ticket-choose","trial_index":24,"time_elapsed":259716,"internal_node_id":"0.0-24.0"},{"result":158,"points":2,"place":1,"phase":0,"sequence":5,"prices":[175,186,177,209,181,188,158,167,208,154],"times":[848,594,574,557,602,591,1004],"next_num":7,"trial_type":"ticket-choose","trial_index":25,"time_elapsed":267751,"internal_node_id":"0.0-25.0"},{"result":167,"points":2,"place":1,"phase":0,"sequence":6,"prices":[175,186,178,212,179,187,167,169,209,153],"times":[1419,607,583,587,566,566,1066],"next_num":7,"trial_type":"ticket-choose","trial_index":26,"time_elapsed":276595,"internal_node_id":"0.0-26.0"},{"result":168,"points":1,"place":2,"phase":0,"sequence":7,"prices":[183,182,192,168,173,205,167,187,165,170],"times":[1222,638,810,1079],"next_num":4,"trial_type":"ticket-choose","trial_index":27,"time_elapsed":282958,"internal_node_id":"0.0-27.0"},{"result":165,"points":3,"place":0,"phase":0,"sequence":8,"prices":[196,165,170,184,187,211,171,201,202,185],"times":[805,947],"next_num":2,"trial_type":"ticket-choose","trial_index":28,"time_elapsed":286802,"internal_node_id":"0.0-28.0"},{"result":152,"points":3,"place":0,"phase":0,"sequence":9,"prices":[200,181,203,152,175,171,160,154,176,191],"times":[1778,664,600,983],"next_num":4,"trial_type":"ticket-choose","trial_index":29,"time_elapsed":293590,"internal_node_id":"0.0-29.0"},{"result":163,"points":2,"place":1,"phase":0,"sequence":10,"prices":[175,186,176,210,179,187,163,166,153,208],"times":[4679,622,659,606,631,690,911],"next_num":7,"trial_type":"ticket-choose","trial_index":30,"time_elapsed":305485,"internal_node_id":"0.0-30.0"},{"result":165,"points":3,"place":0,"phase":0,"sequence":11,"prices":[193,165,175,181,185,224,180,199,218,184],"times":[771,956],"next_num":2,"trial_type":"ticket-choose","trial_index":31,"time_elapsed":309493,"internal_node_id":"0.0-31.0"},{"result":157,"points":3,"place":0,"phase":0,"sequence":12,"prices":[201,187,157,184,198,179,188,185,178,170],"times":[666,574,952],"next_num":3,"trial_type":"ticket-choose","trial_index":32,"time_elapsed":313957,"internal_node_id":"0.0-32.0"},{"result":167,"points":2,"place":1,"phase":0,"sequence":13,"prices":[212,192,188,184,167,193,189,164,176,170],"times":[704,554,558,550,1050],"next_num":5,"trial_type":"ticket-choose","trial_index":33,"time_elapsed":320020,"internal_node_id":"0.0-33.0"},{"result":169,"points":1,"place":3,"phase":0,"sequence":14,"prices":[198,193,169,163,202,182,152,164,177,171],"times":[593,590,982],"next_num":3,"trial_type":"ticket-choose","trial_index":34,"time_elapsed":324740,"internal_node_id":"0.0-34.0"},{"result":165,"points":2,"place":1,"phase":0,"sequence":15,"prices":[174,186,165,212,181,187,177,167,153,209],"times":[1047,627,951],"next_num":3,"trial_type":"ticket-choose","trial_index":35,"time_elapsed":329676,"internal_node_id":"0.0-35.0"},{"result":160,"points":1,"place":2,"phase":0,"sequence":16,"prices":[189,150,175,160,188,207,158,194,178,199],"times":[727,611,576,862],"next_num":4,"trial_type":"ticket-choose","trial_index":36,"time_elapsed":334972,"internal_node_id":"0.0-36.0"},{"result":167,"points":2,"place":1,"phase":0,"sequence":17,"prices":[174,186,178,217,181,188,167,168,208,156],"times":[556,574,634,590,623,659,919],"next_num":7,"trial_type":"ticket-choose","trial_index":37,"time_elapsed":342627,"internal_node_id":"0.0-37.0"},{"result":163,"points":2,"place":1,"phase":0,"sequence":18,"prices":[174,186,176,217,181,187,163,166,153,209],"times":[956,635,797,575,635,704,1178],"next_num":7,"trial_type":"ticket-choose","trial_index":38,"time_elapsed":351187,"internal_node_id":"0.0-38.0"},{"result":165,"points":2,"place":1,"phase":0,"sequence":19,"prices":[200,165,165,173,182,207,161,202,204,180],"times":[716,919],"next_num":2,"trial_type":"ticket-choose","trial_index":39,"time_elapsed":354910,"internal_node_id":"0.0-39.0"},{"result":158,"points":3,"place":0,"phase":0,"sequence":20,"prices":[210,184,226,193,215,158,199,175,176,208],"times":[644,631,551,564,583,1019],"next_num":6,"trial_type":"ticket-choose","trial_index":40,"time_elapsed":361914,"internal_node_id":"0.0-40.0"},{"result":169,"points":2,"place":1,"phase":0,"sequence":21,"prices":[193,169,171,187,190,224,174,194,165,188],"times":[551,1091],"next_num":2,"trial_type":"ticket-choose","trial_index":41,"time_elapsed":365646,"internal_node_id":"0.0-41.0"},{"result":163,"points":2,"place":1,"phase":0,"sequence":22,"prices":[175,187,163,209,180,188,176,165,154,208],"times":[683,590,1210],"next_num":3,"trial_type":"ticket-choose","trial_index":42,"time_elapsed":370351,"internal_node_id":"0.0-42.0"},{"result":168,"points":1,"place":2,"phase":0,"sequence":23,"prices":[168,154,172,185,195,144,184,211,177,227],"times":[1087],"next_num":1,"trial_type":"ticket-choose","trial_index":43,"time_elapsed":373377,"internal_node_id":"0.0-43.0"},{"result":167,"points":2,"place":1,"phase":0,"sequence":24,"prices":[175,186,167,225,179,187,178,169,209,153],"times":[1046,535,855],"next_num":3,"trial_type":"ticket-choose","trial_index":44,"time_elapsed":378057,"internal_node_id":"0.0-44.0"},{"result":167,"points":2,"place":1,"phase":0,"sequence":25,"prices":[174,186,167,211,181,188,178,168,208,156],"times":[640,643,911],"next_num":3,"trial_type":"ticket-choose","trial_index":45,"time_elapsed":382533,"internal_node_id":"0.0-45.0"},{"result":169,"points":2,"place":1,"phase":0,"sequence":26,"prices":[191,172,169,175,182,203,170,195,165,176],"times":[574,542,971],"next_num":3,"trial_type":"ticket-choose","trial_index":46,"time_elapsed":386933,"internal_node_id":"0.0-46.0"},{"result":155,"points":2,"place":1,"phase":0,"sequence":27,"prices":[181,155,148,161,168,187,172,199,176,194],"times":[620,928],"next_num":2,"trial_type":"ticket-choose","trial_index":47,"time_elapsed":390609,"internal_node_id":"0.0-47.0"},{"result":165,"points":2,"place":1,"phase":0,"sequence":28,"prices":[175,187,165,209,180,188,177,166,154,208],"times":[505,599,939],"next_num":3,"trial_type":"ticket-choose","trial_index":48,"time_elapsed":394872,"internal_node_id":"0.0-48.0"},{"result":165,"points":3,"place":0,"phase":0,"sequence":29,"prices":[185,170,182,201,173,199,171,188,165,168],"times":[659,790,646,652,672,671,627,616,979],"next_num":9,"trial_type":"ticket-choose","trial_index":49,"time_elapsed":405144,"internal_node_id":"0.0-49.0"},{"result":167,"points":2,"place":1,"phase":0,"sequence":30,"prices":[175,185,178,215,181,186,167,168,208,156],"times":[723,551,534,614,578,608,1002],"next_num":7,"trial_type":"ticket-choose","trial_index":50,"time_elapsed":412851,"internal_node_id":"0.0-50.0"},{"result":165,"points":2,"place":1,"phase":0,"sequence":31,"prices":[175,186,165,214,179,187,177,166,153,208],"times":[724,543,976],"next_num":3,"trial_type":"ticket-choose","trial_index":51,"time_elapsed":417339,"internal_node_id":"0.0-51.0"},{"result":158,"points":2,"place":1,"phase":0,"sequence":32,"prices":[175,186,177,221,180,187,158,166,209,153],"times":[596,536,563,599,559,530,951],"next_num":7,"trial_type":"ticket-choose","trial_index":52,"time_elapsed":424823,"internal_node_id":"0.0-52.0"},{"result":165,"points":2,"place":1,"phase":0,"sequence":33,"prices":[174,186,177,217,181,187,165,166,153,209],"times":[3136,542,607,566,570,589,1043],"next_num":7,"trial_type":"ticket-choose","trial_index":53,"time_elapsed":434910,"internal_node_id":"0.0-53.0"},{"result":165,"points":2,"place":1,"phase":0,"sequence":34,"prices":[175,186,177,210,179,187,165,166,153,208],"times":[794,579,664,552,563,551,1015],"next_num":7,"trial_type":"ticket-choose","trial_index":54,"time_elapsed":442697,"internal_node_id":"0.0-54.0"},{"result":165,"points":3,"place":0,"phase":0,"sequence":35,"prices":[189,167,180,197,165,168,172,213,178,171],"times":[524,450,488,608,976],"next_num":5,"trial_type":"ticket-choose","trial_index":55,"time_elapsed":448489,"internal_node_id":"0.0-55.0"},{"result":165,"points":2,"place":1,"phase":0,"sequence":36,"prices":[175,187,177,209,180,188,165,165,154,208],"times":[909,582,550,588,599,559,1098],"next_num":7,"trial_type":"ticket-choose","trial_index":56,"time_elapsed":456437,"internal_node_id":"0.0-56.0"},{"result":163,"points":2,"place":1,"phase":0,"sequence":37,"prices":[175,187,176,209,180,188,163,165,154,208],"times":[743,552,543,571,624,568,972],"next_num":7,"trial_type":"ticket-choose","trial_index":57,"time_elapsed":464072,"internal_node_id":"0.0-57.0"},{"result":143,"points":3,"place":0,"phase":0,"sequence":38,"prices":[222,173,202,197,143,205,198,183,178,186],"times":[614,611,487,502,1084],"next_num":5,"trial_type":"ticket-choose","trial_index":58,"time_elapsed":470176,"internal_node_id":"0.0-58.0"},{"result":165,"points":2,"place":1,"phase":0,"sequence":39,"prices":[201,165,162,166,185,214,165,202,204,179],"times":[578,910],"next_num":2,"trial_type":"ticket-choose","trial_index":59,"time_elapsed":473636,"internal_node_id":"0.0-59.0"},{"result":165,"points":2,"place":1,"phase":0,"sequence":40,"prices":[188,200,165,172,198,174,177,154,177,180],"times":[593,536,881],"next_num":3,"trial_type":"ticket-choose","trial_index":60,"time_elapsed":477980,"internal_node_id":"0.0-60.0"},{"result":165,"points":3,"place":0,"phase":0,"sequence":41,"prices":[171,203,175,170,167,220,192,186,165,165],"times":[620,639,567,610,1183,559,603,614,886],"next_num":9,"trial_type":"ticket-choose","trial_index":61,"time_elapsed":487787,"internal_node_id":"0.0-61.0"},{"result":159,"points":1,"place":2,"phase":0,"sequence":42,"prices":[180,159,149,175,185,141,163,174,178,207],"times":[771,975],"next_num":2,"trial_type":"ticket-choose","trial_index":62,"time_elapsed":492187,"internal_node_id":"0.0-62.0"},{"result":155,"points":2,"place":1,"phase":0,"sequence":43,"prices":[201,207,155,158,156,165,167,135,178,177],"times":[725,600,876],"next_num":3,"trial_type":"ticket-choose","trial_index":63,"time_elapsed":496655,"internal_node_id":"0.0-63.0"},{"result":158,"points":2,"place":1,"phase":0,"sequence":44,"prices":[175,186,158,209,181,188,177,167,208,154],"times":[788,624,867],"next_num":3,"trial_type":"ticket-choose","trial_index":64,"time_elapsed":501191,"internal_node_id":"0.0-64.0"},{"result":153,"points":3,"place":0,"phase":0,"sequence":45,"prices":[176,187,177,225,181,187,158,165,208,153],"times":[734,523,567,558,522,543,550,643,558,656],"next_num":10,"trial_type":"ticket-choose","trial_index":65,"time_elapsed":511262,"internal_node_id":"0.0-65.0"},{"result":165,"points":3,"place":0,"phase":0,"sequence":46,"prices":[192,165,171,178,188,217,172,195,197,186],"times":[1891,1059],"next_num":2,"trial_type":"ticket-choose","trial_index":66,"time_elapsed":516406,"internal_node_id":"0.0-66.0"},{"result":158,"points":2,"place":1,"phase":0,"sequence":47,"prices":[175,186,158,211,180,187,177,166,209,153],"times":[883,646,887],"next_num":3,"trial_type":"ticket-choose","trial_index":67,"time_elapsed":521214,"internal_node_id":"0.0-67.0"},{"result":168,"points":1,"place":2,"phase":0,"sequence":48,"prices":[168,199,196,198,185,195,227,163,177,166],"times":[1539],"next_num":1,"trial_type":"ticket-choose","trial_index":68,"time_elapsed":524657,"internal_node_id":"0.0-68.0"},{"result":163,"points":1,"place":2,"phase":0,"sequence":49,"prices":[183,163,185,180,166,148,160,186,176,184],"times":[683,814],"next_num":2,"trial_type":"ticket-choose","trial_index":69,"time_elapsed":528389,"internal_node_id":"0.0-69.0"},{"responses":[{"value":0,"offby":-1,"category":"$115 - $130","category_index":0},{"value":3,"offby":-2,"category":"$131 - $145","category_index":1},{"value":10,"offby":-2,"category":"$146 - $160","category_index":2},{"value":23,"offby":1,"category":"$161 - $175","category_index":3},{"value":35,"offby":1,"category":"$176 - $190","category_index":4},{"value":22,"offby":7,"category":"$191 - $205","category_index":5},{"value":7,"offby":-4,"category":"$206 - $220","category_index":6}],"phase":1,"number":1,"trial_type":"bar-choose","trial_index":70,"time_elapsed":589769,"internal_node_id":"0.0-70.0"},{"rt":13090,"url":"\/christiane\/tickets\/utils\/testing2.html","trial_type":"point_update","trial_index":71,"time_elapsed":604086,"internal_node_id":"0.0-71.0"},{"phase":1,"order":[30,47,9,20,19,39,41,11,22,29,1,13,40,21,4,14,18,26,32,34,16,3,24,27,25,2,6,8,43,37,48,45,7,15,44,17,33,49,10,38,5,35,0,46,36,42,23,31,28,12],"trial_type":"store_order","trial_index":72,"time_elapsed":605087,"internal_node_id":"0.0-72.0"},{"result":165,"points":2,"place":1,"phase":1,"sequence":0,"prices":[191,170,182,165,175,182,203,157,195,200],"times":[2106,720,555,990],"next_num":4,"trial_type":"ticket-choose","trial_index":73,"time_elapsed":612113,"internal_node_id":"0.0-73.0"},{"result":160,"points":1,"place":2,"phase":1,"sequence":1,"prices":[200,180,203,152,175,170,160,154,176,191],"times":[771,544,578,558,519,523,830],"next_num":7,"trial_type":"ticket-choose","trial_index":74,"time_elapsed":619613,"internal_node_id":"0.0-74.0"},{"result":165,"points":2,"place":1,"phase":1,"sequence":2,"prices":[177,175,186,210,165,179,187,166,153,208],"times":[619,558,552,546,1016],"next_num":5,"trial_type":"ticket-choose","trial_index":75,"time_elapsed":626136,"internal_node_id":"0.0-75.0"},{"result":158,"points":2,"place":1,"phase":1,"sequence":3,"prices":[158,176,187,210,177,181,187,165,208,153],"times":[854],"next_num":1,"trial_type":"ticket-choose","trial_index":76,"time_elapsed":628788,"internal_node_id":"0.0-76.0"},{"result":158,"points":2,"place":1,"phase":1,"sequence":4,"prices":[158,175,186,209,177,181,188,167,208,154],"times":[734],"next_num":1,"trial_type":"ticket-choose","trial_index":77,"time_elapsed":631256,"internal_node_id":"0.0-77.0"},{"result":167,"points":2,"place":1,"phase":1,"sequence":5,"prices":[189,167,180,197,165,168,172,213,178,171],"times":[677,803],"next_num":2,"trial_type":"ticket-choose","trial_index":78,"time_elapsed":634660,"internal_node_id":"0.0-78.0"},{"result":155,"points":2,"place":1,"phase":1,"sequence":6,"prices":[200,207,155,158,156,168,167,135,178,177],"times":[719,586,799],"next_num":3,"trial_type":"ticket-choose","trial_index":79,"time_elapsed":638904,"internal_node_id":"0.0-79.0"},{"result":165,"points":2,"place":1,"phase":1,"sequence":7,"prices":[177,174,186,217,165,181,187,166,153,209],"times":[714,558,571,566,878],"next_num":5,"trial_type":"ticket-choose","trial_index":80,"time_elapsed":644715,"internal_node_id":"0.0-80.0"},{"result":158,"points":2,"place":1,"phase":1,"sequence":8,"prices":[177,175,186,209,158,181,188,167,208,154],"times":[639,578,528,543,1003],"next_num":5,"trial_type":"ticket-choose","trial_index":81,"time_elapsed":650563,"internal_node_id":"0.0-81.0"},{"result":165,"points":1,"place":2,"phase":1,"sequence":9,"prices":[185,179,191,165,161,173,199,150,188,168],"times":[559,564,623,856],"next_num":4,"trial_type":"ticket-choose","trial_index":82,"time_elapsed":655522,"internal_node_id":"0.0-82.0"},{"result":168,"points":1,"place":2,"phase":1,"sequence":10,"prices":[167,175,185,224,178,181,186,168,208,156],"times":[1212,523,517,527,506,551,528,786],"next_num":8,"trial_type":"ticket-choose","trial_index":83,"time_elapsed":663854,"internal_node_id":"0.0-83.0"},{"result":163,"points":2,"place":1,"phase":1,"sequence":11,"prices":[163,175,187,209,176,180,188,165,154,208],"times":[841],"next_num":1,"trial_type":"ticket-choose","trial_index":84,"time_elapsed":666362,"internal_node_id":"0.0-84.0"},{"result":150,"points":3,"place":0,"phase":1,"sequence":12,"prices":[190,150,175,161,188,207,157,194,178,199],"times":[655,771],"next_num":2,"trial_type":"ticket-choose","trial_index":85,"time_elapsed":669678,"internal_node_id":"0.0-85.0"},{"result":158,"points":2,"place":1,"phase":1,"sequence":13,"prices":[177,175,186,221,158,180,187,166,209,153],"times":[703,563,534,583,780],"next_num":5,"trial_type":"ticket-choose","trial_index":86,"time_elapsed":675438,"internal_node_id":"0.0-86.0"},{"result":156,"points":3,"place":0,"phase":1,"sequence":14,"prices":[178,175,185,215,167,181,186,168,208,156],"times":[562,574,517,525,468,542,617,510,586,687],"next_num":10,"trial_type":"ticket-choose","trial_index":87,"time_elapsed":684657,"internal_node_id":"0.0-87.0"},{"result":163,"points":2,"place":1,"phase":1,"sequence":15,"prices":[163,174,186,212,176,181,187,166,153,209],"times":[740],"next_num":1,"trial_type":"ticket-choose","trial_index":88,"time_elapsed":687141,"internal_node_id":"0.0-88.0"},{"result":158,"points":2,"place":1,"phase":1,"sequence":16,"prices":[158,175,186,211,177,180,187,166,209,153],"times":[800],"next_num":1,"trial_type":"ticket-choose","trial_index":89,"time_elapsed":689689,"internal_node_id":"0.0-89.0"},{"result":165,"points":1,"place":2,"phase":1,"sequence":17,"prices":[200,173,182,169,207,165,152,202,161,204],"times":[690,550,1419,486,494,842],"next_num":6,"trial_type":"ticket-choose","trial_index":90,"time_elapsed":696916,"internal_node_id":"0.0-90.0"},{"result":165,"points":2,"place":1,"phase":1,"sequence":18,"prices":[193,174,224,165,187,190,224,161,194,195],"times":[2692,519,530,919],"next_num":4,"trial_type":"ticket-choose","trial_index":91,"time_elapsed":703964,"internal_node_id":"0.0-91.0"},{"result":195,"points":0,"place":8,"phase":1,"sequence":19,"prices":[180,156,149,160,168,186,172,198,176,195],"times":[507,544,546,720,615,531,552,584,654,756],"next_num":10,"trial_type":"ticket-choose","trial_index":92,"time_elapsed":714115,"internal_node_id":"0.0-92.0"},{"result":163,"points":2,"place":1,"phase":1,"sequence":20,"prices":[176,187,179,209,163,180,188,165,154,208],"times":[955,559,571,575,944],"next_num":5,"trial_type":"ticket-choose","trial_index":93,"time_elapsed":720367,"internal_node_id":"0.0-93.0"},{"result":167,"points":2,"place":1,"phase":1,"sequence":21,"prices":[178,174,186,217,167,181,188,168,208,156],"times":[687,567,523,576,900],"next_num":5,"trial_type":"ticket-choose","trial_index":94,"time_elapsed":726151,"internal_node_id":"0.0-94.0"},{"result":165,"points":3,"place":0,"phase":1,"sequence":22,"prices":[193,181,175,181,185,165,224,199,218,184],"times":[611,747,551,543,578,885],"next_num":6,"trial_type":"ticket-choose","trial_index":95,"time_elapsed":732887,"internal_node_id":"0.0-95.0"},{"result":165,"points":3,"place":0,"phase":1,"sequence":23,"prices":[192,172,171,178,188,165,217,168,195,197],"times":[691,671,530,559,582,940],"next_num":6,"trial_type":"ticket-choose","trial_index":96,"time_elapsed":739634,"internal_node_id":"0.0-96.0"},{"result":166,"points":1,"place":3,"phase":1,"sequence":24,"prices":[201,204,179,166,185,165,214,156,202,165],"times":[626,472,455,1188],"next_num":4,"trial_type":"ticket-choose","trial_index":97,"time_elapsed":744906,"internal_node_id":"0.0-97.0"},{"result":153,"points":3,"place":0,"phase":1,"sequence":25,"prices":[167,175,186,225,178,179,187,169,209,153],"times":[898,526,511,539,557,703,554,1366,527,619],"next_num":10,"trial_type":"ticket-choose","trial_index":98,"time_elapsed":755290,"internal_node_id":"0.0-98.0"},{"result":165,"points":2,"place":1,"phase":1,"sequence":26,"prices":[165,175,186,214,177,179,187,166,153,208],"times":[826],"next_num":1,"trial_type":"ticket-choose","trial_index":99,"time_elapsed":757901,"internal_node_id":"0.0-99.0"},{"result":165,"points":2,"place":1,"phase":1,"sequence":27,"prices":[165,174,186,212,177,181,187,166,153,209],"times":[773],"next_num":1,"trial_type":"ticket-choose","trial_index":100,"time_elapsed":760289,"internal_node_id":"0.0-100.0"},{"result":170,"points":2,"place":1,"phase":1,"sequence":28,"prices":[201,187,157,184,198,179,188,185,178,170],"times":[655,530,519,535,543,523,567,574,555,743],"next_num":10,"trial_type":"ticket-choose","trial_index":101,"time_elapsed":769781,"internal_node_id":"0.0-101.0"},{"result":165,"points":1,"place":2,"phase":1,"sequence":29,"prices":[199,193,169,165,202,182,151,164,176,171],"times":[802,566,876,886],"next_num":4,"trial_type":"ticket-choose","trial_index":102,"time_elapsed":775220,"internal_node_id":"0.0-102.0"},{"result":147,"points":3,"place":0,"phase":1,"sequence":30,"prices":[181,214,169,147,182,193,178,184,176,179],"times":[721,535,674,1224],"next_num":4,"trial_type":"ticket-choose","trial_index":103,"time_elapsed":780752,"internal_node_id":"0.0-103.0"},{"result":167,"points":2,"place":1,"phase":1,"sequence":31,"prices":[199,191,188,174,167,193,189,164,176,170],"times":[1160,531,560,543,1122],"next_num":5,"trial_type":"ticket-choose","trial_index":104,"time_elapsed":787264,"internal_node_id":"0.0-104.0"},{"result":165,"points":2,"place":1,"phase":1,"sequence":32,"prices":[165,175,187,209,177,180,188,167,154,208],"times":[843],"next_num":1,"trial_type":"ticket-choose","trial_index":105,"time_elapsed":790155,"internal_node_id":"0.0-105.0"},{"result":163,"points":2,"place":1,"phase":1,"sequence":33,"prices":[176,175,186,210,163,179,187,166,153,208],"times":[675,551,567,546,918],"next_num":5,"trial_type":"ticket-choose","trial_index":106,"time_elapsed":795963,"internal_node_id":"0.0-106.0"},{"result":151,"points":2,"place":1,"phase":1,"sequence":34,"prices":[181,159,149,175,185,151,163,174,178,207],"times":[770,551,548,551,592,1097],"next_num":6,"trial_type":"ticket-choose","trial_index":107,"time_elapsed":802943,"internal_node_id":"0.0-107.0"},{"result":163,"points":2,"place":1,"phase":1,"sequence":35,"prices":[176,186,178,217,163,181,187,166,153,209],"times":[1426,511,543,627,911],"next_num":5,"trial_type":"ticket-choose","trial_index":108,"time_elapsed":809606,"internal_node_id":"0.0-108.0"},{"result":165,"points":2,"place":1,"phase":1,"sequence":36,"prices":[183,179,188,165,168,173,205,159,187,191],"times":[690,559,627,1319],"next_num":4,"trial_type":"ticket-choose","trial_index":109,"time_elapsed":815210,"internal_node_id":"0.0-109.0"},{"result":163,"points":1,"place":2,"phase":1,"sequence":37,"prices":[173,163,185,181,166,148,160,185,176,184],"times":[542,852],"next_num":2,"trial_type":"ticket-choose","trial_index":110,"time_elapsed":818576,"internal_node_id":"0.0-110.0"},{"result":165,"points":2,"place":1,"phase":1,"sequence":38,"prices":[177,175,187,209,165,180,188,165,154,208],"times":[525,563,552,559,1027],"next_num":5,"trial_type":"ticket-choose","trial_index":111,"time_elapsed":824366,"internal_node_id":"0.0-111.0"},{"result":166,"points":1,"place":2,"phase":1,"sequence":39,"prices":[163,199,196,199,185,195,227,163,177,166],"times":[466,584,534,529,553,543,671,595,616,1047],"next_num":10,"trial_type":"ticket-choose","trial_index":112,"time_elapsed":834117,"internal_node_id":"0.0-112.0"},{"result":167,"points":2,"place":1,"phase":1,"sequence":40,"prices":[178,175,186,212,167,179,187,169,209,153],"times":[1323,536,559,536,979],"next_num":5,"trial_type":"ticket-choose","trial_index":113,"time_elapsed":840597,"internal_node_id":"0.0-113.0"},{"result":167,"points":1,"place":2,"phase":1,"sequence":41,"prices":[167,153,172,185,195,143,184,211,177,227],"times":[836],"next_num":1,"trial_type":"ticket-choose","trial_index":114,"time_elapsed":843121,"internal_node_id":"0.0-114.0"},{"result":167,"points":2,"place":1,"phase":1,"sequence":42,"prices":[167,174,186,211,178,181,188,168,208,156],"times":[865],"next_num":1,"trial_type":"ticket-choose","trial_index":115,"time_elapsed":845669,"internal_node_id":"0.0-115.0"},{"result":208,"points":0,"place":6,"phase":1,"sequence":43,"prices":[214,184,226,192,215,158,199,175,176,208],"times":[545,551,558,503,530,544,558,547,591,823],"next_num":10,"trial_type":"ticket-choose","trial_index":116,"time_elapsed":855040,"internal_node_id":"0.0-116.0"},{"result":165,"points":2,"place":1,"phase":1,"sequence":44,"prices":[187,201,165,172,196,174,178,154,172,180],"times":[1588,584,879],"next_num":3,"trial_type":"ticket-choose","trial_index":117,"time_elapsed":860255,"internal_node_id":"0.0-117.0"},{"result":169,"points":3,"place":0,"phase":1,"sequence":45,"prices":[220,173,201,197,169,205,198,183,178,186],"times":[754,615,524,582,1219],"next_num":5,"trial_type":"ticket-choose","trial_index":118,"time_elapsed":866500,"internal_node_id":"0.0-118.0"},{"result":158,"points":2,"place":1,"phase":1,"sequence":46,"prices":[177,176,187,225,158,181,187,165,208,153],"times":[698,603,582,544,979],"next_num":5,"trial_type":"ticket-choose","trial_index":119,"time_elapsed":872459,"internal_node_id":"0.0-119.0"},{"result":169,"points":0,"place":5,"phase":1,"sequence":47,"prices":[171,169,186,165,163,167,220,148,187,165],"times":[672,894],"next_num":2,"trial_type":"ticket-choose","trial_index":120,"time_elapsed":875967,"internal_node_id":"0.0-120.0"},{"result":165,"points":3,"place":0,"phase":1,"sequence":48,"prices":[196,171,170,184,187,165,211,169,201,202],"times":[643,527,499,591,558,995],"next_num":6,"trial_type":"ticket-choose","trial_index":121,"time_elapsed":882587,"internal_node_id":"0.0-121.0"},{"result":163,"points":2,"place":1,"phase":1,"sequence":49,"prices":[163,175,186,214,176,179,187,166,153,208],"times":[953],"next_num":1,"trial_type":"ticket-choose","trial_index":122,"time_elapsed":885271,"internal_node_id":"0.0-122.0"},{"responses":[{"value":2,"offby":1,"category":"$115 - $130","category_index":0},{"value":5,"offby":0,"category":"$131 - $145","category_index":1},{"value":16,"offby":4,"category":"$146 - $160","category_index":2},{"value":22,"offby":0,"category":"$161 - $175","category_index":3},{"value":35,"offby":1,"category":"$176 - $190","category_index":4},{"value":15,"offby":0,"category":"$191 - $205","category_index":5},{"value":5,"offby":-6,"category":"$206 - $220","category_index":6}],"phase":1,"number":1,"trial_type":"bar-choose","trial_index":123,"time_elapsed":924702,"internal_node_id":"0.0-123.0"},{"special_comment":"no","trial_type":"special_sequence","trial_index":124,"time_elapsed":930429,"internal_node_id":"0.0-124.0"},{"during":"Nothing","bonus":264,"trial_type":"final","trial_index":125,"time_elapsed":945026,"internal_node_id":"0.0-125.0"}],"bonus":264}