{"start_time":"2017-05-24 09:14:15","end_time":"2017-05-24 09:48:55","points_phase0":105,"points_phase1":109,"phase_order":1,"age":55,"gender":"f","tries":1,"during":"Nothing","worker_id":"A1EUBMQ86K32XE","assignment_id":"3RXPCZQMQQ4QQB6BCL6UXMMI36VG15","data":[{"rt":292703,"url":"\/christiane\/tickets\/utils\/consent.html","trial_type":"html","trial_index":0,"time_elapsed":292829,"internal_node_id":"0.0-0.0"},{"age":55,"gender":"f","trial_type":"age","trial_index":1,"time_elapsed":303388,"internal_node_id":"0.0-1.0"},{"worker_id":"A1EUBMQ86K32XE","trial_type":"workerid","trial_index":2,"time_elapsed":322226,"internal_node_id":"0.0-2.0"},{"tries":1,"trial_type":"instructions_check","trial_index":3,"time_elapsed":370430,"internal_node_id":"0.0-3.0"},{"rt":10709,"url":"\/christiane\/tickets\/utils\/start.html","trial_type":"html","trial_index":4,"time_elapsed":382368,"internal_node_id":"0.0-4.0"},{"trial_type":"number-animation","trial_index":5,"time_elapsed":412805,"internal_node_id":"0.0-5.0"},{"phase":0,"sequence":0,"avg":181,"response":179,"trial_type":"training_avg","trial_index":6,"time_elapsed":432910,"internal_node_id":"0.0-6.0"},{"trial_type":"number-animation","trial_index":7,"time_elapsed":458091,"internal_node_id":"0.0-7.0"},{"phase":0,"sequence":1,"avg":188,"response":181,"trial_type":"training_avg","trial_index":8,"time_elapsed":483086,"internal_node_id":"0.0-8.0"},{"trial_type":"number-animation","trial_index":9,"time_elapsed":501579,"internal_node_id":"0.0-9.0"},{"phase":0,"sequence":2,"avg":188,"response":176,"trial_type":"training_avg","trial_index":10,"time_elapsed":512746,"internal_node_id":"0.0-10.0"},{"trial_type":"number-animation","trial_index":11,"time_elapsed":531536,"internal_node_id":"0.0-11.0"},{"phase":0,"sequence":3,"avg":177,"response":176,"trial_type":"training_avg","trial_index":12,"time_elapsed":542209,"internal_node_id":"0.0-12.0"},{"trial_type":"number-animation","trial_index":13,"time_elapsed":586515,"internal_node_id":"0.0-13.0"},{"phase":0,"sequence":4,"avg":182,"response":176,"trial_type":"training_avg","trial_index":14,"time_elapsed":598018,"internal_node_id":"0.0-14.0"},{"responses":[{"value":25,"offby":24,"category":"$115 - $130","category_index":0},{"value":25,"offby":20,"category":"$131 - $145","category_index":1},{"value":25,"offby":13,"category":"$146 - $160","category_index":2},{"value":25,"offby":3,"category":"$161 - $175","category_index":3},{"value":0,"offby":-34,"category":"$176 - $190","category_index":4},{"value":0,"offby":-15,"category":"$191 - $205","category_index":5},{"value":0,"offby":-11,"category":"$206 - $220","category_index":6}],"phase":0,"number":0,"trial_type":"bar-choose","trial_index":15,"time_elapsed":672907,"internal_node_id":"0.0-15.0"},{"rt":9279,"url":"\/christiane\/tickets\/utils\/testing.html","trial_type":"html","trial_index":16,"time_elapsed":683439,"internal_node_id":"0.0-16.0"},{"phase":0,"order":[40,1,7,0,37,49,25,12,45,43,4,13,21,38,42,39,27,15,32,14,22,17,5,31,9,24,44,36,18,26,11,19,8,34,35,47,10,3,16,29,48,28,20,2,6,23,46,41,30,33],"trial_type":"store_order","trial_index":17,"time_elapsed":684491,"internal_node_id":"0.0-17.0"},{"result":165,"points":2,"place":1,"phase":0,"sequence":-1,"prices":[184,180,224,165,181,199,185,193,218,146],"times":[5951,3279,1358,2429],"next_num":4,"trial_type":"ticket-choose","trial_index":18,"time_elapsed":703901,"internal_node_id":"0.0-18.0"},{"rt":6356,"url":"\/christiane\/tickets\/utils\/testing_after.html","trial_type":"html","trial_index":19,"time_elapsed":711562,"internal_node_id":"0.0-19.0"},{"result":171,"points":1,"place":2,"phase":0,"sequence":0,"prices":[192,172,171,178,188,165,217,168,195,197],"times":[5404,6781,1764],"next_num":3,"trial_type":"ticket-choose","trial_index":20,"time_elapsed":729470,"internal_node_id":"0.0-20.0"},{"result":167,"points":2,"place":1,"phase":0,"sequence":1,"prices":[189,167,180,197,165,168,172,213,178,171],"times":[2882,4013],"next_num":2,"trial_type":"ticket-choose","trial_index":21,"time_elapsed":740175,"internal_node_id":"0.0-21.0"},{"result":163,"points":3,"place":0,"phase":0,"sequence":2,"prices":[163,199,196,199,185,195,227,163,177,166],"times":[2193,1405,1478,1052,1371,1286,1330,1963],"next_num":8,"trial_type":"ticket-choose","trial_index":22,"time_elapsed":759083,"internal_node_id":"0.0-22.0"},{"result":167,"points":2,"place":1,"phase":0,"sequence":3,"prices":[178,174,186,217,167,181,188,168,208,156],"times":[4379,2145,1330,1168,1693],"next_num":5,"trial_type":"ticket-choose","trial_index":23,"time_elapsed":774250,"internal_node_id":"0.0-23.0"},{"result":167,"points":2,"place":1,"phase":0,"sequence":4,"prices":[178,175,185,215,167,181,186,168,208,156],"times":[24150,1552,977,901,1821],"next_num":5,"trial_type":"ticket-choose","trial_index":24,"time_elapsed":807767,"internal_node_id":"0.0-24.0"},{"result":165,"points":2,"place":1,"phase":0,"sequence":5,"prices":[165,174,186,212,177,181,187,166,153,209],"times":[3415],"next_num":1,"trial_type":"ticket-choose","trial_index":25,"time_elapsed":814899,"internal_node_id":"0.0-25.0"},{"result":150,"points":3,"place":0,"phase":0,"sequence":6,"prices":[190,150,175,161,188,207,157,194,178,199],"times":[1878,2293],"next_num":2,"trial_type":"ticket-choose","trial_index":26,"time_elapsed":823142,"internal_node_id":"0.0-26.0"},{"result":166,"points":1,"place":3,"phase":0,"sequence":7,"prices":[201,204,179,166,185,165,214,156,202,165],"times":[1898,1122,2472,1747],"next_num":4,"trial_type":"ticket-choose","trial_index":27,"time_elapsed":834737,"internal_node_id":"0.0-27.0"},{"result":165,"points":1,"place":2,"phase":0,"sequence":8,"prices":[163,175,187,209,176,180,188,165,154,208],"times":[4425,1062,888,1019,1469,892,1081,4081],"next_num":8,"trial_type":"ticket-choose","trial_index":28,"time_elapsed":854927,"internal_node_id":"0.0-28.0"},{"result":158,"points":3,"place":0,"phase":0,"sequence":9,"prices":[214,184,226,192,215,158,199,175,176,208],"times":[2390,1528,5069,1265,944,1655],"next_num":6,"trial_type":"ticket-choose","trial_index":29,"time_elapsed":873554,"internal_node_id":"0.0-29.0"},{"result":165,"points":2,"place":1,"phase":0,"sequence":10,"prices":[177,175,186,210,165,179,187,166,153,208],"times":[6176,2581,1210,973,1743],"next_num":5,"trial_type":"ticket-choose","trial_index":30,"time_elapsed":891264,"internal_node_id":"0.0-30.0"},{"result":158,"points":2,"place":1,"phase":0,"sequence":11,"prices":[158,175,186,211,177,180,187,166,209,153],"times":[3716],"next_num":1,"trial_type":"ticket-choose","trial_index":31,"time_elapsed":898319,"internal_node_id":"0.0-31.0"},{"result":170,"points":1,"place":2,"phase":0,"sequence":12,"prices":[196,171,170,184,187,165,211,169,201,202],"times":[1921,3079,1655],"next_num":3,"trial_type":"ticket-choose","trial_index":32,"time_elapsed":908498,"internal_node_id":"0.0-32.0"},{"result":163,"points":2,"place":1,"phase":0,"sequence":13,"prices":[175,187,176,209,163,180,188,165,154,208],"times":[2447,1153,1162,1164,1558],"next_num":5,"trial_type":"ticket-choose","trial_index":33,"time_elapsed":920051,"internal_node_id":"0.0-33.0"},{"result":174,"points":1,"place":2,"phase":0,"sequence":14,"prices":[193,174,224,165,187,190,224,161,194,195],"times":[2076,4776],"next_num":2,"trial_type":"ticket-choose","trial_index":34,"time_elapsed":930599,"internal_node_id":"0.0-34.0"},{"result":165,"points":3,"place":0,"phase":0,"sequence":15,"prices":[193,181,175,181,185,165,224,199,218,184],"times":[1734,1429,2599,1149,1005,1449],"next_num":6,"trial_type":"ticket-choose","trial_index":35,"time_elapsed":945343,"internal_node_id":"0.0-35.0"},{"result":152,"points":3,"place":0,"phase":0,"sequence":16,"prices":[200,180,203,152,175,170,160,154,176,191],"times":[3682,1627,1021,1351],"next_num":4,"trial_type":"ticket-choose","trial_index":36,"time_elapsed":957495,"internal_node_id":"0.0-36.0"},{"result":165,"points":1,"place":2,"phase":0,"sequence":17,"prices":[171,169,186,165,163,167,220,148,187,165],"times":[2004,2324,979,2003],"next_num":4,"trial_type":"ticket-choose","trial_index":37,"time_elapsed":968769,"internal_node_id":"0.0-37.0"},{"result":167,"points":1,"place":2,"phase":0,"sequence":18,"prices":[165,175,187,209,177,180,188,167,154,208],"times":[21174,932,1108,905,870,924,938,2130],"next_num":8,"trial_type":"ticket-choose","trial_index":38,"time_elapsed":1002229,"internal_node_id":"0.0-38.0"},{"result":169,"points":1,"place":3,"phase":0,"sequence":19,"prices":[200,173,182,169,207,165,152,202,161,204],"times":[2609,2105,1114,1463],"next_num":4,"trial_type":"ticket-choose","trial_index":39,"time_elapsed":1013055,"internal_node_id":"0.0-39.0"},{"result":165,"points":2,"place":1,"phase":0,"sequence":20,"prices":[165,175,186,214,177,179,187,166,153,208],"times":[3189],"next_num":1,"trial_type":"ticket-choose","trial_index":40,"time_elapsed":1019795,"internal_node_id":"0.0-40.0"},{"result":157,"points":3,"place":0,"phase":0,"sequence":21,"prices":[201,187,157,184,198,179,188,185,178,170],"times":[1964,1146,1764],"next_num":3,"trial_type":"ticket-choose","trial_index":41,"time_elapsed":1028887,"internal_node_id":"0.0-41.0"},{"result":169,"points":1,"place":3,"phase":0,"sequence":22,"prices":[199,193,169,165,202,182,151,164,176,171],"times":[2576,2406,1511],"next_num":3,"trial_type":"ticket-choose","trial_index":42,"time_elapsed":1038813,"internal_node_id":"0.0-42.0"},{"result":155,"points":2,"place":1,"phase":0,"sequence":23,"prices":[200,207,155,158,156,168,167,135,178,177],"times":[1996,1930,1467],"next_num":3,"trial_type":"ticket-choose","trial_index":43,"time_elapsed":1047889,"internal_node_id":"0.0-43.0"},{"result":153,"points":3,"place":0,"phase":0,"sequence":24,"prices":[163,175,186,214,176,179,187,166,153,208],"times":[2480,1003,911,1062,1096,1355,852,2443,1279],"next_num":9,"trial_type":"ticket-choose","trial_index":44,"time_elapsed":1066870,"internal_node_id":"0.0-44.0"},{"result":158,"points":2,"place":1,"phase":0,"sequence":25,"prices":[177,175,186,221,158,180,187,166,209,153],"times":[1983,1659,1011,974,1622],"next_num":5,"trial_type":"ticket-choose","trial_index":45,"time_elapsed":1078536,"internal_node_id":"0.0-45.0"},{"result":158,"points":2,"place":1,"phase":0,"sequence":26,"prices":[158,176,187,210,177,181,187,165,208,153],"times":[2986],"next_num":1,"trial_type":"ticket-choose","trial_index":46,"time_elapsed":1084754,"internal_node_id":"0.0-46.0"},{"result":167,"points":1,"place":2,"phase":0,"sequence":27,"prices":[167,153,172,185,195,143,184,211,177,227],"times":[2681],"next_num":1,"trial_type":"ticket-choose","trial_index":47,"time_elapsed":1090599,"internal_node_id":"0.0-47.0"},{"result":159,"points":1,"place":2,"phase":0,"sequence":28,"prices":[181,159,149,175,185,151,163,174,178,207],"times":[3342,1578],"next_num":2,"trial_type":"ticket-choose","trial_index":48,"time_elapsed":1098640,"internal_node_id":"0.0-48.0"},{"result":167,"points":2,"place":1,"phase":0,"sequence":29,"prices":[178,175,186,212,167,179,187,169,209,153],"times":[1665,1101,862,871,2226],"next_num":5,"trial_type":"ticket-choose","trial_index":49,"time_elapsed":1110462,"internal_node_id":"0.0-49.0"},{"result":161,"points":2,"place":1,"phase":0,"sequence":30,"prices":[185,179,191,165,161,173,199,150,188,168],"times":[1696,1282,965,2271,1487],"next_num":5,"trial_type":"ticket-choose","trial_index":50,"time_elapsed":1122213,"internal_node_id":"0.0-50.0"},{"result":164,"points":3,"place":0,"phase":0,"sequence":31,"prices":[199,191,188,174,167,193,189,164,176,170],"times":[4044,462,943,1184,2347,930,993,2277],"next_num":8,"trial_type":"ticket-choose","trial_index":51,"time_elapsed":1140959,"internal_node_id":"0.0-51.0"},{"result":165,"points":2,"place":1,"phase":0,"sequence":32,"prices":[177,174,186,217,165,181,187,166,153,209],"times":[1995,1707,1211,957,1867],"next_num":5,"trial_type":"ticket-choose","trial_index":52,"time_elapsed":1152558,"internal_node_id":"0.0-52.0"},{"result":163,"points":2,"place":1,"phase":0,"sequence":33,"prices":[176,175,186,210,163,179,187,166,153,208],"times":[2132,1968,1137,1013,1510],"next_num":5,"trial_type":"ticket-choose","trial_index":53,"time_elapsed":1164048,"internal_node_id":"0.0-53.0"},{"result":157,"points":3,"place":0,"phase":0,"sequence":34,"prices":[191,170,182,165,175,182,203,157,195,200],"times":[2665,1039,984,2044,1297,1074,1022,1399],"next_num":8,"trial_type":"ticket-choose","trial_index":54,"time_elapsed":1181055,"internal_node_id":"0.0-54.0"},{"result":169,"points":3,"place":0,"phase":0,"sequence":35,"prices":[220,173,201,197,169,205,198,183,178,186],"times":[2958,1208,1092,1346,2674],"next_num":5,"trial_type":"ticket-choose","trial_index":55,"time_elapsed":1194502,"internal_node_id":"0.0-55.0"},{"result":167,"points":2,"place":1,"phase":0,"sequence":36,"prices":[167,175,185,224,178,181,186,168,208,156],"times":[3536],"next_num":1,"trial_type":"ticket-choose","trial_index":56,"time_elapsed":1201395,"internal_node_id":"0.0-56.0"},{"result":165,"points":2,"place":1,"phase":0,"sequence":37,"prices":[177,175,187,209,165,180,188,165,154,208],"times":[2333,1443,994,914,2491,833,839,3092],"next_num":8,"trial_type":"ticket-choose","trial_index":57,"time_elapsed":1219211,"internal_node_id":"0.0-57.0"},{"result":147,"points":3,"place":0,"phase":0,"sequence":38,"prices":[181,214,169,147,182,193,178,184,176,179],"times":[4047,864,1613,1609],"next_num":4,"trial_type":"ticket-choose","trial_index":58,"time_elapsed":1231710,"internal_node_id":"0.0-58.0"},{"result":158,"points":2,"place":1,"phase":0,"sequence":39,"prices":[177,176,187,225,158,181,187,165,208,153],"times":[4902,1348,959,900,2061],"next_num":5,"trial_type":"ticket-choose","trial_index":59,"time_elapsed":1246111,"internal_node_id":"0.0-59.0"},{"result":154,"points":3,"place":0,"phase":0,"sequence":40,"prices":[177,175,186,209,158,181,188,167,208,154],"times":[2100,1229,1083,929,2396,855,1676,1168,1127,1393],"next_num":10,"trial_type":"ticket-choose","trial_index":60,"time_elapsed":1266058,"internal_node_id":"0.0-60.0"},{"result":159,"points":3,"place":0,"phase":0,"sequence":41,"prices":[183,179,188,165,168,173,205,159,187,191],"times":[2628,1019,918,2453,926,907,857,1567],"next_num":8,"trial_type":"ticket-choose","trial_index":61,"time_elapsed":1281978,"internal_node_id":"0.0-61.0"},{"result":156,"points":2,"place":1,"phase":0,"sequence":42,"prices":[180,156,149,160,168,186,172,198,176,195],"times":[1693,1741],"next_num":2,"trial_type":"ticket-choose","trial_index":62,"time_elapsed":1288709,"internal_node_id":"0.0-62.0"},{"result":163,"points":2,"place":1,"phase":0,"sequence":43,"prices":[163,174,186,212,176,181,187,166,153,209],"times":[2104],"next_num":1,"trial_type":"ticket-choose","trial_index":63,"time_elapsed":1293857,"internal_node_id":"0.0-63.0"},{"result":156,"points":3,"place":0,"phase":0,"sequence":44,"prices":[167,174,186,211,178,181,188,168,208,156],"times":[2264,893,936,968,894,1020,779,1393,1633,1268],"next_num":10,"trial_type":"ticket-choose","trial_index":64,"time_elapsed":1310744,"internal_node_id":"0.0-64.0"},{"result":158,"points":2,"place":1,"phase":0,"sequence":45,"prices":[158,175,186,209,177,181,188,167,208,154],"times":[2877],"next_num":1,"trial_type":"ticket-choose","trial_index":65,"time_elapsed":1318819,"internal_node_id":"0.0-65.0"},{"result":163,"points":2,"place":1,"phase":0,"sequence":46,"prices":[174,186,176,217,163,181,187,166,153,209],"times":[1845,1068,933,897,2147],"next_num":5,"trial_type":"ticket-choose","trial_index":66,"time_elapsed":1329424,"internal_node_id":"0.0-66.0"},{"result":148,"points":3,"place":0,"phase":0,"sequence":47,"prices":[173,163,185,181,166,148,160,185,176,184],"times":[1992,2374,1181,970,1328,1533],"next_num":6,"trial_type":"ticket-choose","trial_index":67,"time_elapsed":1343628,"internal_node_id":"0.0-67.0"},{"result":153,"points":3,"place":0,"phase":0,"sequence":48,"prices":[167,175,186,225,178,179,187,169,209,153],"times":[2048,934,962,1036,813,864,873,1401,1250,1571],"next_num":10,"trial_type":"ticket-choose","trial_index":68,"time_elapsed":1362811,"internal_node_id":"0.0-68.0"},{"result":165,"points":2,"place":1,"phase":0,"sequence":49,"prices":[187,201,165,172,196,174,178,154,172,180],"times":[2357,1030,3527],"next_num":3,"trial_type":"ticket-choose","trial_index":69,"time_elapsed":1372957,"internal_node_id":"0.0-69.0"},{"responses":[{"value":50,"offby":49,"category":"$115 - $130","category_index":0},{"value":50,"offby":45,"category":"$131 - $145","category_index":1},{"value":0,"offby":-12,"category":"$146 - $160","category_index":2},{"value":0,"offby":-22,"category":"$161 - $175","category_index":3},{"value":0,"offby":-34,"category":"$176 - $190","category_index":4},{"value":0,"offby":-15,"category":"$191 - $205","category_index":5},{"value":0,"offby":-11,"category":"$206 - $220","category_index":6}],"phase":1,"number":1,"trial_type":"bar-choose","trial_index":70,"time_elapsed":1406539,"internal_node_id":"0.0-70.0"},{"rt":4596,"url":"\/christiane\/tickets\/utils\/testing2.html","trial_type":"point_update","trial_index":71,"time_elapsed":1412400,"internal_node_id":"0.0-71.0"},{"phase":1,"order":[27,39,38,3,4,8,40,25,13,46,9,18,28,16,32,24,47,31,7,26,6,43,37,41,12,21,20,35,44,5,29,45,11,15,30,42,1,10,48,23,22,33,34,14,0,19,17,49,2,36],"trial_type":"store_order","trial_index":72,"time_elapsed":1413493,"internal_node_id":"0.0-72.0"},{"result":150,"points":3,"place":0,"phase":1,"sequence":0,"prices":[189,150,175,160,188,207,158,194,178,199],"times":[1869,1248],"next_num":2,"trial_type":"ticket-choose","trial_index":73,"time_elapsed":1421721,"internal_node_id":"0.0-73.0"},{"result":156,"points":3,"place":0,"phase":1,"sequence":1,"prices":[175,185,167,224,181,186,178,168,208,156],"times":[1623,939,1891,837,835,822,1136,1780,998,1166],"next_num":10,"trial_type":"ticket-choose","trial_index":74,"time_elapsed":1438690,"internal_node_id":"0.0-74.0"},{"result":165,"points":2,"place":1,"phase":1,"sequence":2,"prices":[175,187,165,209,180,188,177,166,154,208],"times":[2423,897,2918],"next_num":3,"trial_type":"ticket-choose","trial_index":75,"time_elapsed":1448015,"internal_node_id":"0.0-75.0"},{"result":156,"points":3,"place":0,"phase":1,"sequence":3,"prices":[174,186,167,211,181,188,178,168,208,156],"times":[2039,843,1545,866,901,880,942,1262,924,1132],"next_num":10,"trial_type":"ticket-choose","trial_index":76,"time_elapsed":1463979,"internal_node_id":"0.0-76.0"},{"result":163,"points":2,"place":1,"phase":1,"sequence":4,"prices":[198,193,169,163,202,182,152,164,177,171],"times":[1833,833,1161,1829],"next_num":4,"trial_type":"ticket-choose","trial_index":77,"time_elapsed":1473103,"internal_node_id":"0.0-77.0"},{"result":163,"points":1,"place":2,"phase":1,"sequence":5,"prices":[183,163,185,180,166,148,160,186,176,184],"times":[2015,2021],"next_num":2,"trial_type":"ticket-choose","trial_index":78,"time_elapsed":1480220,"internal_node_id":"0.0-78.0"},{"result":162,"points":3,"place":0,"phase":1,"sequence":6,"prices":[201,165,162,166,185,214,165,202,204,179],"times":[1639,2148,1611],"next_num":3,"trial_type":"ticket-choose","trial_index":79,"time_elapsed":1489184,"internal_node_id":"0.0-79.0"},{"result":163,"points":2,"place":1,"phase":1,"sequence":7,"prices":[175,186,163,214,179,187,176,166,153,208],"times":[1747,937,2768],"next_num":3,"trial_type":"ticket-choose","trial_index":80,"time_elapsed":1497864,"internal_node_id":"0.0-80.0"},{"result":167,"points":2,"place":1,"phase":1,"sequence":8,"prices":[212,192,188,184,167,193,189,164,176,170],"times":[2180,1330,1243,1375,1573],"next_num":5,"trial_type":"ticket-choose","trial_index":81,"time_elapsed":1509367,"internal_node_id":"0.0-81.0"},{"result":157,"points":3,"place":0,"phase":1,"sequence":9,"prices":[201,187,157,184,198,179,188,185,178,170],"times":[2287,1074,1352],"next_num":3,"trial_type":"ticket-choose","trial_index":82,"time_elapsed":1517335,"internal_node_id":"0.0-82.0"},{"result":167,"points":2,"place":1,"phase":1,"sequence":10,"prices":[175,185,178,215,181,186,167,168,208,156],"times":[1912,981,1015,850,1051,1072,2012],"next_num":7,"trial_type":"ticket-choose","trial_index":83,"time_elapsed":1530319,"internal_node_id":"0.0-83.0"},{"result":163,"points":2,"place":1,"phase":1,"sequence":11,"prices":[175,187,163,209,180,188,176,165,154,208],"times":[1669,932,1963],"next_num":3,"trial_type":"ticket-choose","trial_index":84,"time_elapsed":1538465,"internal_node_id":"0.0-84.0"},{"result":158,"points":2,"place":1,"phase":1,"sequence":12,"prices":[175,186,177,221,180,187,158,166,209,153],"times":[1587,1029,1041,888,840,884,1446],"next_num":7,"trial_type":"ticket-choose","trial_index":85,"time_elapsed":1550358,"internal_node_id":"0.0-85.0"},{"result":163,"points":3,"place":0,"phase":1,"sequence":13,"prices":[168,199,196,198,185,195,227,163,177,166],"times":[3041,1053,938,1149,1080,1061,1235,1606],"next_num":8,"trial_type":"ticket-choose","trial_index":86,"time_elapsed":1566847,"internal_node_id":"0.0-86.0"},{"result":143,"points":3,"place":0,"phase":1,"sequence":14,"prices":[222,173,202,197,143,205,198,183,178,186],"times":[2246,1811,1310,1050,1535],"next_num":5,"trial_type":"ticket-choose","trial_index":87,"time_elapsed":1578808,"internal_node_id":"0.0-87.0"},{"result":171,"points":1,"place":3,"phase":1,"sequence":15,"prices":[189,167,180,197,165,168,172,213,178,171],"times":[1993,1707,923,861,2379,821,810,1048,961,1987],"next_num":10,"trial_type":"ticket-choose","trial_index":88,"time_elapsed":1597794,"internal_node_id":"0.0-88.0"},{"result":165,"points":3,"place":0,"phase":1,"sequence":16,"prices":[192,165,171,178,188,217,172,195,197,186],"times":[2299,3654],"next_num":2,"trial_type":"ticket-choose","trial_index":89,"time_elapsed":1608535,"internal_node_id":"0.0-89.0"},{"result":163,"points":2,"place":1,"phase":1,"sequence":17,"prices":[175,186,176,210,179,187,163,166,153,208],"times":[1715,940,863,972,983,3416,1676],"next_num":7,"trial_type":"ticket-choose","trial_index":90,"time_elapsed":1623527,"internal_node_id":"0.0-90.0"},{"result":169,"points":2,"place":1,"phase":1,"sequence":18,"prices":[193,169,171,187,190,224,174,194,165,188],"times":[1587,2026],"next_num":2,"trial_type":"ticket-choose","trial_index":91,"time_elapsed":1630160,"internal_node_id":"0.0-91.0"},{"result":163,"points":2,"place":1,"phase":1,"sequence":19,"prices":[174,186,163,212,181,187,176,166,153,209],"times":[1593,971,1605],"next_num":3,"trial_type":"ticket-choose","trial_index":92,"time_elapsed":1637199,"internal_node_id":"0.0-92.0"},{"result":158,"points":2,"place":1,"phase":1,"sequence":20,"prices":[175,186,177,209,181,188,158,167,208,154],"times":[1722,866,756,1086,1496,857,1388],"next_num":7,"trial_type":"ticket-choose","trial_index":93,"time_elapsed":1649293,"internal_node_id":"0.0-93.0"},{"result":163,"points":2,"place":1,"phase":1,"sequence":21,"prices":[174,186,176,217,181,187,163,166,153,209],"times":[2085,927,1044,849,925,1003,1543],"next_num":7,"trial_type":"ticket-choose","trial_index":94,"time_elapsed":1662759,"internal_node_id":"0.0-94.0"},{"result":167,"points":2,"place":1,"phase":1,"sequence":22,"prices":[175,186,178,212,179,187,167,169,209,153],"times":[1739,1053,1582,968,1036,1545,2458],"next_num":7,"trial_type":"ticket-choose","trial_index":95,"time_elapsed":1677365,"internal_node_id":"0.0-95.0"},{"result":167,"points":1,"place":2,"phase":1,"sequence":23,"prices":[171,203,175,170,167,220,192,186,165,165],"times":[1731,978,1057,1864,1476],"next_num":5,"trial_type":"ticket-choose","trial_index":96,"time_elapsed":1688122,"internal_node_id":"0.0-96.0"},{"result":165,"points":2,"place":1,"phase":1,"sequence":24,"prices":[175,186,177,210,179,187,165,166,153,208],"times":[2881,1297,1078,966,888,777,1708],"next_num":7,"trial_type":"ticket-choose","trial_index":97,"time_elapsed":1702176,"internal_node_id":"0.0-97.0"},{"result":165,"points":3,"place":0,"phase":1,"sequence":25,"prices":[193,165,175,181,185,224,180,199,218,184],"times":[2063,2092],"next_num":2,"trial_type":"ticket-choose","trial_index":98,"time_elapsed":1709936,"internal_node_id":"0.0-98.0"},{"result":159,"points":1,"place":2,"phase":1,"sequence":26,"prices":[180,159,149,175,185,141,163,174,178,207],"times":[1628,1577],"next_num":2,"trial_type":"ticket-choose","trial_index":99,"time_elapsed":1716270,"internal_node_id":"0.0-99.0"},{"result":154,"points":3,"place":0,"phase":1,"sequence":27,"prices":[188,200,165,172,198,174,177,154,177,180],"times":[1434,915,1811,860,828,809,1370,1337],"next_num":8,"trial_type":"ticket-choose","trial_index":100,"time_elapsed":1730432,"internal_node_id":"0.0-100.0"},{"result":158,"points":2,"place":1,"phase":1,"sequence":28,"prices":[175,186,158,211,180,187,177,166,209,153],"times":[1921,966,1448],"next_num":3,"trial_type":"ticket-choose","trial_index":101,"time_elapsed":1738031,"internal_node_id":"0.0-101.0"},{"result":165,"points":2,"place":1,"phase":1,"sequence":29,"prices":[200,165,165,173,182,207,161,202,204,180],"times":[1939,1718],"next_num":2,"trial_type":"ticket-choose","trial_index":102,"time_elapsed":1744647,"internal_node_id":"0.0-102.0"},{"result":165,"points":2,"place":1,"phase":1,"sequence":30,"prices":[174,186,177,217,181,187,165,166,153,209],"times":[1719,913,867,1048,891,854,2622],"next_num":7,"trial_type":"ticket-choose","trial_index":103,"time_elapsed":1757987,"internal_node_id":"0.0-103.0"},{"result":158,"points":2,"place":1,"phase":1,"sequence":31,"prices":[175,186,158,209,181,188,177,167,208,154],"times":[2281,2886,1605],"next_num":3,"trial_type":"ticket-choose","trial_index":104,"time_elapsed":1769593,"internal_node_id":"0.0-104.0"},{"result":165,"points":2,"place":1,"phase":1,"sequence":32,"prices":[174,186,165,212,181,187,177,167,153,209],"times":[2241,2709,3057],"next_num":3,"trial_type":"ticket-choose","trial_index":105,"time_elapsed":1780478,"internal_node_id":"0.0-105.0"},{"result":155,"points":2,"place":1,"phase":1,"sequence":33,"prices":[181,155,148,161,168,187,172,199,176,194],"times":[1993,1522],"next_num":2,"trial_type":"ticket-choose","trial_index":106,"time_elapsed":1786928,"internal_node_id":"0.0-106.0"},{"result":154,"points":2,"place":1,"phase":1,"sequence":34,"prices":[168,154,172,185,195,144,184,211,177,227],"times":[2274,1656],"next_num":2,"trial_type":"ticket-choose","trial_index":107,"time_elapsed":1793883,"internal_node_id":"0.0-107.0"},{"result":152,"points":3,"place":0,"phase":1,"sequence":35,"prices":[200,181,203,152,175,171,160,154,176,191],"times":[1848,2181,937,1483],"next_num":4,"trial_type":"ticket-choose","trial_index":108,"time_elapsed":1804206,"internal_node_id":"0.0-108.0"},{"result":165,"points":2,"place":1,"phase":1,"sequence":36,"prices":[175,187,177,209,180,188,165,165,154,208],"times":[5024,778,810,799,962,1033,1840],"next_num":7,"trial_type":"ticket-choose","trial_index":109,"time_elapsed":1819567,"internal_node_id":"0.0-109.0"},{"result":167,"points":2,"place":1,"phase":1,"sequence":37,"prices":[174,186,178,217,181,188,167,168,208,156],"times":[1401,1183,2241,1147,2123,923,1622],"next_num":7,"trial_type":"ticket-choose","trial_index":110,"time_elapsed":1834945,"internal_node_id":"0.0-110.0"},{"result":163,"points":2,"place":1,"phase":1,"sequence":38,"prices":[175,187,176,209,180,188,163,165,154,208],"times":[2213,967,997,975,831,1280,1738],"next_num":7,"trial_type":"ticket-choose","trial_index":111,"time_elapsed":1848459,"internal_node_id":"0.0-111.0"},{"result":165,"points":3,"place":0,"phase":1,"sequence":39,"prices":[185,170,182,201,173,199,171,188,165,168],"times":[2108,2145,908,823,1561,851,1290,991,1272],"next_num":9,"trial_type":"ticket-choose","trial_index":112,"time_elapsed":1865418,"internal_node_id":"0.0-112.0"},{"result":169,"points":2,"place":1,"phase":1,"sequence":40,"prices":[181,215,169,147,182,193,177,184,176,179],"times":[2075,1641,2919],"next_num":3,"trial_type":"ticket-choose","trial_index":113,"time_elapsed":1875551,"internal_node_id":"0.0-113.0"},{"result":165,"points":3,"place":0,"phase":1,"sequence":41,"prices":[196,165,170,184,187,211,171,201,202,185],"times":[1727,1650],"next_num":2,"trial_type":"ticket-choose","trial_index":114,"time_elapsed":1882456,"internal_node_id":"0.0-114.0"},{"result":158,"points":2,"place":1,"phase":1,"sequence":42,"prices":[176,187,158,210,181,187,177,165,208,153],"times":[1575,875,1656],"next_num":3,"trial_type":"ticket-choose","trial_index":115,"time_elapsed":1889883,"internal_node_id":"0.0-115.0"},{"result":167,"points":2,"place":1,"phase":1,"sequence":43,"prices":[175,186,167,225,179,187,178,169,209,153],"times":[1899,1325,3722],"next_num":3,"trial_type":"ticket-choose","trial_index":116,"time_elapsed":1899995,"internal_node_id":"0.0-116.0"},{"result":165,"points":2,"place":1,"phase":1,"sequence":44,"prices":[175,186,165,214,179,187,177,166,153,208],"times":[1965,1276,2062],"next_num":3,"trial_type":"ticket-choose","trial_index":117,"time_elapsed":1909325,"internal_node_id":"0.0-117.0"},{"result":158,"points":2,"place":1,"phase":1,"sequence":45,"prices":[176,187,177,225,181,187,158,165,208,153],"times":[1362,1938,1450,971,997,1157,1532],"next_num":7,"trial_type":"ticket-choose","trial_index":118,"time_elapsed":1923544,"internal_node_id":"0.0-118.0"},{"result":158,"points":3,"place":0,"phase":1,"sequence":46,"prices":[210,184,226,193,215,158,199,175,176,208],"times":[1756,974,929,898,866,1417],"next_num":6,"trial_type":"ticket-choose","trial_index":119,"time_elapsed":1934311,"internal_node_id":"0.0-119.0"},{"result":155,"points":2,"place":1,"phase":1,"sequence":47,"prices":[201,207,155,158,156,165,167,135,178,177],"times":[1738,953,1446],"next_num":3,"trial_type":"ticket-choose","trial_index":120,"time_elapsed":1941672,"internal_node_id":"0.0-120.0"},{"result":169,"points":2,"place":1,"phase":1,"sequence":48,"prices":[191,172,169,175,182,203,170,195,165,176],"times":[1973,1331,1661],"next_num":3,"trial_type":"ticket-choose","trial_index":121,"time_elapsed":1950387,"internal_node_id":"0.0-121.0"},{"result":168,"points":1,"place":2,"phase":1,"sequence":49,"prices":[183,182,192,168,173,205,167,187,165,170],"times":[1938,1103,1264,2819],"next_num":4,"trial_type":"ticket-choose","trial_index":122,"time_elapsed":1960857,"internal_node_id":"0.0-122.0"},{"responses":[{"value":10,"offby":9,"category":"$115 - $130","category_index":0},{"value":10,"offby":5,"category":"$131 - $145","category_index":1},{"value":15,"offby":3,"category":"$146 - $160","category_index":2},{"value":15,"offby":-7,"category":"$161 - $175","category_index":3},{"value":20,"offby":-14,"category":"$176 - $190","category_index":4},{"value":20,"offby":5,"category":"$191 - $205","category_index":5},{"value":10,"offby":-1,"category":"$206 - $220","category_index":6}],"phase":1,"number":1,"trial_type":"bar-choose","trial_index":123,"time_elapsed":2027397,"internal_node_id":"0.0-123.0"},{"special_comment":"no","trial_type":"special_sequence","trial_index":124,"time_elapsed":2037806,"internal_node_id":"0.0-124.0"},{"during":"Nothing","bonus":284,"trial_type":"final","trial_index":125,"time_elapsed":2071876,"internal_node_id":"0.0-125.0"}],"bonus":284}