{"start_time":"2017-05-24 15:40:09","end_time":"2017-05-24 16:20:34","points_phase0":110,"points_phase1":121,"phase_order":0,"age":43,"gender":"m","tries":1,"during":"Nothing","worker_id":"A1F1OZ54G177D8","assignment_id":"3WYP994K18KLJOS8CX4HZIK3GFZ6YT","data":[{"rt":321535,"url":"\/christiane\/tickets\/utils\/consent.html","trial_type":"html","trial_index":0,"time_elapsed":321737,"internal_node_id":"0.0-0.0"},{"age":43,"gender":"m","trial_type":"age","trial_index":1,"time_elapsed":776555,"internal_node_id":"0.0-1.0"},{"worker_id":"A1F1OZ54G177D8","trial_type":"workerid","trial_index":2,"time_elapsed":781259,"internal_node_id":"0.0-2.0"},{"tries":1,"trial_type":"instructions_check","trial_index":3,"time_elapsed":803629,"internal_node_id":"0.0-3.0"},{"rt":138722,"url":"\/christiane\/tickets\/utils\/start.html","trial_type":"html","trial_index":4,"time_elapsed":943584,"internal_node_id":"0.0-4.0"},{"trial_type":"number-animation","trial_index":5,"time_elapsed":962787,"internal_node_id":"0.0-5.0"},{"phase":0,"sequence":0,"avg":181,"response":173,"trial_type":"training_avg","trial_index":6,"time_elapsed":974226,"internal_node_id":"0.0-6.0"},{"trial_type":"number-animation","trial_index":7,"time_elapsed":990903,"internal_node_id":"0.0-7.0"},{"phase":0,"sequence":1,"avg":188,"response":212,"trial_type":"training_avg","trial_index":8,"time_elapsed":1011540,"internal_node_id":"0.0-8.0"},{"trial_type":"number-animation","trial_index":9,"time_elapsed":1028624,"internal_node_id":"0.0-9.0"},{"phase":0,"sequence":2,"avg":188,"response":174,"trial_type":"training_avg","trial_index":10,"time_elapsed":1037258,"internal_node_id":"0.0-10.0"},{"trial_type":"number-animation","trial_index":11,"time_elapsed":1046505,"internal_node_id":"0.0-11.0"},{"phase":0,"sequence":3,"avg":177,"response":177,"trial_type":"training_avg","trial_index":12,"time_elapsed":1056611,"internal_node_id":"0.0-12.0"},{"trial_type":"number-animation","trial_index":13,"time_elapsed":1066843,"internal_node_id":"0.0-13.0"},{"phase":0,"sequence":4,"avg":182,"response":175,"trial_type":"training_avg","trial_index":14,"time_elapsed":1076615,"internal_node_id":"0.0-14.0"},{"responses":[{"value":1,"offby":0,"category":"$115 - $130","category_index":0},{"value":3,"offby":-2,"category":"$131 - $145","category_index":1},{"value":15,"offby":3,"category":"$146 - $160","category_index":2},{"value":35,"offby":13,"category":"$161 - $175","category_index":3},{"value":30,"offby":-4,"category":"$176 - $190","category_index":4},{"value":12,"offby":-3,"category":"$191 - $205","category_index":5},{"value":4,"offby":-7,"category":"$206 - $220","category_index":6}],"phase":0,"number":0,"trial_type":"bar-choose","trial_index":15,"time_elapsed":1139768,"internal_node_id":"0.0-15.0"},{"rt":9392,"url":"\/christiane\/tickets\/utils\/testing.html","trial_type":"html","trial_index":16,"time_elapsed":1150381,"internal_node_id":"0.0-16.0"},{"phase":0,"order":[24,27,5,17,37,39,14,47,8,31,38,45,44,2,26,0,28,34,11,43,10,6,25,21,1,20,40,18,33,46,49,13,36,42,3,48,32,41,12,4,29,22,16,23,7,9,19,30,35,15],"trial_type":"store_order","trial_index":17,"time_elapsed":1151382,"internal_node_id":"0.0-17.0"},{"result":165,"points":2,"place":1,"phase":0,"sequence":-1,"prices":[184,180,224,165,181,199,185,193,218,146],"times":[2014,738,798,1385],"next_num":4,"trial_type":"ticket-choose","trial_index":18,"time_elapsed":1159762,"internal_node_id":"0.0-18.0"},{"rt":14655,"url":"\/christiane\/tickets\/utils\/testing_after.html","trial_type":"html","trial_index":19,"time_elapsed":1175763,"internal_node_id":"0.0-19.0"},{"result":184,"points":1,"place":4,"phase":0,"sequence":0,"prices":[193,165,175,181,185,224,180,199,218,184],"times":[3117,1203,623,788,750,729,947,808,799,789],"next_num":10,"trial_type":"ticket-choose","trial_index":20,"time_elapsed":1191097,"internal_node_id":"0.0-20.0"},{"result":165,"points":3,"place":0,"phase":0,"sequence":1,"prices":[192,165,171,178,188,217,172,195,197,186],"times":[1397,1281],"next_num":2,"trial_type":"ticket-choose","trial_index":21,"time_elapsed":1197634,"internal_node_id":"0.0-21.0"},{"result":167,"points":2,"place":1,"phase":0,"sequence":2,"prices":[175,186,178,212,179,187,167,169,209,153],"times":[1340,717,621,591,1055,632,961],"next_num":7,"trial_type":"ticket-choose","trial_index":22,"time_elapsed":1207554,"internal_node_id":"0.0-22.0"},{"result":163,"points":2,"place":1,"phase":0,"sequence":3,"prices":[174,186,176,217,181,187,163,166,153,209],"times":[1434,602,537,602,769,622,1210],"next_num":7,"trial_type":"ticket-choose","trial_index":23,"time_elapsed":1217127,"internal_node_id":"0.0-23.0"},{"result":169,"points":1,"place":3,"phase":0,"sequence":4,"prices":[198,193,169,163,202,182,152,164,177,171],"times":[1220,624,1746],"next_num":3,"trial_type":"ticket-choose","trial_index":24,"time_elapsed":1223918,"internal_node_id":"0.0-24.0"},{"result":165,"points":3,"place":0,"phase":0,"sequence":5,"prices":[189,167,180,197,165,168,172,213,178,171],"times":[826,571,522,591,1122],"next_num":5,"trial_type":"ticket-choose","trial_index":25,"time_elapsed":1232875,"internal_node_id":"0.0-25.0"},{"result":166,"points":1,"place":2,"phase":0,"sequence":6,"prices":[174,186,163,212,181,187,176,166,153,209],"times":[1377,602,523,922,762,613,740,1016],"next_num":8,"trial_type":"ticket-choose","trial_index":26,"time_elapsed":1243119,"internal_node_id":"0.0-26.0"},{"result":152,"points":3,"place":0,"phase":0,"sequence":7,"prices":[200,181,203,152,175,171,160,154,176,191],"times":[1025,807,1309,1109],"next_num":4,"trial_type":"ticket-choose","trial_index":27,"time_elapsed":1250237,"internal_node_id":"0.0-27.0"},{"result":165,"points":2,"place":1,"phase":0,"sequence":8,"prices":[174,186,165,212,181,187,177,167,153,209],"times":[4943,831,1013],"next_num":3,"trial_type":"ticket-choose","trial_index":28,"time_elapsed":1259856,"internal_node_id":"0.0-28.0"},{"result":165,"points":3,"place":0,"phase":0,"sequence":9,"prices":[171,203,175,170,167,220,192,186,165,165],"times":[1148,588,520,596,1250,620,670,1055,1019],"next_num":9,"trial_type":"ticket-choose","trial_index":29,"time_elapsed":1271852,"internal_node_id":"0.0-29.0"},{"result":168,"points":1,"place":2,"phase":0,"sequence":10,"prices":[168,199,196,198,185,195,227,163,177,166],"times":[4970],"next_num":1,"trial_type":"ticket-choose","trial_index":30,"time_elapsed":1279201,"internal_node_id":"0.0-30.0"},{"result":164,"points":3,"place":0,"phase":0,"sequence":11,"prices":[212,192,188,184,167,193,189,164,176,170],"times":[891,646,660,660,1447,689,639,1027],"next_num":8,"trial_type":"ticket-choose","trial_index":31,"time_elapsed":1289517,"internal_node_id":"0.0-31.0"},{"result":159,"points":1,"place":2,"phase":0,"sequence":12,"prices":[180,159,149,175,185,141,163,174,178,207],"times":[1128,1115],"next_num":2,"trial_type":"ticket-choose","trial_index":32,"time_elapsed":1294022,"internal_node_id":"0.0-32.0"},{"result":153,"points":3,"place":0,"phase":0,"sequence":13,"prices":[175,186,167,225,179,187,178,169,209,153],"times":[1368,612,512,600,641,601,650,1500,689,644],"next_num":10,"trial_type":"ticket-choose","trial_index":33,"time_elapsed":1306981,"internal_node_id":"0.0-33.0"},{"result":165,"points":2,"place":1,"phase":0,"sequence":14,"prices":[200,165,165,173,182,207,161,202,204,180],"times":[1207,1292],"next_num":2,"trial_type":"ticket-choose","trial_index":34,"time_elapsed":1311960,"internal_node_id":"0.0-34.0"},{"result":156,"points":3,"place":0,"phase":0,"sequence":15,"prices":[174,186,167,211,181,188,178,168,208,156],"times":[878,668,888,631,671,610,671,1391,611,820],"next_num":10,"trial_type":"ticket-choose","trial_index":35,"time_elapsed":1324748,"internal_node_id":"0.0-35.0"},{"result":165,"points":3,"place":0,"phase":0,"sequence":16,"prices":[196,165,170,184,187,211,171,201,202,185],"times":[1286,944],"next_num":2,"trial_type":"ticket-choose","trial_index":36,"time_elapsed":1329791,"internal_node_id":"0.0-36.0"},{"result":155,"points":2,"place":1,"phase":0,"sequence":17,"prices":[181,155,148,161,168,187,172,199,176,194],"times":[855,1000],"next_num":2,"trial_type":"ticket-choose","trial_index":37,"time_elapsed":1333931,"internal_node_id":"0.0-37.0"},{"result":165,"points":2,"place":1,"phase":0,"sequence":18,"prices":[174,186,177,217,181,187,165,166,153,209],"times":[1061,889,669,580,521,561,922],"next_num":7,"trial_type":"ticket-choose","trial_index":38,"time_elapsed":1342547,"internal_node_id":"0.0-38.0"},{"result":170,"points":2,"place":1,"phase":0,"sequence":19,"prices":[201,187,157,184,198,179,188,185,178,170],"times":[1231,481,503,940,593,829,641,692,1222,672],"next_num":10,"trial_type":"ticket-choose","trial_index":39,"time_elapsed":1355450,"internal_node_id":"0.0-39.0"},{"result":165,"points":2,"place":1,"phase":0,"sequence":20,"prices":[175,187,177,209,180,188,165,165,154,208],"times":[1035,565,621,610,613,671,1093],"next_num":7,"trial_type":"ticket-choose","trial_index":40,"time_elapsed":1364112,"internal_node_id":"0.0-40.0"},{"result":165,"points":2,"place":1,"phase":0,"sequence":21,"prices":[175,186,165,214,179,187,177,166,153,208],"times":[747,484,1152],"next_num":3,"trial_type":"ticket-choose","trial_index":41,"time_elapsed":1368902,"internal_node_id":"0.0-41.0"},{"result":166,"points":1,"place":3,"phase":0,"sequence":22,"prices":[201,165,162,166,185,214,165,202,204,179],"times":[581,731,431,1144],"next_num":4,"trial_type":"ticket-choose","trial_index":42,"time_elapsed":1374579,"internal_node_id":"0.0-42.0"},{"result":158,"points":2,"place":1,"phase":0,"sequence":23,"prices":[175,186,177,221,180,187,158,166,209,153],"times":[961,832,650,672,650,651,983],"next_num":7,"trial_type":"ticket-choose","trial_index":43,"time_elapsed":1383224,"internal_node_id":"0.0-43.0"},{"result":156,"points":3,"place":0,"phase":0,"sequence":24,"prices":[175,185,167,224,181,186,178,168,208,156],"times":[803,680,1193,642,796,670,701,886,1273,644],"next_num":10,"trial_type":"ticket-choose","trial_index":44,"time_elapsed":1401057,"internal_node_id":"0.0-44.0"},{"result":165,"points":1,"place":2,"phase":0,"sequence":25,"prices":[176,187,158,210,181,187,177,165,208,153],"times":[1307,1514,502,926,562,602,630,1120],"next_num":8,"trial_type":"ticket-choose","trial_index":45,"time_elapsed":1411942,"internal_node_id":"0.0-45.0"},{"result":150,"points":3,"place":0,"phase":0,"sequence":26,"prices":[189,150,175,160,188,207,158,194,178,199],"times":[1937,1116],"next_num":2,"trial_type":"ticket-choose","trial_index":46,"time_elapsed":1417527,"internal_node_id":"0.0-46.0"},{"result":158,"points":2,"place":1,"phase":0,"sequence":27,"prices":[175,186,158,211,180,187,177,166,209,153],"times":[1182,691,1244],"next_num":3,"trial_type":"ticket-choose","trial_index":47,"time_elapsed":1423098,"internal_node_id":"0.0-47.0"},{"result":165,"points":3,"place":0,"phase":0,"sequence":28,"prices":[183,182,192,168,173,205,167,187,165,170],"times":[957,681,691,888,719,769,2932,649,2335],"next_num":9,"trial_type":"ticket-choose","trial_index":48,"time_elapsed":1437981,"internal_node_id":"0.0-48.0"},{"result":158,"points":3,"place":0,"phase":0,"sequence":29,"prices":[210,184,226,193,215,158,199,175,176,208],"times":[1103,761,689,620,819,1102],"next_num":6,"trial_type":"ticket-choose","trial_index":49,"time_elapsed":1446385,"internal_node_id":"0.0-49.0"},{"result":163,"points":1,"place":2,"phase":0,"sequence":30,"prices":[183,163,185,180,166,148,160,186,176,184],"times":[931,1215],"next_num":2,"trial_type":"ticket-choose","trial_index":50,"time_elapsed":1450723,"internal_node_id":"0.0-50.0"},{"result":165,"points":1,"place":2,"phase":0,"sequence":31,"prices":[175,187,163,209,180,188,176,165,154,208],"times":[995,604,986,602,679,1105,899,1247],"next_num":8,"trial_type":"ticket-choose","trial_index":51,"time_elapsed":1461588,"internal_node_id":"0.0-51.0"},{"result":154,"points":3,"place":0,"phase":0,"sequence":32,"prices":[188,200,165,172,198,174,177,154,177,180],"times":[814,545,888,591,632,642,605,1004],"next_num":8,"trial_type":"ticket-choose","trial_index":52,"time_elapsed":1471000,"internal_node_id":"0.0-52.0"},{"result":186,"points":1,"place":4,"phase":0,"sequence":33,"prices":[222,173,202,197,143,205,198,183,178,186],"times":[1651,1183,680,632,512,1027,686,640,790,1029],"next_num":11,"trial_type":"ticket-choose","trial_index":53,"time_elapsed":1484852,"internal_node_id":"0.0-53.0"},{"result":167,"points":2,"place":1,"phase":0,"sequence":34,"prices":[174,186,178,217,181,188,167,168,208,156],"times":[1105,740,610,720,711,701,2030],"next_num":7,"trial_type":"ticket-choose","trial_index":54,"time_elapsed":1494896,"internal_node_id":"0.0-54.0"},{"result":147,"points":3,"place":0,"phase":0,"sequence":35,"prices":[181,215,169,147,182,193,177,184,176,179],"times":[749,604,838,1154],"next_num":4,"trial_type":"ticket-choose","trial_index":55,"time_elapsed":1500869,"internal_node_id":"0.0-55.0"},{"result":165,"points":3,"place":0,"phase":0,"sequence":36,"prices":[193,169,171,187,190,224,174,194,165,188],"times":[931,966,740,620,681,690,728,778,1026],"next_num":9,"trial_type":"ticket-choose","trial_index":56,"time_elapsed":1511956,"internal_node_id":"0.0-56.0"},{"result":155,"points":2,"place":1,"phase":0,"sequence":37,"prices":[201,207,155,158,156,165,167,135,178,177],"times":[1149,555,1015],"next_num":3,"trial_type":"ticket-choose","trial_index":57,"time_elapsed":1517113,"internal_node_id":"0.0-57.0"},{"result":163,"points":2,"place":1,"phase":0,"sequence":38,"prices":[175,186,163,214,179,187,176,166,153,208],"times":[1098,648,1616],"next_num":3,"trial_type":"ticket-choose","trial_index":58,"time_elapsed":1522899,"internal_node_id":"0.0-58.0"},{"result":156,"points":3,"place":0,"phase":0,"sequence":39,"prices":[175,185,178,215,181,186,167,168,208,156],"times":[843,482,543,699,739,679,1527,1135,808,598],"next_num":10,"trial_type":"ticket-choose","trial_index":59,"time_elapsed":1535295,"internal_node_id":"0.0-59.0"},{"result":165,"points":3,"place":0,"phase":0,"sequence":40,"prices":[185,170,182,201,173,199,171,188,165,168],"times":[1203,541,590,691,689,671,790,718,1617],"next_num":9,"trial_type":"ticket-choose","trial_index":60,"time_elapsed":1546837,"internal_node_id":"0.0-60.0"},{"result":158,"points":2,"place":1,"phase":0,"sequence":41,"prices":[175,186,177,209,181,188,158,167,208,154],"times":[1275,523,631,650,657,681,1288],"next_num":7,"trial_type":"ticket-choose","trial_index":61,"time_elapsed":1555854,"internal_node_id":"0.0-61.0"},{"result":163,"points":2,"place":1,"phase":0,"sequence":42,"prices":[175,187,176,209,180,188,163,165,154,208],"times":[631,612,640,670,700,641,1705],"next_num":7,"trial_type":"ticket-choose","trial_index":62,"time_elapsed":1564702,"internal_node_id":"0.0-62.0"},{"result":158,"points":2,"place":1,"phase":0,"sequence":43,"prices":[176,187,177,225,181,187,158,165,208,153],"times":[1011,621,621,679,620,610,1201],"next_num":7,"trial_type":"ticket-choose","trial_index":63,"time_elapsed":1573319,"internal_node_id":"0.0-63.0"},{"result":154,"points":3,"place":0,"phase":0,"sequence":44,"prices":[175,187,165,209,180,188,177,166,154,208],"times":[788,492,493,571,600,642,659,1480,1073],"next_num":9,"trial_type":"ticket-choose","trial_index":64,"time_elapsed":1584087,"internal_node_id":"0.0-64.0"},{"result":165,"points":2,"place":1,"phase":0,"sequence":45,"prices":[175,186,177,210,179,187,165,166,153,208],"times":[1272,611,630,682,631,593,1740],"next_num":7,"trial_type":"ticket-choose","trial_index":65,"time_elapsed":1593931,"internal_node_id":"0.0-65.0"},{"result":158,"points":2,"place":1,"phase":0,"sequence":46,"prices":[175,186,158,209,181,188,177,167,208,154],"times":[1432,868,1228],"next_num":3,"trial_type":"ticket-choose","trial_index":66,"time_elapsed":1600189,"internal_node_id":"0.0-66.0"},{"result":165,"points":3,"place":0,"phase":0,"sequence":47,"prices":[191,172,169,175,182,203,170,195,165,176],"times":[1277,561,561,701,689,710,691,759,2718],"next_num":9,"trial_type":"ticket-choose","trial_index":67,"time_elapsed":1612964,"internal_node_id":"0.0-67.0"},{"result":144,"points":3,"place":0,"phase":0,"sequence":48,"prices":[168,154,172,185,195,144,184,211,177,227],"times":[1091,531,642,680,660,1715],"next_num":6,"trial_type":"ticket-choose","trial_index":68,"time_elapsed":1622179,"internal_node_id":"0.0-68.0"},{"result":163,"points":2,"place":1,"phase":0,"sequence":49,"prices":[175,186,176,210,179,187,163,166,153,208],"times":[1265,690,648,759,650,663,1381],"next_num":7,"trial_type":"ticket-choose","trial_index":69,"time_elapsed":1631773,"internal_node_id":"0.0-69.0"},{"responses":[{"value":1,"offby":0,"category":"$115 - $130","category_index":0},{"value":4,"offby":-1,"category":"$131 - $145","category_index":1},{"value":7,"offby":-5,"category":"$146 - $160","category_index":2},{"value":27,"offby":5,"category":"$161 - $175","category_index":3},{"value":35,"offby":1,"category":"$176 - $190","category_index":4},{"value":16,"offby":1,"category":"$191 - $205","category_index":5},{"value":10,"offby":-1,"category":"$206 - $220","category_index":6}],"phase":1,"number":1,"trial_type":"bar-choose","trial_index":70,"time_elapsed":1726183,"internal_node_id":"0.0-70.0"},{"rt":38067,"url":"\/christiane\/tickets\/utils\/testing2.html","trial_type":"point_update","trial_index":71,"time_elapsed":1765600,"internal_node_id":"0.0-71.0"},{"phase":1,"order":[25,3,10,6,13,19,48,40,32,18,2,38,21,12,29,36,9,1,41,17,28,26,45,23,47,42,4,8,24,7,34,5,14,15,37,35,44,0,30,43,27,11,22,33,16,49,46,31,39,20],"trial_type":"store_order","trial_index":72,"time_elapsed":1766601,"internal_node_id":"0.0-72.0"},{"result":165,"points":2,"place":1,"phase":1,"sequence":0,"prices":[201,204,179,166,185,165,214,156,202,165],"times":[1626,599,602,2227,616,1029],"next_num":6,"trial_type":"ticket-choose","trial_index":73,"time_elapsed":1776437,"internal_node_id":"0.0-73.0"},{"result":156,"points":3,"place":0,"phase":1,"sequence":1,"prices":[178,174,186,217,167,181,188,168,208,156],"times":[2937,739,689,581,917,650,848,1420,709,897],"next_num":10,"trial_type":"ticket-choose","trial_index":74,"time_elapsed":1790867,"internal_node_id":"0.0-74.0"},{"result":165,"points":2,"place":1,"phase":1,"sequence":2,"prices":[177,175,187,209,165,180,188,165,154,208],"times":[1379,630,573,768,1254],"next_num":5,"trial_type":"ticket-choose","trial_index":75,"time_elapsed":1798251,"internal_node_id":"0.0-75.0"},{"result":153,"points":3,"place":0,"phase":1,"sequence":3,"prices":[165,175,186,214,177,179,187,166,153,208],"times":[1268,552,561,650,600,620,710,1589,944],"next_num":9,"trial_type":"ticket-choose","trial_index":76,"time_elapsed":1809823,"internal_node_id":"0.0-76.0"},{"result":163,"points":2,"place":1,"phase":1,"sequence":4,"prices":[163,175,187,209,176,180,188,165,154,208],"times":[1567],"next_num":1,"trial_type":"ticket-choose","trial_index":77,"time_elapsed":1813519,"internal_node_id":"0.0-77.0"},{"result":158,"points":2,"place":1,"phase":1,"sequence":5,"prices":[158,175,186,209,177,181,188,167,208,154],"times":[1024],"next_num":1,"trial_type":"ticket-choose","trial_index":78,"time_elapsed":1816662,"internal_node_id":"0.0-78.0"},{"result":147,"points":3,"place":0,"phase":1,"sequence":6,"prices":[181,214,169,147,182,193,178,184,176,179],"times":[901,582,897,1377],"next_num":4,"trial_type":"ticket-choose","trial_index":79,"time_elapsed":1823104,"internal_node_id":"0.0-79.0"},{"result":150,"points":3,"place":0,"phase":1,"sequence":7,"prices":[190,150,175,161,188,207,157,194,178,199],"times":[823,1122],"next_num":2,"trial_type":"ticket-choose","trial_index":80,"time_elapsed":1827284,"internal_node_id":"0.0-80.0"},{"result":161,"points":3,"place":0,"phase":1,"sequence":8,"prices":[193,174,224,165,187,190,224,161,194,195],"times":[766,707,948,1752,622,635,642,1691],"next_num":8,"trial_type":"ticket-choose","trial_index":81,"time_elapsed":1839183,"internal_node_id":"0.0-81.0"},{"result":158,"points":2,"place":1,"phase":1,"sequence":9,"prices":[158,175,186,211,177,180,187,166,209,153],"times":[1256],"next_num":1,"trial_type":"ticket-choose","trial_index":82,"time_elapsed":1842424,"internal_node_id":"0.0-82.0"},{"result":153,"points":3,"place":0,"phase":1,"sequence":10,"prices":[167,175,186,225,178,179,187,169,209,153],"times":[1098,611,590,542,641,631,622,1393,640,808],"next_num":10,"trial_type":"ticket-choose","trial_index":83,"time_elapsed":1854135,"internal_node_id":"0.0-83.0"},{"result":163,"points":3,"place":0,"phase":1,"sequence":11,"prices":[163,199,196,199,185,195,227,163,177,166],"times":[1817,511,678,593,621,581,600,1851],"next_num":8,"trial_type":"ticket-choose","trial_index":84,"time_elapsed":1865390,"internal_node_id":"0.0-84.0"},{"result":158,"points":2,"place":1,"phase":1,"sequence":12,"prices":[177,175,186,221,158,180,187,166,209,153],"times":[1010,600,522,593,1108],"next_num":5,"trial_type":"ticket-choose","trial_index":85,"time_elapsed":1872111,"internal_node_id":"0.0-85.0"},{"result":153,"points":3,"place":0,"phase":1,"sequence":13,"prices":[163,175,186,214,176,179,187,166,153,208],"times":[854,521,523,640,544,608,769,1476,1168],"next_num":9,"trial_type":"ticket-choose","trial_index":86,"time_elapsed":1884204,"internal_node_id":"0.0-86.0"},{"result":150,"points":3,"place":0,"phase":1,"sequence":14,"prices":[185,179,191,165,161,173,199,150,188,168],"times":[1233,713,473,483,415,601,581,970],"next_num":8,"trial_type":"ticket-choose","trial_index":87,"time_elapsed":1893094,"internal_node_id":"0.0-87.0"},{"result":154,"points":3,"place":0,"phase":1,"sequence":15,"prices":[187,201,165,172,196,174,178,154,172,180],"times":[1074,741,976,590,690,640,620,1039],"next_num":8,"trial_type":"ticket-choose","trial_index":88,"time_elapsed":1903434,"internal_node_id":"0.0-88.0"},{"result":153,"points":3,"place":0,"phase":1,"sequence":16,"prices":[177,175,186,210,165,179,187,166,153,208],"times":[1411,561,562,611,1160,587,562,966,980],"next_num":9,"trial_type":"ticket-choose","trial_index":89,"time_elapsed":1914567,"internal_node_id":"0.0-89.0"},{"result":156,"points":3,"place":0,"phase":1,"sequence":17,"prices":[167,175,185,224,178,181,186,168,208,156],"times":[750,740,572,561,533,601,611,808,670,781],"next_num":10,"trial_type":"ticket-choose","trial_index":90,"time_elapsed":1925927,"internal_node_id":"0.0-90.0"},{"result":155,"points":2,"place":1,"phase":1,"sequence":18,"prices":[200,207,155,158,156,168,167,135,178,177],"times":[2006,600,1130],"next_num":3,"trial_type":"ticket-choose","trial_index":91,"time_elapsed":1932064,"internal_node_id":"0.0-91.0"},{"result":153,"points":3,"place":0,"phase":1,"sequence":19,"prices":[176,186,178,217,163,181,187,166,153,209],"times":[2941,563,543,560,1907,509,551,562,822],"next_num":9,"trial_type":"ticket-choose","trial_index":92,"time_elapsed":1944837,"internal_node_id":"0.0-92.0"},{"result":202,"points":0,"place":8,"phase":1,"sequence":20,"prices":[196,171,170,184,187,165,211,169,201,202],"times":[789,515,450,635,529,1687,800,1077,1021,904],"next_num":10,"trial_type":"ticket-choose","trial_index":93,"time_elapsed":1957555,"internal_node_id":"0.0-93.0"},{"result":152,"points":3,"place":0,"phase":1,"sequence":21,"prices":[200,173,182,169,207,165,152,202,161,204],"times":[1039,661,561,738,602,513,956],"next_num":7,"trial_type":"ticket-choose","trial_index":94,"time_elapsed":1965845,"internal_node_id":"0.0-94.0"},{"result":164,"points":3,"place":0,"phase":1,"sequence":22,"prices":[199,191,188,174,167,193,189,164,176,170],"times":[933,586,658,621,590,611,789,1287],"next_num":8,"trial_type":"ticket-choose","trial_index":95,"time_elapsed":1975505,"internal_node_id":"0.0-95.0"},{"result":158,"points":2,"place":1,"phase":1,"sequence":23,"prices":[177,176,187,225,158,181,187,165,208,153],"times":[699,589,572,748,1068],"next_num":5,"trial_type":"ticket-choose","trial_index":96,"time_elapsed":1981984,"internal_node_id":"0.0-96.0"},{"result":152,"points":3,"place":0,"phase":1,"sequence":24,"prices":[200,180,203,152,175,170,160,154,176,191],"times":[1031,490,632,1088],"next_num":4,"trial_type":"ticket-choose","trial_index":97,"time_elapsed":1987846,"internal_node_id":"0.0-97.0"},{"result":186,"points":1,"place":4,"phase":1,"sequence":25,"prices":[220,173,201,197,169,205,198,183,178,186],"times":[1051,859,601,600,828,562,676,813,762,864],"next_num":10,"trial_type":"ticket-choose","trial_index":98,"time_elapsed":1999709,"internal_node_id":"0.0-98.0"},{"result":167,"points":2,"place":1,"phase":1,"sequence":26,"prices":[178,175,185,215,167,181,186,168,208,156],"times":[1010,621,620,649,1235],"next_num":5,"trial_type":"ticket-choose","trial_index":99,"time_elapsed":2006647,"internal_node_id":"0.0-99.0"},{"result":153,"points":3,"place":0,"phase":1,"sequence":27,"prices":[165,174,186,212,177,181,187,166,153,209],"times":[784,533,610,680,690,591,621,1565,1016],"next_num":9,"trial_type":"ticket-choose","trial_index":100,"time_elapsed":2017517,"internal_node_id":"0.0-100.0"},{"result":165,"points":3,"place":0,"phase":1,"sequence":28,"prices":[193,181,175,181,185,165,224,199,218,184],"times":[1293,512,1409,701,629,1092],"next_num":6,"trial_type":"ticket-choose","trial_index":101,"time_elapsed":2026169,"internal_node_id":"0.0-101.0"},{"result":154,"points":3,"place":0,"phase":1,"sequence":29,"prices":[165,175,187,209,177,180,188,167,154,208],"times":[1132,482,471,600,651,661,629,1245,772],"next_num":9,"trial_type":"ticket-choose","trial_index":102,"time_elapsed":2036578,"internal_node_id":"0.0-102.0"},{"result":160,"points":1,"place":2,"phase":1,"sequence":30,"prices":[180,156,149,160,168,186,172,198,176,195],"times":[847,453,493,1273],"next_num":4,"trial_type":"ticket-choose","trial_index":103,"time_elapsed":2042275,"internal_node_id":"0.0-103.0"},{"result":153,"points":3,"place":0,"phase":1,"sequence":31,"prices":[178,175,186,212,167,179,187,169,209,153],"times":[949,650,688,670,896,700,631,1114,730,891],"next_num":10,"trial_type":"ticket-choose","trial_index":104,"time_elapsed":2054342,"internal_node_id":"0.0-104.0"},{"result":153,"points":3,"place":0,"phase":1,"sequence":32,"prices":[163,174,186,212,176,181,187,166,153,209],"times":[2682,599,598,670,641,690,610,1567,800],"next_num":9,"trial_type":"ticket-choose","trial_index":105,"time_elapsed":2067645,"internal_node_id":"0.0-105.0"},{"result":153,"points":3,"place":0,"phase":1,"sequence":33,"prices":[176,175,186,210,163,179,187,166,153,208],"times":[1140,570,671,1065,571,550,658,1006,1028],"next_num":9,"trial_type":"ticket-choose","trial_index":106,"time_elapsed":2078554,"internal_node_id":"0.0-106.0"},{"result":151,"points":3,"place":0,"phase":1,"sequence":34,"prices":[199,193,169,165,202,182,151,164,176,171],"times":[758,523,521,375,621,639,982],"next_num":7,"trial_type":"ticket-choose","trial_index":107,"time_elapsed":2086277,"internal_node_id":"0.0-107.0"},{"result":143,"points":3,"place":0,"phase":1,"sequence":35,"prices":[167,153,172,185,195,143,184,211,177,227],"times":[609,459,733,701,552,1095],"next_num":6,"trial_type":"ticket-choose","trial_index":108,"time_elapsed":2093645,"internal_node_id":"0.0-108.0"},{"result":159,"points":1,"place":2,"phase":1,"sequence":36,"prices":[181,159,149,175,185,151,163,174,178,207],"times":[1107,1103],"next_num":2,"trial_type":"ticket-choose","trial_index":109,"time_elapsed":2097997,"internal_node_id":"0.0-109.0"},{"result":156,"points":3,"place":0,"phase":1,"sequence":37,"prices":[167,174,186,211,178,181,188,168,208,156],"times":[633,592,749,590,583,650,630,1074,930,655],"next_num":10,"trial_type":"ticket-choose","trial_index":110,"time_elapsed":2239202,"internal_node_id":"0.0-110.0"},{"result":157,"points":3,"place":0,"phase":1,"sequence":38,"prices":[191,170,182,165,175,182,203,157,195,200],"times":[1540,532,640,1379,511,572,622,1027],"next_num":8,"trial_type":"ticket-choose","trial_index":111,"time_elapsed":2249375,"internal_node_id":"0.0-111.0"},{"result":157,"points":3,"place":0,"phase":1,"sequence":39,"prices":[201,187,157,184,198,179,188,185,178,170],"times":[1245,640,1307],"next_num":3,"trial_type":"ticket-choose","trial_index":112,"time_elapsed":2255155,"internal_node_id":"0.0-112.0"},{"result":197,"points":0,"place":8,"phase":1,"sequence":40,"prices":[192,172,171,178,188,165,217,168,195,197],"times":[1222,624,610,601,551,1567,572,966,738,850],"next_num":10,"trial_type":"ticket-choose","trial_index":113,"time_elapsed":2267324,"internal_node_id":"0.0-113.0"},{"result":165,"points":2,"place":1,"phase":1,"sequence":41,"prices":[177,174,186,217,165,181,187,166,153,209],"times":[1024,572,631,581,1357],"next_num":5,"trial_type":"ticket-choose","trial_index":114,"time_elapsed":2274333,"internal_node_id":"0.0-114.0"},{"result":158,"points":2,"place":1,"phase":1,"sequence":42,"prices":[177,175,186,209,158,181,188,167,208,154],"times":[927,610,975,621,1123],"next_num":5,"trial_type":"ticket-choose","trial_index":115,"time_elapsed":2281401,"internal_node_id":"0.0-115.0"},{"result":165,"points":2,"place":1,"phase":1,"sequence":43,"prices":[183,179,188,165,168,173,205,159,187,191],"times":[880,650,621,1172],"next_num":4,"trial_type":"ticket-choose","trial_index":116,"time_elapsed":2287270,"internal_node_id":"0.0-116.0"},{"result":154,"points":3,"place":0,"phase":1,"sequence":44,"prices":[176,187,179,209,163,180,188,165,154,208],"times":[809,563,521,504,1050,533,609,1105,1212],"next_num":9,"trial_type":"ticket-choose","trial_index":117,"time_elapsed":2298133,"internal_node_id":"0.0-117.0"},{"result":148,"points":3,"place":0,"phase":1,"sequence":45,"prices":[173,163,185,181,166,148,160,185,176,184],"times":[1096,581,777,592,660,1223],"next_num":6,"trial_type":"ticket-choose","trial_index":118,"time_elapsed":2307185,"internal_node_id":"0.0-118.0"},{"result":158,"points":3,"place":0,"phase":1,"sequence":46,"prices":[214,184,226,192,215,158,199,175,176,208],"times":[1143,749,629,610,630,955],"next_num":6,"trial_type":"ticket-choose","trial_index":119,"time_elapsed":2315032,"internal_node_id":"0.0-119.0"},{"result":165,"points":1,"place":2,"phase":1,"sequence":47,"prices":[171,169,186,165,163,167,220,148,187,165],"times":[1232,2290,581,1550],"next_num":4,"trial_type":"ticket-choose","trial_index":120,"time_elapsed":2323754,"internal_node_id":"0.0-120.0"},{"result":171,"points":1,"place":3,"phase":1,"sequence":48,"prices":[189,167,180,197,165,168,172,213,178,171],"times":[1086,613,542,600,858,560,779,621,789,866],"next_num":10,"trial_type":"ticket-choose","trial_index":121,"time_elapsed":2334903,"internal_node_id":"0.0-121.0"},{"result":158,"points":2,"place":1,"phase":1,"sequence":49,"prices":[158,176,187,210,177,181,187,165,208,153],"times":[1313],"next_num":1,"trial_type":"ticket-choose","trial_index":122,"time_elapsed":2338258,"internal_node_id":"0.0-122.0"},{"responses":[{"value":1,"offby":0,"category":"$115 - $130","category_index":0},{"value":4,"offby":-1,"category":"$131 - $145","category_index":1},{"value":8,"offby":-4,"category":"$146 - $160","category_index":2},{"value":25,"offby":3,"category":"$161 - $175","category_index":3},{"value":35,"offby":1,"category":"$176 - $190","category_index":4},{"value":20,"offby":5,"category":"$191 - $205","category_index":5},{"value":7,"offby":-4,"category":"$206 - $220","category_index":6}],"phase":1,"number":1,"trial_type":"bar-choose","trial_index":123,"time_elapsed":2384985,"internal_node_id":"0.0-123.0"},{"special_comment":"no","trial_type":"special_sequence","trial_index":124,"time_elapsed":2390955,"internal_node_id":"0.0-124.0"},{"during":"Nothing","bonus":308,"trial_type":"final","trial_index":125,"time_elapsed":2421914,"internal_node_id":"0.0-125.0"}],"bonus":308}