{"start_time":"2017-05-24 12:35:11","end_time":"2017-05-24 12:53:41","points_phase0":113,"points_phase1":120,"phase_order":0,"age":29,"gender":"m","tries":1,"during":"Nothing","worker_id":"A1GPZ5REMDQZ0L","assignment_id":"36U2A8VAG2SSI3DXE1YI91PLH91YK6","data":[{"rt":4504,"url":"\/christiane\/tickets\/utils\/consent.html","trial_type":"html","trial_index":0,"time_elapsed":4611,"internal_node_id":"0.0-0.0"},{"age":29,"gender":"m","trial_type":"age","trial_index":1,"time_elapsed":9317,"internal_node_id":"0.0-1.0"},{"worker_id":"A1GPZ5REMDQZ0L","trial_type":"workerid","trial_index":2,"time_elapsed":26899,"internal_node_id":"0.0-2.0"},{"tries":1,"trial_type":"instructions_check","trial_index":3,"time_elapsed":36758,"internal_node_id":"0.0-3.0"},{"rt":5592,"url":"\/christiane\/tickets\/utils\/start.html","trial_type":"html","trial_index":4,"time_elapsed":43474,"internal_node_id":"0.0-4.0"},{"trial_type":"number-animation","trial_index":5,"time_elapsed":53925,"internal_node_id":"0.0-5.0"},{"phase":0,"sequence":0,"avg":181,"response":180,"trial_type":"training_avg","trial_index":6,"time_elapsed":61946,"internal_node_id":"0.0-6.0"},{"trial_type":"number-animation","trial_index":7,"time_elapsed":71217,"internal_node_id":"0.0-7.0"},{"phase":0,"sequence":1,"avg":188,"response":190,"trial_type":"training_avg","trial_index":8,"time_elapsed":79819,"internal_node_id":"0.0-8.0"},{"trial_type":"number-animation","trial_index":9,"time_elapsed":87137,"internal_node_id":"0.0-9.0"},{"phase":0,"sequence":2,"avg":188,"response":183,"trial_type":"training_avg","trial_index":10,"time_elapsed":95127,"internal_node_id":"0.0-10.0"},{"trial_type":"number-animation","trial_index":11,"time_elapsed":102175,"internal_node_id":"0.0-11.0"},{"phase":0,"sequence":3,"avg":177,"response":171,"trial_type":"training_avg","trial_index":12,"time_elapsed":107863,"internal_node_id":"0.0-12.0"},{"trial_type":"number-animation","trial_index":13,"time_elapsed":115453,"internal_node_id":"0.0-13.0"},{"phase":0,"sequence":4,"avg":182,"response":178,"trial_type":"training_avg","trial_index":14,"time_elapsed":121317,"internal_node_id":"0.0-14.0"},{"responses":[{"value":2,"offby":1,"category":"$115 - $130","category_index":0},{"value":5,"offby":0,"category":"$131 - $145","category_index":1},{"value":7,"offby":-5,"category":"$146 - $160","category_index":2},{"value":22,"offby":0,"category":"$161 - $175","category_index":3},{"value":30,"offby":-4,"category":"$176 - $190","category_index":4},{"value":22,"offby":7,"category":"$191 - $205","category_index":5},{"value":12,"offby":1,"category":"$206 - $220","category_index":6}],"phase":0,"number":0,"trial_type":"bar-choose","trial_index":15,"time_elapsed":192751,"internal_node_id":"0.0-15.0"},{"rt":12462,"url":"\/christiane\/tickets\/utils\/testing.html","trial_type":"html","trial_index":16,"time_elapsed":206327,"internal_node_id":"0.0-16.0"},{"phase":0,"order":[24,31,40,48,21,11,9,6,44,36,30,15,34,43,28,14,19,13,38,0,41,49,20,29,22,46,39,32,3,8,7,12,37,25,27,26,47,4,42,10,33,45,2,18,5,23,35,1,16,17],"trial_type":"store_order","trial_index":17,"time_elapsed":207329,"internal_node_id":"0.0-17.0"},{"result":165,"points":2,"place":1,"phase":0,"sequence":-1,"prices":[184,180,224,165,181,199,185,193,218,146],"times":[3395,771,624,1297],"next_num":4,"trial_type":"ticket-choose","trial_index":18,"time_elapsed":216961,"internal_node_id":"0.0-18.0"},{"rt":2724,"url":"\/christiane\/tickets\/utils\/testing_after.html","trial_type":"html","trial_index":19,"time_elapsed":220833,"internal_node_id":"0.0-19.0"},{"result":165,"points":3,"place":0,"phase":0,"sequence":0,"prices":[193,165,175,181,185,224,180,199,218,184],"times":[4782,1444],"next_num":2,"trial_type":"ticket-choose","trial_index":20,"time_elapsed":230507,"internal_node_id":"0.0-20.0"},{"result":170,"points":1,"place":3,"phase":0,"sequence":1,"prices":[171,203,175,170,167,220,192,186,165,165],"times":[2387,546,3284,786],"next_num":4,"trial_type":"ticket-choose","trial_index":21,"time_elapsed":240565,"internal_node_id":"0.0-21.0"},{"result":150,"points":3,"place":0,"phase":0,"sequence":2,"prices":[189,150,175,160,188,207,158,194,178,199],"times":[1110,877],"next_num":2,"trial_type":"ticket-choose","trial_index":22,"time_elapsed":244885,"internal_node_id":"0.0-22.0"},{"result":169,"points":2,"place":1,"phase":0,"sequence":3,"prices":[181,215,169,147,182,193,177,184,176,179],"times":[791,602,2556],"next_num":3,"trial_type":"ticket-choose","trial_index":23,"time_elapsed":251324,"internal_node_id":"0.0-23.0"},{"result":158,"points":2,"place":1,"phase":0,"sequence":4,"prices":[175,186,177,221,180,187,158,166,209,153],"times":[1153,539,734,546,633,610,918],"next_num":7,"trial_type":"ticket-choose","trial_index":24,"time_elapsed":260188,"internal_node_id":"0.0-24.0"},{"result":165,"points":2,"place":1,"phase":0,"sequence":5,"prices":[174,186,177,217,181,187,165,166,153,209],"times":[1298,500,524,527,577,593,873],"next_num":7,"trial_type":"ticket-choose","trial_index":25,"time_elapsed":268356,"internal_node_id":"0.0-25.0"},{"result":165,"points":2,"place":1,"phase":0,"sequence":6,"prices":[175,186,177,210,179,187,165,166,153,208],"times":[992,561,456,362,516,655,1027],"next_num":7,"trial_type":"ticket-choose","trial_index":26,"time_elapsed":276232,"internal_node_id":"0.0-26.0"},{"result":166,"points":1,"place":2,"phase":0,"sequence":7,"prices":[175,186,165,214,179,187,177,166,153,208],"times":[723,569,448,363,355,533,624,1821],"next_num":8,"trial_type":"ticket-choose","trial_index":27,"time_elapsed":285444,"internal_node_id":"0.0-27.0"},{"result":159,"points":1,"place":2,"phase":0,"sequence":8,"prices":[180,159,149,175,185,141,163,174,178,207],"times":[545,934],"next_num":2,"trial_type":"ticket-choose","trial_index":28,"time_elapsed":289130,"internal_node_id":"0.0-28.0"},{"result":154,"points":3,"place":0,"phase":0,"sequence":9,"prices":[188,200,165,172,198,174,177,154,177,180],"times":[669,539,826,531,587,920,918,926],"next_num":8,"trial_type":"ticket-choose","trial_index":29,"time_elapsed":298804,"internal_node_id":"0.0-29.0"},{"result":169,"points":2,"place":1,"phase":0,"sequence":10,"prices":[191,172,169,175,182,203,170,195,165,176],"times":[848,524,1188],"next_num":3,"trial_type":"ticket-choose","trial_index":30,"time_elapsed":303766,"internal_node_id":"0.0-30.0"},{"result":163,"points":2,"place":1,"phase":0,"sequence":11,"prices":[175,186,176,210,179,187,163,166,153,208],"times":[1770,540,865,555,601,564,918],"next_num":7,"trial_type":"ticket-choose","trial_index":31,"time_elapsed":312692,"internal_node_id":"0.0-31.0"},{"result":161,"points":1,"place":2,"phase":0,"sequence":12,"prices":[181,155,148,161,168,187,172,199,176,194],"times":[481,331,487,1358],"next_num":4,"trial_type":"ticket-choose","trial_index":32,"time_elapsed":317862,"internal_node_id":"0.0-32.0"},{"result":157,"points":3,"place":0,"phase":0,"sequence":13,"prices":[201,187,157,184,198,179,188,185,178,170],"times":[850,635,940],"next_num":3,"trial_type":"ticket-choose","trial_index":33,"time_elapsed":322669,"internal_node_id":"0.0-33.0"},{"result":165,"points":3,"place":0,"phase":0,"sequence":14,"prices":[196,165,170,184,187,211,171,201,202,185],"times":[480,1021],"next_num":2,"trial_type":"ticket-choose","trial_index":34,"time_elapsed":326330,"internal_node_id":"0.0-34.0"},{"result":163,"points":2,"place":1,"phase":0,"sequence":15,"prices":[174,186,163,212,181,187,176,166,153,209],"times":[754,594,1289],"next_num":3,"trial_type":"ticket-choose","trial_index":35,"time_elapsed":331322,"internal_node_id":"0.0-35.0"},{"result":158,"points":2,"place":1,"phase":0,"sequence":16,"prices":[175,186,158,209,181,188,177,167,208,154],"times":[434,533,889],"next_num":3,"trial_type":"ticket-choose","trial_index":36,"time_elapsed":335372,"internal_node_id":"0.0-36.0"},{"result":165,"points":1,"place":2,"phase":0,"sequence":17,"prices":[175,187,163,209,180,188,176,165,154,208],"times":[363,525,1001,527,570,595,609,1798],"next_num":8,"trial_type":"ticket-choose","trial_index":37,"time_elapsed":344711,"internal_node_id":"0.0-37.0"},{"result":163,"points":3,"place":0,"phase":0,"sequence":18,"prices":[168,199,196,198,185,195,227,163,177,166],"times":[610,525,681,580,594,624,647,1026],"next_num":8,"trial_type":"ticket-choose","trial_index":38,"time_elapsed":353355,"internal_node_id":"0.0-38.0"},{"result":167,"points":2,"place":1,"phase":0,"sequence":19,"prices":[174,186,167,211,181,188,178,168,208,156],"times":[791,531,1915],"next_num":3,"trial_type":"ticket-choose","trial_index":39,"time_elapsed":358903,"internal_node_id":"0.0-39.0"},{"result":155,"points":2,"place":1,"phase":0,"sequence":20,"prices":[201,207,155,158,156,165,167,135,178,177],"times":[421,539,912],"next_num":3,"trial_type":"ticket-choose","trial_index":40,"time_elapsed":363013,"internal_node_id":"0.0-40.0"},{"result":166,"points":1,"place":3,"phase":0,"sequence":21,"prices":[183,163,185,180,166,148,160,186,176,184],"times":[596,447,532,540,997],"next_num":5,"trial_type":"ticket-choose","trial_index":41,"time_elapsed":368701,"internal_node_id":"0.0-41.0"},{"result":158,"points":2,"place":1,"phase":0,"sequence":22,"prices":[176,187,158,210,181,187,177,165,208,153],"times":[619,555,902],"next_num":3,"trial_type":"ticket-choose","trial_index":42,"time_elapsed":372982,"internal_node_id":"0.0-42.0"},{"result":165,"points":3,"place":0,"phase":0,"sequence":23,"prices":[185,170,182,201,173,199,171,188,165,168],"times":[425,502,517,647,563,618,592,634,902],"next_num":9,"trial_type":"ticket-choose","trial_index":43,"time_elapsed":381985,"internal_node_id":"0.0-43.0"},{"result":158,"points":2,"place":1,"phase":0,"sequence":24,"prices":[175,186,177,209,181,188,158,167,208,154],"times":[541,478,616,710,532,522,974],"next_num":7,"trial_type":"ticket-choose","trial_index":44,"time_elapsed":389459,"internal_node_id":"0.0-44.0"},{"result":158,"points":3,"place":0,"phase":0,"sequence":25,"prices":[210,184,226,193,215,158,199,175,176,208],"times":[620,477,408,415,561,981],"next_num":6,"trial_type":"ticket-choose","trial_index":45,"time_elapsed":395710,"internal_node_id":"0.0-45.0"},{"result":167,"points":2,"place":1,"phase":0,"sequence":26,"prices":[189,167,180,197,165,168,172,213,178,171],"times":[634,880],"next_num":2,"trial_type":"ticket-choose","trial_index":46,"time_elapsed":399203,"internal_node_id":"0.0-46.0"},{"result":165,"points":3,"place":0,"phase":0,"sequence":27,"prices":[193,169,171,187,190,224,174,194,165,188],"times":[590,1064,486,578,523,556,840,718,926],"next_num":9,"trial_type":"ticket-choose","trial_index":47,"time_elapsed":409211,"internal_node_id":"0.0-47.0"},{"result":167,"points":2,"place":1,"phase":0,"sequence":28,"prices":[174,186,178,217,181,188,167,168,208,156],"times":[639,500,564,602,600,572,1797],"next_num":7,"trial_type":"ticket-choose","trial_index":48,"time_elapsed":417618,"internal_node_id":"0.0-48.0"},{"result":165,"points":2,"place":1,"phase":0,"sequence":29,"prices":[174,186,165,212,181,187,177,167,153,209],"times":[376,479,872],"next_num":3,"trial_type":"ticket-choose","trial_index":49,"time_elapsed":421746,"internal_node_id":"0.0-49.0"},{"result":165,"points":2,"place":1,"phase":0,"sequence":30,"prices":[175,187,165,209,180,188,177,166,154,208],"times":[537,479,824],"next_num":3,"trial_type":"ticket-choose","trial_index":50,"time_elapsed":425656,"internal_node_id":"0.0-50.0"},{"result":153,"points":3,"place":0,"phase":0,"sequence":31,"prices":[175,186,163,214,179,187,176,166,153,208],"times":[379,455,486,439,502,531,656,631,972],"next_num":9,"trial_type":"ticket-choose","trial_index":51,"time_elapsed":434204,"internal_node_id":"0.0-51.0"},{"result":152,"points":3,"place":0,"phase":0,"sequence":32,"prices":[198,193,169,163,202,182,152,164,177,171],"times":[445,648,501,498,586,533,1352],"next_num":7,"trial_type":"ticket-choose","trial_index":52,"time_elapsed":441800,"internal_node_id":"0.0-52.0"},{"result":165,"points":2,"place":1,"phase":0,"sequence":33,"prices":[201,165,162,166,185,214,165,202,204,179],"times":[405,618,455,817,555,540,965],"next_num":7,"trial_type":"ticket-choose","trial_index":53,"time_elapsed":449227,"internal_node_id":"0.0-53.0"},{"result":186,"points":1,"place":4,"phase":0,"sequence":34,"prices":[192,165,171,178,188,217,172,195,197,186],"times":[409,789,392,556,532,516,541,803,586,1095],"next_num":10,"trial_type":"ticket-choose","trial_index":54,"time_elapsed":460680,"internal_node_id":"0.0-54.0"},{"result":161,"points":3,"place":0,"phase":0,"sequence":35,"prices":[200,165,165,173,182,207,161,202,204,180],"times":[644,795,607,681,576,525,934],"next_num":7,"trial_type":"ticket-choose","trial_index":55,"time_elapsed":468392,"internal_node_id":"0.0-55.0"},{"result":154,"points":2,"place":1,"phase":0,"sequence":36,"prices":[200,181,203,152,175,171,160,154,176,191],"times":[702,549,501,478,431,479,498,964],"next_num":8,"trial_type":"ticket-choose","trial_index":56,"time_elapsed":476206,"internal_node_id":"0.0-56.0"},{"result":156,"points":3,"place":0,"phase":0,"sequence":37,"prices":[175,185,178,215,181,186,167,168,208,156],"times":[402,447,417,415,391,511,492,493,625,687],"next_num":10,"trial_type":"ticket-choose","trial_index":57,"time_elapsed":484690,"internal_node_id":"0.0-57.0"},{"result":143,"points":3,"place":0,"phase":0,"sequence":38,"prices":[222,173,202,197,143,205,198,183,178,186],"times":[427,516,540,508,1004],"next_num":5,"trial_type":"ticket-choose","trial_index":58,"time_elapsed":490386,"internal_node_id":"0.0-58.0"},{"result":165,"points":2,"place":1,"phase":0,"sequence":39,"prices":[175,187,177,209,180,188,165,165,154,208],"times":[581,532,431,524,548,515,1107],"next_num":7,"trial_type":"ticket-choose","trial_index":59,"time_elapsed":497627,"internal_node_id":"0.0-59.0"},{"result":165,"points":3,"place":0,"phase":0,"sequence":40,"prices":[183,182,192,168,173,205,167,187,165,170],"times":[415,508,469,408,478,547,794,522,3015],"next_num":9,"trial_type":"ticket-choose","trial_index":60,"time_elapsed":508909,"internal_node_id":"0.0-60.0"},{"result":164,"points":3,"place":0,"phase":0,"sequence":41,"prices":[212,192,188,184,167,193,189,164,176,170],"times":[768,501,499,502,910,494,532,942],"next_num":8,"trial_type":"ticket-choose","trial_index":61,"time_elapsed":517311,"internal_node_id":"0.0-61.0"},{"result":153,"points":3,"place":0,"phase":0,"sequence":42,"prices":[175,186,167,225,179,187,178,169,209,153],"times":[437,499,437,408,541,531,549,766,592,699],"next_num":10,"trial_type":"ticket-choose","trial_index":62,"time_elapsed":526408,"internal_node_id":"0.0-62.0"},{"result":158,"points":2,"place":1,"phase":0,"sequence":43,"prices":[175,186,158,211,180,187,177,166,209,153],"times":[418,594,927],"next_num":3,"trial_type":"ticket-choose","trial_index":63,"time_elapsed":530449,"internal_node_id":"0.0-63.0"},{"result":153,"points":3,"place":0,"phase":0,"sequence":44,"prices":[175,186,178,212,179,187,167,169,209,153],"times":[763,516,491,672,571,531,1081,532,610,625],"next_num":10,"trial_type":"ticket-choose","trial_index":64,"time_elapsed":540665,"internal_node_id":"0.0-64.0"},{"result":153,"points":3,"place":0,"phase":0,"sequence":45,"prices":[176,187,177,225,181,187,158,165,208,153],"times":[663,536,546,487,485,548,524,611,579,962],"next_num":10,"trial_type":"ticket-choose","trial_index":65,"time_elapsed":550371,"internal_node_id":"0.0-65.0"},{"result":144,"points":3,"place":0,"phase":0,"sequence":46,"prices":[168,154,172,185,195,144,184,211,177,227],"times":[438,409,453,525,557,996],"next_num":6,"trial_type":"ticket-choose","trial_index":66,"time_elapsed":556625,"internal_node_id":"0.0-66.0"},{"result":156,"points":3,"place":0,"phase":0,"sequence":47,"prices":[175,185,167,224,181,186,178,168,208,156],"times":[457,478,532,508,494,541,562,632,518,724],"next_num":10,"trial_type":"ticket-choose","trial_index":67,"time_elapsed":565759,"internal_node_id":"0.0-67.0"},{"result":208,"points":0,"place":8,"phase":0,"sequence":48,"prices":[175,187,176,209,180,188,163,165,154,208],"times":[618,508,470,547,563,556,777,680,516,1004],"next_num":10,"trial_type":"ticket-choose","trial_index":68,"time_elapsed":576163,"internal_node_id":"0.0-68.0"},{"result":153,"points":3,"place":0,"phase":0,"sequence":49,"prices":[174,186,176,217,181,187,163,166,153,209],"times":[702,515,516,525,511,579,738,572,972],"next_num":9,"trial_type":"ticket-choose","trial_index":69,"time_elapsed":585437,"internal_node_id":"0.0-69.0"},{"responses":[{"value":0,"offby":-1,"category":"$115 - $130","category_index":0},{"value":6,"offby":1,"category":"$131 - $145","category_index":1},{"value":10,"offby":-2,"category":"$146 - $160","category_index":2},{"value":26,"offby":4,"category":"$161 - $175","category_index":3},{"value":30,"offby":-4,"category":"$176 - $190","category_index":4},{"value":18,"offby":3,"category":"$191 - $205","category_index":5},{"value":10,"offby":-1,"category":"$206 - $220","category_index":6}],"phase":1,"number":1,"trial_type":"bar-choose","trial_index":70,"time_elapsed":627709,"internal_node_id":"0.0-70.0"},{"rt":9756,"url":"\/christiane\/tickets\/utils\/testing2.html","trial_type":"point_update","trial_index":71,"time_elapsed":638674,"internal_node_id":"0.0-71.0"},{"phase":1,"order":[21,16,1,44,10,17,7,24,49,33,8,35,31,0,4,36,12,9,43,30,19,5,3,13,6,15,46,42,23,11,26,40,38,39,37,48,22,32,2,18,47,28,27,41,14,34,25,45,29,20],"trial_type":"store_order","trial_index":72,"time_elapsed":639676,"internal_node_id":"0.0-72.0"},{"result":158,"points":2,"place":1,"phase":1,"sequence":0,"prices":[177,175,186,221,158,180,187,166,209,153],"times":[1738,608,610,530,865],"next_num":5,"trial_type":"ticket-choose","trial_index":73,"time_elapsed":649176,"internal_node_id":"0.0-73.0"},{"result":163,"points":2,"place":1,"phase":1,"sequence":1,"prices":[176,187,179,209,163,180,188,165,154,208],"times":[494,518,509,541,849],"next_num":5,"trial_type":"ticket-choose","trial_index":74,"time_elapsed":654809,"internal_node_id":"0.0-74.0"},{"result":156,"points":3,"place":0,"phase":1,"sequence":2,"prices":[167,175,185,224,178,181,186,168,208,156],"times":[571,517,522,602,531,602,607,726,616,634],"next_num":10,"trial_type":"ticket-choose","trial_index":75,"time_elapsed":664593,"internal_node_id":"0.0-75.0"},{"result":159,"points":1,"place":2,"phase":1,"sequence":3,"prices":[181,159,149,175,185,151,163,174,178,207],"times":[572,724],"next_num":2,"trial_type":"ticket-choose","trial_index":76,"time_elapsed":667830,"internal_node_id":"0.0-76.0"},{"result":154,"points":3,"place":0,"phase":1,"sequence":4,"prices":[177,175,187,209,165,180,188,165,154,208],"times":[439,570,548,541,1002,509,554,734,832],"next_num":9,"trial_type":"ticket-choose","trial_index":77,"time_elapsed":677018,"internal_node_id":"0.0-77.0"},{"result":153,"points":3,"place":0,"phase":1,"sequence":5,"prices":[176,186,178,217,163,181,187,166,153,209],"times":[572,503,516,584,880,599,510,826,849],"next_num":9,"trial_type":"ticket-choose","trial_index":78,"time_elapsed":686269,"internal_node_id":"0.0-78.0"},{"result":154,"points":3,"place":0,"phase":1,"sequence":6,"prices":[165,175,187,209,177,180,188,167,154,208],"times":[497,508,540,583,536,548,578,716,765],"next_num":9,"trial_type":"ticket-choose","trial_index":79,"time_elapsed":694870,"internal_node_id":"0.0-79.0"},{"result":184,"points":1,"place":4,"phase":1,"sequence":7,"prices":[193,181,175,181,185,165,224,199,218,184],"times":[481,641,511,533,584,607,532,548,603,880],"next_num":10,"trial_type":"ticket-choose","trial_index":80,"time_elapsed":704614,"internal_node_id":"0.0-80.0"},{"result":163,"points":1,"place":2,"phase":1,"sequence":8,"prices":[173,163,185,181,166,148,160,185,176,184],"times":[464,813],"next_num":2,"trial_type":"ticket-choose","trial_index":81,"time_elapsed":708000,"internal_node_id":"0.0-81.0"},{"result":159,"points":3,"place":0,"phase":1,"sequence":9,"prices":[183,179,188,165,168,173,205,159,187,191],"times":[486,516,295,749,384,502,670,850],"next_num":8,"trial_type":"ticket-choose","trial_index":82,"time_elapsed":715681,"internal_node_id":"0.0-82.0"},{"result":153,"points":3,"place":0,"phase":1,"sequence":10,"prices":[165,174,186,212,177,181,187,166,153,209],"times":[476,284,354,515,447,494,554,836,748],"next_num":9,"trial_type":"ticket-choose","trial_index":83,"time_elapsed":723701,"internal_node_id":"0.0-83.0"},{"result":153,"points":2,"place":1,"phase":1,"sequence":11,"prices":[167,153,172,185,195,143,184,211,177,227],"times":[488,788],"next_num":2,"trial_type":"ticket-choose","trial_index":84,"time_elapsed":727055,"internal_node_id":"0.0-84.0"},{"result":148,"points":3,"place":0,"phase":1,"sequence":12,"prices":[171,169,186,165,163,167,220,148,187,165],"times":[459,585,461,587,547,525,564,886],"next_num":8,"trial_type":"ticket-choose","trial_index":85,"time_elapsed":734945,"internal_node_id":"0.0-85.0"},{"result":156,"points":3,"place":0,"phase":1,"sequence":13,"prices":[167,174,186,211,178,181,188,168,208,156],"times":[699,485,386,567,493,640,570,640,562,664],"next_num":10,"trial_type":"ticket-choose","trial_index":86,"time_elapsed":744251,"internal_node_id":"0.0-86.0"},{"result":156,"points":3,"place":0,"phase":1,"sequence":14,"prices":[178,175,185,215,167,181,186,168,208,156],"times":[605,524,523,448,501,447,471,586,554,557],"next_num":10,"trial_type":"ticket-choose","trial_index":87,"time_elapsed":752983,"internal_node_id":"0.0-87.0"},{"result":154,"points":3,"place":0,"phase":1,"sequence":15,"prices":[187,201,165,172,196,174,178,154,172,180],"times":[676,493,516,548,531,546,571,934],"next_num":8,"trial_type":"ticket-choose","trial_index":88,"time_elapsed":761105,"internal_node_id":"0.0-88.0"},{"result":153,"points":3,"place":0,"phase":1,"sequence":16,"prices":[163,175,186,214,176,179,187,166,153,208],"times":[966,470,448,485,533,524,548,764,873],"next_num":9,"trial_type":"ticket-choose","trial_index":89,"time_elapsed":770077,"internal_node_id":"0.0-89.0"},{"result":153,"points":3,"place":0,"phase":1,"sequence":17,"prices":[177,175,186,210,165,179,187,166,153,208],"times":[462,625,564,562,494,539,541,617,757],"next_num":9,"trial_type":"ticket-choose","trial_index":90,"time_elapsed":778540,"internal_node_id":"0.0-90.0"},{"result":157,"points":3,"place":0,"phase":1,"sequence":18,"prices":[201,187,157,184,198,179,188,185,178,170],"times":[466,479,1043],"next_num":3,"trial_type":"ticket-choose","trial_index":91,"time_elapsed":782660,"internal_node_id":"0.0-91.0"},{"result":157,"points":3,"place":0,"phase":1,"sequence":19,"prices":[191,170,182,165,175,182,203,157,195,200],"times":[585,500,510,765,548,579,579,934],"next_num":8,"trial_type":"ticket-choose","trial_index":92,"time_elapsed":790752,"internal_node_id":"0.0-92.0"},{"result":154,"points":3,"place":0,"phase":1,"sequence":20,"prices":[158,175,186,209,177,181,188,167,208,154],"times":[420,492,465,492,503,524,516,850,524,702],"next_num":10,"trial_type":"ticket-choose","trial_index":93,"time_elapsed":800065,"internal_node_id":"0.0-93.0"},{"result":153,"points":3,"place":0,"phase":1,"sequence":21,"prices":[178,175,186,212,167,179,187,169,209,153],"times":[481,440,425,384,495,576,789,1953,587,569],"next_num":10,"trial_type":"ticket-choose","trial_index":94,"time_elapsed":810482,"internal_node_id":"0.0-94.0"},{"result":156,"points":3,"place":0,"phase":1,"sequence":22,"prices":[178,174,186,217,167,181,188,168,208,156],"times":[2991,487,478,452,464,477,455,500,539,564],"next_num":10,"trial_type":"ticket-choose","trial_index":95,"time_elapsed":821582,"internal_node_id":"0.0-95.0"},{"result":154,"points":3,"place":0,"phase":1,"sequence":23,"prices":[163,175,187,209,176,180,188,165,154,208],"times":[451,346,447,362,426,461,31587,739,772],"next_num":9,"trial_type":"ticket-choose","trial_index":96,"time_elapsed":860709,"internal_node_id":"0.0-96.0"},{"result":153,"points":3,"place":0,"phase":1,"sequence":24,"prices":[165,175,186,214,177,179,187,166,153,208],"times":[531,527,517,430,465,499,534,502,749],"next_num":9,"trial_type":"ticket-choose","trial_index":97,"time_elapsed":868793,"internal_node_id":"0.0-97.0"},{"result":153,"points":3,"place":0,"phase":1,"sequence":25,"prices":[176,175,186,210,163,179,187,166,153,208],"times":[3507,524,586,516,486,625,647,664,780],"next_num":9,"trial_type":"ticket-choose","trial_index":98,"time_elapsed":880555,"internal_node_id":"0.0-98.0"},{"result":208,"points":0,"place":6,"phase":1,"sequence":26,"prices":[214,184,226,192,215,158,199,175,176,208],"times":[504,400,378,391,356,455,647,509,563,794],"next_num":10,"trial_type":"ticket-choose","trial_index":99,"time_elapsed":889481,"internal_node_id":"0.0-99.0"},{"result":186,"points":1,"place":4,"phase":1,"sequence":27,"prices":[220,173,201,197,169,205,198,183,178,186],"times":[404,532,471,525,493,530,580,615,579,818],"next_num":10,"trial_type":"ticket-choose","trial_index":100,"time_elapsed":898731,"internal_node_id":"0.0-100.0"},{"result":158,"points":2,"place":1,"phase":1,"sequence":28,"prices":[177,176,187,225,158,181,187,165,208,153],"times":[643,516,541,554,859],"next_num":5,"trial_type":"ticket-choose","trial_index":101,"time_elapsed":904375,"internal_node_id":"0.0-101.0"},{"result":153,"points":3,"place":0,"phase":1,"sequence":29,"prices":[177,174,186,217,165,181,187,166,153,209],"times":[487,494,517,639,579,594,600,673,795],"next_num":9,"trial_type":"ticket-choose","trial_index":102,"time_elapsed":913057,"internal_node_id":"0.0-102.0"},{"result":152,"points":3,"place":0,"phase":1,"sequence":30,"prices":[200,173,182,169,207,165,152,202,161,204],"times":[471,470,516,487,601,757,910],"next_num":7,"trial_type":"ticket-choose","trial_index":103,"time_elapsed":920338,"internal_node_id":"0.0-103.0"},{"result":150,"points":3,"place":0,"phase":1,"sequence":31,"prices":[190,150,175,161,188,207,157,194,178,199],"times":[463,895],"next_num":2,"trial_type":"ticket-choose","trial_index":104,"time_elapsed":923705,"internal_node_id":"0.0-104.0"},{"result":163,"points":3,"place":0,"phase":1,"sequence":32,"prices":[163,199,196,199,185,195,227,163,177,166],"times":[663,479,446,448,421,448,554,997],"next_num":8,"trial_type":"ticket-choose","trial_index":105,"time_elapsed":931341,"internal_node_id":"0.0-105.0"},{"result":171,"points":1,"place":3,"phase":1,"sequence":33,"prices":[189,167,180,197,165,168,172,213,178,171],"times":[446,470,485,554,503,755,618,594,579,741],"next_num":10,"trial_type":"ticket-choose","trial_index":106,"time_elapsed":940847,"internal_node_id":"0.0-106.0"},{"result":151,"points":3,"place":0,"phase":1,"sequence":34,"prices":[199,193,169,165,202,182,151,164,176,171],"times":[418,563,889,454,587,578,865],"next_num":7,"trial_type":"ticket-choose","trial_index":107,"time_elapsed":948335,"internal_node_id":"0.0-107.0"},{"result":147,"points":3,"place":0,"phase":1,"sequence":35,"prices":[181,214,169,147,182,193,178,184,176,179],"times":[872,662,465,1072],"next_num":4,"trial_type":"ticket-choose","trial_index":108,"time_elapsed":953705,"internal_node_id":"0.0-108.0"},{"result":154,"points":3,"place":0,"phase":1,"sequence":36,"prices":[177,175,186,209,158,181,188,167,208,154],"times":[647,500,394,429,502,540,461,548,599,1066],"next_num":10,"trial_type":"ticket-choose","trial_index":109,"time_elapsed":963232,"internal_node_id":"0.0-109.0"},{"result":161,"points":3,"place":0,"phase":1,"sequence":37,"prices":[193,174,224,165,187,190,224,161,194,195],"times":[482,548,430,496,548,537,586,1368],"next_num":8,"trial_type":"ticket-choose","trial_index":110,"time_elapsed":971541,"internal_node_id":"0.0-110.0"},{"result":153,"points":3,"place":0,"phase":1,"sequence":38,"prices":[167,175,186,225,178,179,187,169,209,153],"times":[486,462,445,609,482,509,545,786,571,610],"next_num":10,"trial_type":"ticket-choose","trial_index":111,"time_elapsed":980696,"internal_node_id":"0.0-111.0"},{"result":158,"points":2,"place":1,"phase":1,"sequence":39,"prices":[158,175,186,211,177,180,187,166,209,153],"times":[1257],"next_num":1,"trial_type":"ticket-choose","trial_index":112,"time_elapsed":983756,"internal_node_id":"0.0-112.0"},{"result":154,"points":2,"place":1,"phase":1,"sequence":40,"prices":[200,180,203,152,175,170,160,154,176,191],"times":[583,470,532,495,391,449,501,763],"next_num":8,"trial_type":"ticket-choose","trial_index":113,"time_elapsed":991044,"internal_node_id":"0.0-113.0"},{"result":202,"points":0,"place":8,"phase":1,"sequence":41,"prices":[196,171,170,184,187,165,211,169,201,202],"times":[574,533,516,511,493,749,530,540,580,986],"next_num":10,"trial_type":"ticket-choose","trial_index":114,"time_elapsed":1000720,"internal_node_id":"0.0-114.0"},{"result":197,"points":0,"place":8,"phase":1,"sequence":42,"prices":[192,172,171,178,188,165,217,168,195,197],"times":[916,606,540,471,564,531,546,617,554,751],"next_num":10,"trial_type":"ticket-choose","trial_index":115,"time_elapsed":1010418,"internal_node_id":"0.0-115.0"},{"result":155,"points":2,"place":1,"phase":1,"sequence":43,"prices":[200,207,155,158,156,168,167,135,178,177],"times":[479,609,996],"next_num":3,"trial_type":"ticket-choose","trial_index":116,"time_elapsed":1014716,"internal_node_id":"0.0-116.0"},{"result":153,"points":3,"place":0,"phase":1,"sequence":44,"prices":[163,174,186,212,176,181,187,166,153,209],"times":[494,548,592,525,545,565,608,1113,740],"next_num":9,"trial_type":"ticket-choose","trial_index":117,"time_elapsed":1023841,"internal_node_id":"0.0-117.0"},{"result":156,"points":2,"place":1,"phase":1,"sequence":45,"prices":[180,156,149,160,168,186,172,198,176,195],"times":[807,770],"next_num":2,"trial_type":"ticket-choose","trial_index":118,"time_elapsed":1027279,"internal_node_id":"0.0-118.0"},{"result":166,"points":1,"place":3,"phase":1,"sequence":46,"prices":[201,204,179,166,185,165,214,156,202,165],"times":[700,518,554,1074],"next_num":4,"trial_type":"ticket-choose","trial_index":119,"time_elapsed":1032511,"internal_node_id":"0.0-119.0"},{"result":164,"points":3,"place":0,"phase":1,"sequence":47,"prices":[199,191,188,174,167,193,189,164,176,170],"times":[447,508,509,510,733,632,587,964],"next_num":8,"trial_type":"ticket-choose","trial_index":120,"time_elapsed":1040557,"internal_node_id":"0.0-120.0"},{"result":150,"points":3,"place":0,"phase":1,"sequence":48,"prices":[185,179,191,165,161,173,199,150,188,168],"times":[638,471,532,594,647,655,602,826],"next_num":8,"trial_type":"ticket-choose","trial_index":121,"time_elapsed":1048897,"internal_node_id":"0.0-121.0"},{"result":158,"points":2,"place":1,"phase":1,"sequence":49,"prices":[158,176,187,210,177,181,187,165,208,153],"times":[960],"next_num":1,"trial_type":"ticket-choose","trial_index":122,"time_elapsed":1051693,"internal_node_id":"0.0-122.0"},{"responses":[{"value":0,"offby":-1,"category":"$115 - $130","category_index":0},{"value":4,"offby":-1,"category":"$131 - $145","category_index":1},{"value":20,"offby":8,"category":"$146 - $160","category_index":2},{"value":23,"offby":1,"category":"$161 - $175","category_index":3},{"value":27,"offby":-7,"category":"$176 - $190","category_index":4},{"value":18,"offby":3,"category":"$191 - $205","category_index":5},{"value":7,"offby":-4,"category":"$206 - $220","category_index":6}],"phase":1,"number":1,"trial_type":"bar-choose","trial_index":123,"time_elapsed":1081511,"internal_node_id":"0.0-123.0"},{"special_comment":"No","trial_type":"special_sequence","trial_index":124,"time_elapsed":1086532,"internal_node_id":"0.0-124.0"},{"during":"Nothing","bonus":312,"trial_type":"final","trial_index":125,"time_elapsed":1106950,"internal_node_id":"0.0-125.0"}],"bonus":312}