{"start_time":"2017-05-24 15:45:00","end_time":"2017-05-24 16:07:46","points_phase0":95,"points_phase1":106,"phase_order":1,"age":23,"gender":"f","tries":1,"during":"Nothing","worker_id":"A1HSY4DI5PO5Z7","assignment_id":"3IAS3U3I0G91OFGWF3EU1U5QF1F2BT","data":[{"rt":6836,"url":"\/christiane\/tickets\/utils\/consent.html","trial_type":"html","trial_index":0,"time_elapsed":6939,"internal_node_id":"0.0-0.0"},{"age":23,"gender":"f","trial_type":"age","trial_index":1,"time_elapsed":245954,"internal_node_id":"0.0-1.0"},{"worker_id":"A1HSY4DI5PO5Z7","trial_type":"workerid","trial_index":2,"time_elapsed":261898,"internal_node_id":"0.0-2.0"},{"tries":1,"trial_type":"instructions_check","trial_index":3,"time_elapsed":293112,"internal_node_id":"0.0-3.0"},{"rt":5254,"url":"\/christiane\/tickets\/utils\/start.html","trial_type":"html","trial_index":4,"time_elapsed":299781,"internal_node_id":"0.0-4.0"},{"trial_type":"number-animation","trial_index":5,"time_elapsed":318005,"internal_node_id":"0.0-5.0"},{"phase":0,"sequence":0,"avg":181,"response":170,"trial_type":"training_avg","trial_index":6,"time_elapsed":328618,"internal_node_id":"0.0-6.0"},{"trial_type":"number-animation","trial_index":7,"time_elapsed":341606,"internal_node_id":"0.0-7.0"},{"phase":0,"sequence":1,"avg":188,"response":170,"trial_type":"training_avg","trial_index":8,"time_elapsed":348547,"internal_node_id":"0.0-8.0"},{"trial_type":"number-animation","trial_index":9,"time_elapsed":358374,"internal_node_id":"0.0-9.0"},{"phase":0,"sequence":2,"avg":188,"response":190,"trial_type":"training_avg","trial_index":10,"time_elapsed":367913,"internal_node_id":"0.0-10.0"},{"trial_type":"number-animation","trial_index":11,"time_elapsed":378226,"internal_node_id":"0.0-11.0"},{"phase":0,"sequence":3,"avg":177,"response":175,"trial_type":"training_avg","trial_index":12,"time_elapsed":384445,"internal_node_id":"0.0-12.0"},{"trial_type":"number-animation","trial_index":13,"time_elapsed":395831,"internal_node_id":"0.0-13.0"},{"phase":0,"sequence":4,"avg":182,"response":160,"trial_type":"training_avg","trial_index":14,"time_elapsed":400043,"internal_node_id":"0.0-14.0"},{"responses":[{"value":5,"offby":4,"category":"$115 - $130","category_index":0},{"value":10,"offby":5,"category":"$131 - $145","category_index":1},{"value":10,"offby":-2,"category":"$146 - $160","category_index":2},{"value":5,"offby":-17,"category":"$161 - $175","category_index":3},{"value":30,"offby":-4,"category":"$176 - $190","category_index":4},{"value":30,"offby":15,"category":"$191 - $205","category_index":5},{"value":10,"offby":-1,"category":"$206 - $220","category_index":6}],"phase":0,"number":0,"trial_type":"bar-choose","trial_index":15,"time_elapsed":460663,"internal_node_id":"0.0-15.0"},{"rt":10687,"url":"\/christiane\/tickets\/utils\/testing.html","trial_type":"html","trial_index":16,"time_elapsed":472745,"internal_node_id":"0.0-16.0"},{"phase":0,"order":[48,39,21,47,36,30,0,25,20,35,7,29,31,5,34,24,1,44,2,10,23,18,11,38,9,4,43,33,28,37,41,27,8,40,6,42,49,19,45,3,16,12,17,46,13,32,22,26,15,14],"trial_type":"store_order","trial_index":17,"time_elapsed":473747,"internal_node_id":"0.0-17.0"},{"result":146,"points":3,"place":0,"phase":0,"sequence":-1,"prices":[184,180,224,165,181,199,185,193,218,146],"times":[1713,1110,1318,2498,718,986,969,857,904,1088],"next_num":10,"trial_type":"ticket-choose","trial_index":18,"time_elapsed":490658,"internal_node_id":"0.0-18.0"},{"rt":17708,"url":"\/christiane\/tickets\/utils\/testing_after.html","trial_type":"html","trial_index":19,"time_elapsed":509763,"internal_node_id":"0.0-19.0"},{"result":148,"points":3,"place":0,"phase":0,"sequence":0,"prices":[173,163,185,181,166,148,160,185,176,184],"times":[1665,913,823,830,985,1368],"next_num":6,"trial_type":"ticket-choose","trial_index":20,"time_elapsed":520341,"internal_node_id":"0.0-20.0"},{"result":157,"points":2,"place":1,"phase":0,"sequence":1,"prices":[190,150,175,161,188,207,157,194,178,199],"times":[1171,1123,901,822,805,815,1203],"next_num":7,"trial_type":"ticket-choose","trial_index":21,"time_elapsed":531083,"internal_node_id":"0.0-21.0"},{"result":153,"points":3,"place":0,"phase":0,"sequence":2,"prices":[176,175,186,210,163,179,187,166,153,208],"times":[1286,748,631,735,911,786,801,1462,1287],"next_num":9,"trial_type":"ticket-choose","trial_index":22,"time_elapsed":544177,"internal_node_id":"0.0-22.0"},{"result":171,"points":1,"place":3,"phase":0,"sequence":3,"prices":[189,167,180,197,165,168,172,213,178,171],"times":[1657,695,692,577,922,639,783,830,827,884],"next_num":10,"trial_type":"ticket-choose","trial_index":23,"time_elapsed":557077,"internal_node_id":"0.0-23.0"},{"result":148,"points":3,"place":0,"phase":0,"sequence":4,"prices":[171,169,186,165,163,167,220,148,187,165],"times":[1319,921,660,2883,787,831,664,1071],"next_num":8,"trial_type":"ticket-choose","trial_index":24,"time_elapsed":570005,"internal_node_id":"0.0-24.0"},{"result":157,"points":3,"place":0,"phase":0,"sequence":5,"prices":[191,170,182,165,175,182,203,157,195,200],"times":[1250,778,872,1062,601,661,756,1312],"next_num":8,"trial_type":"ticket-choose","trial_index":25,"time_elapsed":580998,"internal_node_id":"0.0-25.0"},{"result":158,"points":2,"place":1,"phase":0,"sequence":6,"prices":[158,176,187,210,177,181,187,165,208,153],"times":[1670],"next_num":1,"trial_type":"ticket-choose","trial_index":26,"time_elapsed":584737,"internal_node_id":"0.0-26.0"},{"result":155,"points":2,"place":1,"phase":0,"sequence":7,"prices":[200,207,155,158,156,168,167,135,178,177],"times":[2029,1990,1290],"next_num":3,"trial_type":"ticket-choose","trial_index":27,"time_elapsed":592584,"internal_node_id":"0.0-27.0"},{"result":186,"points":1,"place":4,"phase":0,"sequence":8,"prices":[220,173,201,197,169,205,198,183,178,186],"times":[866,606,711,706,1586,696,673,701,758,968],"next_num":10,"trial_type":"ticket-choose","trial_index":28,"time_elapsed":604959,"internal_node_id":"0.0-28.0"},{"result":166,"points":1,"place":2,"phase":0,"sequence":9,"prices":[165,175,186,214,177,179,187,166,153,208],"times":[1144,663,751,631,661,643,623,1055],"next_num":8,"trial_type":"ticket-choose","trial_index":29,"time_elapsed":614683,"internal_node_id":"0.0-29.0"},{"result":168,"points":1,"place":2,"phase":0,"sequence":10,"prices":[167,175,185,224,178,181,186,168,208,156],"times":[1194,574,630,729,640,672,605,998],"next_num":8,"trial_type":"ticket-choose","trial_index":30,"time_elapsed":624251,"internal_node_id":"0.0-30.0"},{"result":163,"points":2,"place":1,"phase":0,"sequence":11,"prices":[176,186,178,217,163,181,187,166,153,209],"times":[1067,563,577,604,1129],"next_num":5,"trial_type":"ticket-choose","trial_index":31,"time_elapsed":631544,"internal_node_id":"0.0-31.0"},{"result":166,"points":1,"place":2,"phase":0,"sequence":12,"prices":[158,175,186,211,177,180,187,166,209,153],"times":[1667,819,644,570,575,681,602,1774],"next_num":8,"trial_type":"ticket-choose","trial_index":32,"time_elapsed":642478,"internal_node_id":"0.0-32.0"},{"result":165,"points":1,"place":2,"phase":0,"sequence":13,"prices":[163,175,187,209,176,180,188,165,154,208],"times":[1822,547,573,598,666,605,665,1028],"next_num":8,"trial_type":"ticket-choose","trial_index":33,"time_elapsed":652555,"internal_node_id":"0.0-33.0"},{"result":165,"points":3,"place":0,"phase":0,"sequence":14,"prices":[192,172,171,178,188,165,217,168,195,197],"times":[967,1084,930,735,674,1210],"next_num":6,"trial_type":"ticket-choose","trial_index":34,"time_elapsed":661387,"internal_node_id":"0.0-34.0"},{"result":159,"points":1,"place":2,"phase":0,"sequence":15,"prices":[181,159,149,175,185,151,163,174,178,207],"times":[1108,1111],"next_num":2,"trial_type":"ticket-choose","trial_index":35,"time_elapsed":665927,"internal_node_id":"0.0-35.0"},{"result":158,"points":3,"place":0,"phase":0,"sequence":16,"prices":[214,184,226,192,215,158,199,175,176,208],"times":[864,807,600,630,632,1196],"next_num":6,"trial_type":"ticket-choose","trial_index":36,"time_elapsed":673898,"internal_node_id":"0.0-36.0"},{"result":166,"points":1,"place":2,"phase":0,"sequence":17,"prices":[163,174,186,212,176,181,187,166,153,209],"times":[2701,609,607,626,663,628,669,1342],"next_num":8,"trial_type":"ticket-choose","trial_index":37,"time_elapsed":685277,"internal_node_id":"0.0-37.0"},{"result":165,"points":3,"place":0,"phase":0,"sequence":18,"prices":[196,171,170,184,187,165,211,169,201,202],"times":[833,564,683,754,649,996],"next_num":6,"trial_type":"ticket-choose","trial_index":38,"time_elapsed":693144,"internal_node_id":"0.0-38.0"},{"result":152,"points":3,"place":0,"phase":0,"sequence":19,"prices":[200,180,203,152,175,170,160,154,176,191],"times":[1891,652,1525,1114],"next_num":4,"trial_type":"ticket-choose","trial_index":39,"time_elapsed":701262,"internal_node_id":"0.0-39.0"},{"result":158,"points":2,"place":1,"phase":0,"sequence":20,"prices":[177,175,186,209,158,181,188,167,208,154],"times":[882,983,622,639,1047],"next_num":5,"trial_type":"ticket-choose","trial_index":40,"time_elapsed":708297,"internal_node_id":"0.0-40.0"},{"result":165,"points":1,"place":2,"phase":0,"sequence":21,"prices":[200,173,182,169,207,165,152,202,161,204],"times":[736,577,576,806,586,2271],"next_num":6,"trial_type":"ticket-choose","trial_index":41,"time_elapsed":717320,"internal_node_id":"0.0-41.0"},{"result":163,"points":3,"place":0,"phase":0,"sequence":22,"prices":[163,199,196,199,185,195,227,163,177,166],"times":[959,434,478,567,501,636,637,1112],"next_num":8,"trial_type":"ticket-choose","trial_index":42,"time_elapsed":726195,"internal_node_id":"0.0-42.0"},{"result":158,"points":2,"place":1,"phase":0,"sequence":23,"prices":[158,175,186,209,177,181,188,167,208,154],"times":[1662],"next_num":1,"trial_type":"ticket-choose","trial_index":43,"time_elapsed":729969,"internal_node_id":"0.0-43.0"},{"result":153,"points":3,"place":0,"phase":0,"sequence":24,"prices":[165,174,186,212,177,181,187,166,153,209],"times":[858,768,514,677,632,655,579,2230,1017],"next_num":9,"trial_type":"ticket-choose","trial_index":44,"time_elapsed":741864,"internal_node_id":"0.0-44.0"},{"result":191,"points":0,"place":8,"phase":0,"sequence":25,"prices":[183,179,188,165,168,173,205,159,187,191],"times":[1337,646,565,1317,638,586,667,2026,587,1417],"next_num":10,"trial_type":"ticket-choose","trial_index":45,"time_elapsed":755705,"internal_node_id":"0.0-45.0"},{"result":166,"points":1,"place":2,"phase":0,"sequence":26,"prices":[163,175,186,214,176,179,187,166,153,208],"times":[1095,563,615,579,567,648,569,1022],"next_num":8,"trial_type":"ticket-choose","trial_index":46,"time_elapsed":764823,"internal_node_id":"0.0-46.0"},{"result":169,"points":1,"place":3,"phase":0,"sequence":27,"prices":[199,193,169,165,202,182,151,164,176,171],"times":[979,598,1275],"next_num":3,"trial_type":"ticket-choose","trial_index":47,"time_elapsed":770117,"internal_node_id":"0.0-47.0"},{"result":156,"points":2,"place":1,"phase":0,"sequence":28,"prices":[180,156,149,160,168,186,172,198,176,195],"times":[695,1134],"next_num":2,"trial_type":"ticket-choose","trial_index":48,"time_elapsed":774183,"internal_node_id":"0.0-48.0"},{"result":163,"points":2,"place":1,"phase":0,"sequence":29,"prices":[176,187,179,209,163,180,188,165,154,208],"times":[1003,613,526,597,1030],"next_num":5,"trial_type":"ticket-choose","trial_index":49,"time_elapsed":780769,"internal_node_id":"0.0-49.0"},{"result":166,"points":1,"place":3,"phase":0,"sequence":30,"prices":[201,204,179,166,185,165,214,156,202,165],"times":[832,597,1457,1367],"next_num":4,"trial_type":"ticket-choose","trial_index":50,"time_elapsed":787626,"internal_node_id":"0.0-50.0"},{"result":165,"points":2,"place":1,"phase":0,"sequence":31,"prices":[193,174,224,165,187,190,224,161,194,195],"times":[731,550,608,1095],"next_num":4,"trial_type":"ticket-choose","trial_index":51,"time_elapsed":793138,"internal_node_id":"0.0-51.0"},{"result":158,"points":2,"place":1,"phase":0,"sequence":32,"prices":[177,176,187,225,158,181,187,165,208,153],"times":[1031,549,542,599,849],"next_num":5,"trial_type":"ticket-choose","trial_index":52,"time_elapsed":799503,"internal_node_id":"0.0-52.0"},{"result":165,"points":3,"place":0,"phase":0,"sequence":33,"prices":[193,181,175,181,185,165,224,199,218,184],"times":[744,562,765,633,586,914],"next_num":6,"trial_type":"ticket-choose","trial_index":53,"time_elapsed":806859,"internal_node_id":"0.0-53.0"},{"result":165,"points":2,"place":1,"phase":0,"sequence":34,"prices":[177,174,186,217,165,181,187,166,153,209],"times":[1103,713,591,672,982],"next_num":5,"trial_type":"ticket-choose","trial_index":54,"time_elapsed":814191,"internal_node_id":"0.0-54.0"},{"result":157,"points":3,"place":0,"phase":0,"sequence":35,"prices":[201,187,157,184,198,179,188,185,178,170],"times":[1283,632,1133],"next_num":3,"trial_type":"ticket-choose","trial_index":55,"time_elapsed":819973,"internal_node_id":"0.0-55.0"},{"result":167,"points":2,"place":1,"phase":0,"sequence":36,"prices":[178,175,185,215,167,181,186,168,208,156],"times":[778,624,560,636,948],"next_num":5,"trial_type":"ticket-choose","trial_index":56,"time_elapsed":826393,"internal_node_id":"0.0-56.0"},{"result":169,"points":2,"place":1,"phase":0,"sequence":37,"prices":[181,214,169,147,182,193,178,184,176,179],"times":[890,593,980],"next_num":3,"trial_type":"ticket-choose","trial_index":57,"time_elapsed":831198,"internal_node_id":"0.0-57.0"},{"result":158,"points":2,"place":1,"phase":0,"sequence":38,"prices":[177,175,186,221,158,180,187,166,209,153],"times":[1063,728,686,865,955],"next_num":5,"trial_type":"ticket-choose","trial_index":58,"time_elapsed":838378,"internal_node_id":"0.0-58.0"},{"result":168,"points":1,"place":2,"phase":0,"sequence":39,"prices":[167,174,186,211,178,181,188,168,208,156],"times":[994,748,687,607,655,697,988,1054],"next_num":8,"trial_type":"ticket-choose","trial_index":59,"time_elapsed":848268,"internal_node_id":"0.0-59.0"},{"result":165,"points":1,"place":2,"phase":0,"sequence":40,"prices":[185,179,191,165,161,173,199,150,188,168],"times":[708,1006,1391,992],"next_num":4,"trial_type":"ticket-choose","trial_index":60,"time_elapsed":855103,"internal_node_id":"0.0-60.0"},{"result":169,"points":1,"place":2,"phase":0,"sequence":41,"prices":[178,175,186,212,167,179,187,169,209,153],"times":[1059,555,591,688,1687,590,557,1056],"next_num":8,"trial_type":"ticket-choose","trial_index":61,"time_elapsed":865294,"internal_node_id":"0.0-61.0"},{"result":165,"points":2,"place":1,"phase":0,"sequence":42,"prices":[165,175,187,209,177,180,188,167,154,208],"times":[1298],"next_num":1,"trial_type":"ticket-choose","trial_index":62,"time_elapsed":868609,"internal_node_id":"0.0-62.0"},{"result":165,"points":2,"place":1,"phase":0,"sequence":43,"prices":[177,175,187,209,165,180,188,165,154,208],"times":[1038,563,599,574,882],"next_num":5,"trial_type":"ticket-choose","trial_index":63,"time_elapsed":875035,"internal_node_id":"0.0-63.0"},{"result":153,"points":2,"place":1,"phase":0,"sequence":44,"prices":[167,153,172,185,195,143,184,211,177,227],"times":[1038,1088],"next_num":2,"trial_type":"ticket-choose","trial_index":64,"time_elapsed":879437,"internal_node_id":"0.0-64.0"},{"result":165,"points":2,"place":1,"phase":0,"sequence":45,"prices":[187,201,165,172,196,174,178,154,172,180],"times":[717,561,985],"next_num":3,"trial_type":"ticket-choose","trial_index":65,"time_elapsed":884185,"internal_node_id":"0.0-65.0"},{"result":169,"points":1,"place":2,"phase":0,"sequence":46,"prices":[167,175,186,225,178,179,187,169,209,153],"times":[1090,546,565,638,582,592,586,1062],"next_num":8,"trial_type":"ticket-choose","trial_index":66,"time_elapsed":893355,"internal_node_id":"0.0-66.0"},{"result":164,"points":3,"place":0,"phase":0,"sequence":47,"prices":[199,191,188,174,167,193,189,164,176,170],"times":[1125,728,619,588,958,555,558,1414],"next_num":8,"trial_type":"ticket-choose","trial_index":67,"time_elapsed":903701,"internal_node_id":"0.0-67.0"},{"result":165,"points":2,"place":1,"phase":0,"sequence":48,"prices":[177,175,186,210,165,179,187,166,153,208],"times":[2070,553,641,603,888],"next_num":5,"trial_type":"ticket-choose","trial_index":68,"time_elapsed":911206,"internal_node_id":"0.0-68.0"},{"result":167,"points":2,"place":1,"phase":0,"sequence":49,"prices":[178,174,186,217,167,181,188,168,208,156],"times":[729,563,1107,739,1240],"next_num":5,"trial_type":"ticket-choose","trial_index":69,"time_elapsed":918554,"internal_node_id":"0.0-69.0"},{"responses":[{"value":0,"offby":-1,"category":"$115 - $130","category_index":0},{"value":0,"offby":-5,"category":"$131 - $145","category_index":1},{"value":20,"offby":8,"category":"$146 - $160","category_index":2},{"value":20,"offby":-2,"category":"$161 - $175","category_index":3},{"value":20,"offby":-14,"category":"$176 - $190","category_index":4},{"value":20,"offby":5,"category":"$191 - $205","category_index":5},{"value":20,"offby":9,"category":"$206 - $220","category_index":6}],"phase":1,"number":1,"trial_type":"bar-choose","trial_index":70,"time_elapsed":947570,"internal_node_id":"0.0-70.0"},{"rt":23733,"url":"\/christiane\/tickets\/utils\/testing2.html","trial_type":"point_update","trial_index":71,"time_elapsed":972855,"internal_node_id":"0.0-71.0"},{"phase":1,"order":[49,40,15,39,31,30,20,41,42,6,1,17,18,13,27,44,46,14,28,47,22,26,38,19,8,33,12,37,34,16,25,32,23,24,11,43,4,48,21,0,29,5,7,10,35,36,2,45,9,3],"trial_type":"store_order","trial_index":72,"time_elapsed":973864,"internal_node_id":"0.0-72.0"},{"result":147,"points":3,"place":0,"phase":1,"sequence":0,"prices":[181,215,169,147,182,193,177,184,176,179],"times":[1823,692,1818,1006],"next_num":4,"trial_type":"ticket-choose","trial_index":73,"time_elapsed":982138,"internal_node_id":"0.0-73.0"},{"result":167,"points":2,"place":1,"phase":1,"sequence":1,"prices":[189,167,180,197,165,168,172,213,178,171],"times":[1237,1286],"next_num":2,"trial_type":"ticket-choose","trial_index":74,"time_elapsed":986908,"internal_node_id":"0.0-74.0"},{"result":158,"points":2,"place":1,"phase":1,"sequence":2,"prices":[175,186,177,221,180,187,158,166,209,153],"times":[1088,533,593,560,614,620,1062],"next_num":7,"trial_type":"ticket-choose","trial_index":75,"time_elapsed":995256,"internal_node_id":"0.0-75.0"},{"result":152,"points":3,"place":0,"phase":1,"sequence":3,"prices":[200,181,203,152,175,171,160,154,176,191],"times":[1036,544,559,989],"next_num":4,"trial_type":"ticket-choose","trial_index":76,"time_elapsed":1000944,"internal_node_id":"0.0-76.0"},{"result":165,"points":2,"place":1,"phase":1,"sequence":4,"prices":[188,200,165,172,198,174,177,154,177,180],"times":[754,711,988],"next_num":3,"trial_type":"ticket-choose","trial_index":77,"time_elapsed":1005783,"internal_node_id":"0.0-77.0"},{"result":165,"points":3,"place":0,"phase":1,"sequence":5,"prices":[191,172,169,175,182,203,170,195,165,176],"times":[680,461,1156,1394,623,590,630,548,1064],"next_num":9,"trial_type":"ticket-choose","trial_index":78,"time_elapsed":1016648,"internal_node_id":"0.0-78.0"},{"result":167,"points":2,"place":1,"phase":1,"sequence":6,"prices":[174,186,167,211,181,188,178,168,208,156],"times":[1100,513,936],"next_num":3,"trial_type":"ticket-choose","trial_index":79,"time_elapsed":1021502,"internal_node_id":"0.0-79.0"},{"result":165,"points":2,"place":1,"phase":1,"sequence":7,"prices":[201,165,162,166,185,214,165,202,204,179],"times":[755,1282],"next_num":2,"trial_type":"ticket-choose","trial_index":80,"time_elapsed":1025559,"internal_node_id":"0.0-80.0"},{"result":158,"points":2,"place":1,"phase":1,"sequence":8,"prices":[176,187,158,210,181,187,177,165,208,153],"times":[705,513,903],"next_num":3,"trial_type":"ticket-choose","trial_index":81,"time_elapsed":1030109,"internal_node_id":"0.0-81.0"},{"result":154,"points":2,"place":1,"phase":1,"sequence":9,"prices":[168,154,172,185,195,144,184,211,177,227],"times":[744,851],"next_num":2,"trial_type":"ticket-choose","trial_index":82,"time_elapsed":1033915,"internal_node_id":"0.0-82.0"},{"result":166,"points":1,"place":2,"phase":1,"sequence":10,"prices":[175,187,165,209,180,188,177,166,154,208],"times":[1358,447,816,548,596,572,541,1607],"next_num":8,"trial_type":"ticket-choose","trial_index":83,"time_elapsed":1044193,"internal_node_id":"0.0-83.0"},{"result":165,"points":3,"place":0,"phase":1,"sequence":11,"prices":[185,170,182,201,173,199,171,188,165,168],"times":[703,575,608,516,558,554,765,590,980],"next_num":9,"trial_type":"ticket-choose","trial_index":84,"time_elapsed":1053834,"internal_node_id":"0.0-84.0"},{"result":165,"points":3,"place":0,"phase":1,"sequence":12,"prices":[171,203,175,170,167,220,192,186,165,165],"times":[874,905,458,519,680,510,531,666,949],"next_num":9,"trial_type":"ticket-choose","trial_index":85,"time_elapsed":1063689,"internal_node_id":"0.0-85.0"},{"result":167,"points":2,"place":1,"phase":1,"sequence":13,"prices":[175,186,178,212,179,187,167,169,209,153],"times":[706,499,518,593,600,590,1580],"next_num":7,"trial_type":"ticket-choose","trial_index":86,"time_elapsed":1071967,"internal_node_id":"0.0-86.0"},{"result":161,"points":1,"place":2,"phase":1,"sequence":14,"prices":[181,155,148,161,168,187,172,199,176,194],"times":[702,1279,553,1240],"next_num":4,"trial_type":"ticket-choose","trial_index":87,"time_elapsed":1078667,"internal_node_id":"0.0-87.0"},{"result":165,"points":3,"place":0,"phase":1,"sequence":15,"prices":[193,165,175,181,185,224,180,199,218,184],"times":[716,961],"next_num":2,"trial_type":"ticket-choose","trial_index":88,"time_elapsed":1082687,"internal_node_id":"0.0-88.0"},{"result":168,"points":1,"place":2,"phase":1,"sequence":16,"prices":[175,185,167,224,181,186,178,168,208,156],"times":[772,547,1171,491,541,538,581,915],"next_num":8,"trial_type":"ticket-choose","trial_index":89,"time_elapsed":1092401,"internal_node_id":"0.0-89.0"},{"result":159,"points":1,"place":2,"phase":1,"sequence":17,"prices":[180,159,149,175,185,141,163,174,178,207],"times":[723,881],"next_num":2,"trial_type":"ticket-choose","trial_index":90,"time_elapsed":1096260,"internal_node_id":"0.0-90.0"},{"result":169,"points":1,"place":2,"phase":1,"sequence":18,"prices":[175,186,167,225,179,187,178,169,209,153],"times":[664,525,954,507,509,536,716,873],"next_num":8,"trial_type":"ticket-choose","trial_index":91,"time_elapsed":1105241,"internal_node_id":"0.0-91.0"},{"result":165,"points":2,"place":1,"phase":1,"sequence":19,"prices":[175,187,177,209,180,188,165,165,154,208],"times":[741,570,668,612,504,610,910],"next_num":7,"trial_type":"ticket-choose","trial_index":92,"time_elapsed":1113118,"internal_node_id":"0.0-92.0"},{"result":158,"points":2,"place":1,"phase":1,"sequence":20,"prices":[176,187,177,225,181,187,158,165,208,153],"times":[1010,609,634,640,582,601,944],"next_num":7,"trial_type":"ticket-choose","trial_index":93,"time_elapsed":1121461,"internal_node_id":"0.0-93.0"},{"result":158,"points":2,"place":1,"phase":1,"sequence":21,"prices":[175,186,158,211,180,187,177,166,209,153],"times":[1116,561,902],"next_num":3,"trial_type":"ticket-choose","trial_index":94,"time_elapsed":1126488,"internal_node_id":"0.0-94.0"},{"result":165,"points":2,"place":1,"phase":1,"sequence":22,"prices":[174,186,177,217,181,187,165,166,153,209],"times":[676,610,556,588,687,603,958],"next_num":7,"trial_type":"ticket-choose","trial_index":95,"time_elapsed":1134638,"internal_node_id":"0.0-95.0"},{"result":163,"points":3,"place":0,"phase":1,"sequence":23,"prices":[168,199,196,198,185,195,227,163,177,166],"times":[1018,495,465,488,527,575,579,899],"next_num":8,"trial_type":"ticket-choose","trial_index":96,"time_elapsed":1143180,"internal_node_id":"0.0-96.0"},{"result":165,"points":2,"place":1,"phase":1,"sequence":24,"prices":[175,186,177,210,179,187,165,166,153,208],"times":[684,585,512,535,542,635,999],"next_num":7,"trial_type":"ticket-choose","trial_index":97,"time_elapsed":1151398,"internal_node_id":"0.0-97.0"},{"result":167,"points":2,"place":1,"phase":1,"sequence":25,"prices":[175,185,178,215,181,186,167,168,208,156],"times":[894,573,678,592,759,577,1525],"next_num":7,"trial_type":"ticket-choose","trial_index":98,"time_elapsed":1160215,"internal_node_id":"0.0-98.0"},{"result":157,"points":3,"place":0,"phase":1,"sequence":26,"prices":[201,187,157,184,198,179,188,185,178,170],"times":[1157,561,992],"next_num":3,"trial_type":"ticket-choose","trial_index":99,"time_elapsed":1165574,"internal_node_id":"0.0-99.0"},{"result":168,"points":1,"place":2,"phase":1,"sequence":27,"prices":[183,182,192,168,173,205,167,187,165,170],"times":[1706,543,623,1006],"next_num":4,"trial_type":"ticket-choose","trial_index":100,"time_elapsed":1172116,"internal_node_id":"0.0-100.0"},{"result":165,"points":3,"place":0,"phase":1,"sequence":28,"prices":[196,165,170,184,187,211,171,201,202,185],"times":[781,912],"next_num":2,"trial_type":"ticket-choose","trial_index":101,"time_elapsed":1176317,"internal_node_id":"0.0-101.0"},{"result":169,"points":1,"place":3,"phase":1,"sequence":29,"prices":[198,193,169,163,202,182,152,164,177,171],"times":[1184,1123,1458],"next_num":3,"trial_type":"ticket-choose","trial_index":102,"time_elapsed":1182643,"internal_node_id":"0.0-102.0"},{"result":155,"points":2,"place":1,"phase":1,"sequence":30,"prices":[201,207,155,158,156,165,167,135,178,177],"times":[895,501,1055],"next_num":3,"trial_type":"ticket-choose","trial_index":103,"time_elapsed":1188359,"internal_node_id":"0.0-103.0"},{"result":165,"points":3,"place":0,"phase":1,"sequence":31,"prices":[192,165,171,178,188,217,172,195,197,186],"times":[989,1047],"next_num":2,"trial_type":"ticket-choose","trial_index":104,"time_elapsed":1192728,"internal_node_id":"0.0-104.0"},{"result":165,"points":2,"place":1,"phase":1,"sequence":32,"prices":[174,186,165,212,181,187,177,167,153,209],"times":[1320,626,1225],"next_num":3,"trial_type":"ticket-choose","trial_index":105,"time_elapsed":1198309,"internal_node_id":"0.0-105.0"},{"result":150,"points":3,"place":0,"phase":1,"sequence":33,"prices":[189,150,175,160,188,207,158,194,178,199],"times":[858,1370],"next_num":2,"trial_type":"ticket-choose","trial_index":106,"time_elapsed":1202969,"internal_node_id":"0.0-106.0"},{"result":165,"points":2,"place":1,"phase":1,"sequence":34,"prices":[175,186,165,214,179,187,177,166,153,208],"times":[872,520,849],"next_num":3,"trial_type":"ticket-choose","trial_index":107,"time_elapsed":1207620,"internal_node_id":"0.0-107.0"},{"result":143,"points":3,"place":0,"phase":1,"sequence":35,"prices":[222,173,202,197,143,205,198,183,178,186],"times":[1185,966,471,571,824],"next_num":5,"trial_type":"ticket-choose","trial_index":108,"time_elapsed":1214521,"internal_node_id":"0.0-108.0"},{"result":163,"points":1,"place":2,"phase":1,"sequence":36,"prices":[183,163,185,180,166,148,160,186,176,184],"times":[1412,1043],"next_num":2,"trial_type":"ticket-choose","trial_index":109,"time_elapsed":1219430,"internal_node_id":"0.0-109.0"},{"result":158,"points":2,"place":1,"phase":1,"sequence":37,"prices":[175,186,158,209,181,188,177,167,208,154],"times":[801,522,962],"next_num":3,"trial_type":"ticket-choose","trial_index":110,"time_elapsed":1224136,"internal_node_id":"0.0-110.0"},{"result":167,"points":2,"place":1,"phase":1,"sequence":38,"prices":[212,192,188,184,167,193,189,164,176,170],"times":[770,939,602,590,1231],"next_num":5,"trial_type":"ticket-choose","trial_index":111,"time_elapsed":1231237,"internal_node_id":"0.0-111.0"},{"result":167,"points":2,"place":1,"phase":1,"sequence":39,"prices":[174,186,178,217,181,188,167,168,208,156],"times":[734,516,538,655,624,591,1004],"next_num":7,"trial_type":"ticket-choose","trial_index":112,"time_elapsed":1239333,"internal_node_id":"0.0-112.0"},{"result":163,"points":2,"place":1,"phase":1,"sequence":40,"prices":[175,187,176,209,180,188,163,165,154,208],"times":[929,512,596,612,605,615,921],"next_num":7,"trial_type":"ticket-choose","trial_index":113,"time_elapsed":1247597,"internal_node_id":"0.0-113.0"},{"result":163,"points":2,"place":1,"phase":1,"sequence":41,"prices":[175,186,163,214,179,187,176,166,153,208],"times":[1205,728,916],"next_num":3,"trial_type":"ticket-choose","trial_index":114,"time_elapsed":1252809,"internal_node_id":"0.0-114.0"},{"result":163,"points":2,"place":1,"phase":1,"sequence":42,"prices":[174,186,176,217,181,187,163,166,153,209],"times":[613,508,839,654,623,1334,895],"next_num":7,"trial_type":"ticket-choose","trial_index":115,"time_elapsed":1261570,"internal_node_id":"0.0-115.0"},{"result":158,"points":3,"place":0,"phase":1,"sequence":43,"prices":[210,184,226,193,215,158,199,175,176,208],"times":[703,570,598,620,651,913],"next_num":6,"trial_type":"ticket-choose","trial_index":116,"time_elapsed":1268839,"internal_node_id":"0.0-116.0"},{"result":163,"points":2,"place":1,"phase":1,"sequence":44,"prices":[175,187,163,209,180,188,176,165,154,208],"times":[1700,555,945],"next_num":3,"trial_type":"ticket-choose","trial_index":117,"time_elapsed":1274571,"internal_node_id":"0.0-117.0"},{"result":165,"points":3,"place":0,"phase":1,"sequence":45,"prices":[193,169,171,187,190,224,174,194,165,188],"times":[830,801,507,563,601,641,652,671,1911],"next_num":9,"trial_type":"ticket-choose","trial_index":118,"time_elapsed":1285676,"internal_node_id":"0.0-118.0"},{"result":158,"points":2,"place":1,"phase":1,"sequence":46,"prices":[175,186,177,209,181,188,158,167,208,154],"times":[931,604,567,551,511,591,967],"next_num":7,"trial_type":"ticket-choose","trial_index":119,"time_elapsed":1293736,"internal_node_id":"0.0-119.0"},{"result":165,"points":2,"place":1,"phase":1,"sequence":47,"prices":[200,165,165,173,182,207,161,202,204,180],"times":[1146,528,1020],"next_num":3,"trial_type":"ticket-choose","trial_index":120,"time_elapsed":1298976,"internal_node_id":"0.0-120.0"},{"result":163,"points":2,"place":1,"phase":1,"sequence":48,"prices":[175,186,176,210,179,187,163,166,153,208],"times":[849,554,797,519,554,560,839],"next_num":7,"trial_type":"ticket-choose","trial_index":121,"time_elapsed":1307190,"internal_node_id":"0.0-121.0"},{"result":163,"points":2,"place":1,"phase":1,"sequence":49,"prices":[174,186,163,212,181,187,176,166,153,209],"times":[858,489,960],"next_num":3,"trial_type":"ticket-choose","trial_index":122,"time_elapsed":1311880,"internal_node_id":"0.0-122.0"},{"responses":[{"value":0,"offby":-1,"category":"$115 - $130","category_index":0},{"value":0,"offby":-5,"category":"$131 - $145","category_index":1},{"value":0,"offby":-12,"category":"$146 - $160","category_index":2},{"value":20,"offby":-2,"category":"$161 - $175","category_index":3},{"value":20,"offby":-14,"category":"$176 - $190","category_index":4},{"value":40,"offby":25,"category":"$191 - $205","category_index":5},{"value":20,"offby":9,"category":"$206 - $220","category_index":6}],"phase":1,"number":1,"trial_type":"bar-choose","trial_index":123,"time_elapsed":1336096,"internal_node_id":"0.0-123.0"},{"special_comment":"No","trial_type":"special_sequence","trial_index":124,"time_elapsed":1342360,"internal_node_id":"0.0-124.0"},{"during":"Nothing","bonus":268,"trial_type":"final","trial_index":125,"time_elapsed":1363158,"internal_node_id":"0.0-125.0"}],"bonus":268}