{"start_time":"2017-05-24 09:14:04","end_time":"2017-05-24 09:30:56","points_phase0":108,"points_phase1":106,"phase_order":0,"age":27,"gender":"m","tries":2,"during":"Nothing","worker_id":"A1LB4EJUIYDMYJ","assignment_id":"3EF8EXOTT2O0HDWCKRRXUZEYVYCJ1C","data":[{"rt":9900,"url":"\/christiane\/tickets\/utils\/consent.html","trial_type":"html","trial_index":0,"time_elapsed":10307,"internal_node_id":"0.0-0.0"},{"age":27,"gender":"m","trial_type":"age","trial_index":1,"time_elapsed":16003,"internal_node_id":"0.0-1.0"},{"worker_id":"A1LB4EJUIYDMYJ","trial_type":"workerid","trial_index":2,"time_elapsed":26686,"internal_node_id":"0.0-2.0"},{"tries":2,"trial_type":"instructions_check","trial_index":3,"time_elapsed":52074,"internal_node_id":"0.0-3.0"},{"rt":6344,"url":"\/christiane\/tickets\/utils\/start.html","trial_type":"html","trial_index":4,"time_elapsed":59829,"internal_node_id":"0.0-4.0"},{"trial_type":"number-animation","trial_index":5,"time_elapsed":73135,"internal_node_id":"0.0-5.0"},{"phase":0,"sequence":0,"avg":181,"response":185,"trial_type":"training_avg","trial_index":6,"time_elapsed":81731,"internal_node_id":"0.0-6.0"},{"trial_type":"number-animation","trial_index":7,"time_elapsed":88782,"internal_node_id":"0.0-7.0"},{"phase":0,"sequence":1,"avg":188,"response":185,"trial_type":"training_avg","trial_index":8,"time_elapsed":95236,"internal_node_id":"0.0-8.0"},{"trial_type":"number-animation","trial_index":9,"time_elapsed":111854,"internal_node_id":"0.0-9.0"},{"phase":0,"sequence":2,"avg":188,"response":191,"trial_type":"training_avg","trial_index":10,"time_elapsed":119750,"internal_node_id":"0.0-10.0"},{"trial_type":"number-animation","trial_index":11,"time_elapsed":127587,"internal_node_id":"0.0-11.0"},{"phase":0,"sequence":3,"avg":177,"response":176,"trial_type":"training_avg","trial_index":12,"time_elapsed":133548,"internal_node_id":"0.0-12.0"},{"trial_type":"number-animation","trial_index":13,"time_elapsed":140837,"internal_node_id":"0.0-13.0"},{"phase":0,"sequence":4,"avg":182,"response":187,"trial_type":"training_avg","trial_index":14,"time_elapsed":147185,"internal_node_id":"0.0-14.0"},{"responses":[{"value":0,"offby":-1,"category":"$115 - $130","category_index":0},{"value":0,"offby":-5,"category":"$131 - $145","category_index":1},{"value":0,"offby":-12,"category":"$146 - $160","category_index":2},{"value":14,"offby":-8,"category":"$161 - $175","category_index":3},{"value":57,"offby":23,"category":"$176 - $190","category_index":4},{"value":19,"offby":4,"category":"$191 - $205","category_index":5},{"value":10,"offby":-1,"category":"$206 - $220","category_index":6}],"phase":0,"number":0,"trial_type":"bar-choose","trial_index":15,"time_elapsed":183892,"internal_node_id":"0.0-15.0"},{"rt":8506,"url":"\/christiane\/tickets\/utils\/testing.html","trial_type":"html","trial_index":16,"time_elapsed":194494,"internal_node_id":"0.0-16.0"},{"phase":0,"order":[16,48,37,18,23,31,11,2,27,34,30,4,49,47,19,13,10,42,9,15,26,1,12,43,5,46,28,41,6,44,35,24,38,39,36,8,29,3,21,32,45,33,20,7,17,25,14,40,0,22],"trial_type":"store_order","trial_index":17,"time_elapsed":195495,"internal_node_id":"0.0-17.0"},{"result":165,"points":2,"place":1,"phase":0,"sequence":-1,"prices":[184,180,224,165,181,199,185,193,218,146],"times":[3196,751,563,1076],"next_num":4,"trial_type":"ticket-choose","trial_index":18,"time_elapsed":204254,"internal_node_id":"0.0-18.0"},{"rt":9646,"url":"\/christiane\/tickets\/utils\/testing_after.html","trial_type":"html","trial_index":19,"time_elapsed":215372,"internal_node_id":"0.0-19.0"},{"result":163,"points":2,"place":1,"phase":0,"sequence":0,"prices":[175,187,176,209,180,188,163,165,154,208],"times":[1806,622,589,577,779,554,1441],"next_num":7,"trial_type":"ticket-choose","trial_index":20,"time_elapsed":225248,"internal_node_id":"0.0-20.0"},{"result":179,"points":1,"place":4,"phase":0,"sequence":1,"prices":[181,215,169,147,182,193,177,184,176,179],"times":[1498,428,492,415,523,522,484,568,528,2890],"next_num":10,"trial_type":"ticket-choose","trial_index":21,"time_elapsed":237534,"internal_node_id":"0.0-21.0"},{"result":163,"points":2,"place":1,"phase":0,"sequence":2,"prices":[198,193,169,163,202,182,152,164,177,171],"times":[875,542,736,912],"next_num":4,"trial_type":"ticket-choose","trial_index":22,"time_elapsed":243058,"internal_node_id":"0.0-22.0"},{"result":158,"points":2,"place":1,"phase":0,"sequence":3,"prices":[175,186,158,211,180,187,177,166,209,153],"times":[748,492,1055],"next_num":3,"trial_type":"ticket-choose","trial_index":23,"time_elapsed":247589,"internal_node_id":"0.0-23.0"},{"result":158,"points":2,"place":1,"phase":0,"sequence":4,"prices":[176,187,177,225,181,187,158,165,208,153],"times":[738,508,506,585,611,507,836],"next_num":7,"trial_type":"ticket-choose","trial_index":24,"time_elapsed":254937,"internal_node_id":"0.0-24.0"},{"result":165,"points":3,"place":0,"phase":0,"sequence":5,"prices":[171,203,175,170,167,220,192,186,165,165],"times":[746,507,684,629,833,563,582,553,1989],"next_num":9,"trial_type":"ticket-choose","trial_index":25,"time_elapsed":265812,"internal_node_id":"0.0-25.0"},{"result":153,"points":3,"place":0,"phase":0,"sequence":6,"prices":[174,186,177,217,181,187,165,166,153,209],"times":[862,538,512,548,580,517,886,710,874],"next_num":9,"trial_type":"ticket-choose","trial_index":26,"time_elapsed":275278,"internal_node_id":"0.0-26.0"},{"result":153,"points":3,"place":0,"phase":0,"sequence":7,"prices":[175,186,167,225,179,187,178,169,209,153],"times":[648,601,775,518,508,554,526,894,538,769],"next_num":10,"trial_type":"ticket-choose","trial_index":27,"time_elapsed":285203,"internal_node_id":"0.0-27.0"},{"result":165,"points":3,"place":0,"phase":0,"sequence":8,"prices":[192,165,171,178,188,217,172,195,197,186],"times":[846,1107],"next_num":2,"trial_type":"ticket-choose","trial_index":28,"time_elapsed":289123,"internal_node_id":"0.0-28.0"},{"result":155,"points":2,"place":1,"phase":0,"sequence":9,"prices":[181,155,148,161,168,187,172,199,176,194],"times":[598,760],"next_num":2,"trial_type":"ticket-choose","trial_index":29,"time_elapsed":292414,"internal_node_id":"0.0-29.0"},{"result":165,"points":3,"place":0,"phase":0,"sequence":10,"prices":[191,172,169,175,182,203,170,195,165,176],"times":[508,487,657,522,751,708,517,486,691],"next_num":9,"trial_type":"ticket-choose","trial_index":30,"time_elapsed":301108,"internal_node_id":"0.0-30.0"},{"result":156,"points":3,"place":0,"phase":0,"sequence":11,"prices":[175,185,178,215,181,186,167,168,208,156],"times":[667,465,575,554,522,619,641,503,582,683],"next_num":10,"trial_type":"ticket-choose","trial_index":31,"time_elapsed":310526,"internal_node_id":"0.0-31.0"},{"result":163,"points":1,"place":2,"phase":0,"sequence":12,"prices":[183,163,185,180,166,148,160,186,176,184],"times":[745,3409],"next_num":2,"trial_type":"ticket-choose","trial_index":32,"time_elapsed":316659,"internal_node_id":"0.0-32.0"},{"result":160,"points":1,"place":2,"phase":0,"sequence":13,"prices":[200,181,203,152,175,171,160,154,176,191],"times":[632,548,497,511,551,589,1451],"next_num":7,"trial_type":"ticket-choose","trial_index":33,"time_elapsed":324419,"internal_node_id":"0.0-33.0"},{"result":158,"points":2,"place":1,"phase":0,"sequence":14,"prices":[175,186,158,209,181,188,177,167,208,154],"times":[610,481,767],"next_num":3,"trial_type":"ticket-choose","trial_index":34,"time_elapsed":328397,"internal_node_id":"0.0-34.0"},{"result":163,"points":2,"place":1,"phase":0,"sequence":15,"prices":[175,187,163,209,180,188,176,165,154,208],"times":[583,547,831],"next_num":3,"trial_type":"ticket-choose","trial_index":35,"time_elapsed":332562,"internal_node_id":"0.0-35.0"},{"result":165,"points":2,"place":1,"phase":0,"sequence":16,"prices":[175,187,177,209,180,188,165,165,154,208],"times":[581,459,506,588,493,488,787],"next_num":7,"trial_type":"ticket-choose","trial_index":36,"time_elapsed":339439,"internal_node_id":"0.0-36.0"},{"result":143,"points":3,"place":0,"phase":0,"sequence":17,"prices":[222,173,202,197,143,205,198,183,178,186],"times":[480,473,482,488,709],"next_num":5,"trial_type":"ticket-choose","trial_index":37,"time_elapsed":344542,"internal_node_id":"0.0-37.0"},{"result":165,"points":2,"place":1,"phase":0,"sequence":18,"prices":[175,186,177,210,179,187,165,166,153,208],"times":[519,456,502,524,543,515,1000],"next_num":7,"trial_type":"ticket-choose","trial_index":38,"time_elapsed":351577,"internal_node_id":"0.0-38.0"},{"result":163,"points":2,"place":1,"phase":0,"sequence":19,"prices":[175,186,176,210,179,187,163,166,153,208],"times":[690,520,523,584,547,500,703],"next_num":7,"trial_type":"ticket-choose","trial_index":39,"time_elapsed":358604,"internal_node_id":"0.0-39.0"},{"result":165,"points":2,"place":1,"phase":0,"sequence":20,"prices":[200,165,165,173,182,207,161,202,204,180],"times":[574,788],"next_num":2,"trial_type":"ticket-choose","trial_index":40,"time_elapsed":361973,"internal_node_id":"0.0-40.0"},{"result":156,"points":3,"place":0,"phase":0,"sequence":21,"prices":[175,185,167,224,181,186,178,168,208,156],"times":[511,496,672,534,584,505,511,638,539,681],"next_num":10,"trial_type":"ticket-choose","trial_index":41,"time_elapsed":371305,"internal_node_id":"0.0-41.0"},{"result":163,"points":2,"place":1,"phase":0,"sequence":22,"prices":[175,186,163,214,179,187,176,166,153,208],"times":[738,626,1075],"next_num":3,"trial_type":"ticket-choose","trial_index":42,"time_elapsed":375842,"internal_node_id":"0.0-42.0"},{"result":157,"points":3,"place":0,"phase":0,"sequence":23,"prices":[201,187,157,184,198,179,188,185,178,170],"times":[654,585,1177],"next_num":3,"trial_type":"ticket-choose","trial_index":43,"time_elapsed":380342,"internal_node_id":"0.0-43.0"},{"result":153,"points":3,"place":0,"phase":0,"sequence":24,"prices":[175,186,178,212,179,187,167,169,209,153],"times":[571,479,505,519,542,526,495,984,734,519],"next_num":10,"trial_type":"ticket-choose","trial_index":44,"time_elapsed":389908,"internal_node_id":"0.0-44.0"},{"result":158,"points":3,"place":0,"phase":0,"sequence":25,"prices":[210,184,226,193,215,158,199,175,176,208],"times":[519,527,486,474,581,831],"next_num":6,"trial_type":"ticket-choose","trial_index":45,"time_elapsed":396063,"internal_node_id":"0.0-45.0"},{"result":165,"points":3,"place":0,"phase":0,"sequence":26,"prices":[196,165,170,184,187,211,171,201,202,185],"times":[882,886],"next_num":2,"trial_type":"ticket-choose","trial_index":46,"time_elapsed":399686,"internal_node_id":"0.0-46.0"},{"result":155,"points":2,"place":1,"phase":0,"sequence":27,"prices":[201,207,155,158,156,165,167,135,178,177],"times":[533,448,754],"next_num":3,"trial_type":"ticket-choose","trial_index":47,"time_elapsed":403508,"internal_node_id":"0.0-47.0"},{"result":166,"points":1,"place":2,"phase":0,"sequence":28,"prices":[175,186,165,214,179,187,177,166,153,208],"times":[563,488,719,486,593,486,534,865],"next_num":8,"trial_type":"ticket-choose","trial_index":48,"time_elapsed":411489,"internal_node_id":"0.0-48.0"},{"result":159,"points":1,"place":2,"phase":0,"sequence":29,"prices":[180,159,149,175,185,141,163,174,178,207],"times":[594,1138],"next_num":2,"trial_type":"ticket-choose","trial_index":49,"time_elapsed":415073,"internal_node_id":"0.0-49.0"},{"result":154,"points":2,"place":1,"phase":0,"sequence":30,"prices":[168,154,172,185,195,144,184,211,177,227],"times":[421,756],"next_num":2,"trial_type":"ticket-choose","trial_index":50,"time_elapsed":418126,"internal_node_id":"0.0-50.0"},{"result":184,"points":1,"place":4,"phase":0,"sequence":31,"prices":[193,165,175,181,185,224,180,199,218,184],"times":[593,569,494,487,471,522,511,489,521,620],"next_num":10,"trial_type":"ticket-choose","trial_index":51,"time_elapsed":426980,"internal_node_id":"0.0-51.0"},{"result":163,"points":3,"place":0,"phase":0,"sequence":32,"prices":[168,199,196,198,185,195,227,163,177,166],"times":[953,506,493,465,494,473,498,776],"next_num":8,"trial_type":"ticket-choose","trial_index":52,"time_elapsed":434765,"internal_node_id":"0.0-52.0"},{"result":167,"points":2,"place":1,"phase":0,"sequence":33,"prices":[189,167,180,197,165,168,172,213,178,171],"times":[597,749],"next_num":2,"trial_type":"ticket-choose","trial_index":53,"time_elapsed":437944,"internal_node_id":"0.0-53.0"},{"result":165,"points":2,"place":1,"phase":0,"sequence":34,"prices":[188,200,165,172,198,174,177,154,177,180],"times":[747,553,1164],"next_num":3,"trial_type":"ticket-choose","trial_index":54,"time_elapsed":442530,"internal_node_id":"0.0-54.0"},{"result":165,"points":2,"place":1,"phase":0,"sequence":35,"prices":[174,186,165,212,181,187,177,167,153,209],"times":[569,479,783],"next_num":3,"trial_type":"ticket-choose","trial_index":55,"time_elapsed":446543,"internal_node_id":"0.0-55.0"},{"result":165,"points":3,"place":0,"phase":0,"sequence":36,"prices":[185,170,182,201,173,199,171,188,165,168],"times":[700,522,513,510,492,495,477,503,698],"next_num":9,"trial_type":"ticket-choose","trial_index":56,"time_elapsed":454960,"internal_node_id":"0.0-56.0"},{"result":167,"points":2,"place":1,"phase":0,"sequence":37,"prices":[174,186,178,217,181,188,167,168,208,156],"times":[3257,508,514,525,581,540,941],"next_num":7,"trial_type":"ticket-choose","trial_index":57,"time_elapsed":464880,"internal_node_id":"0.0-57.0"},{"result":158,"points":2,"place":1,"phase":0,"sequence":38,"prices":[175,186,177,221,180,187,158,166,209,153],"times":[680,522,513,506,622,528,764],"next_num":7,"trial_type":"ticket-choose","trial_index":58,"time_elapsed":471978,"internal_node_id":"0.0-58.0"},{"result":165,"points":3,"place":0,"phase":0,"sequence":39,"prices":[193,169,171,187,190,224,174,194,165,188],"times":[546,434,1092,489,519,530,659,580,717],"next_num":9,"trial_type":"ticket-choose","trial_index":59,"time_elapsed":481128,"internal_node_id":"0.0-59.0"},{"result":167,"points":2,"place":1,"phase":0,"sequence":40,"prices":[212,192,188,184,167,193,189,164,176,170],"times":[794,514,500,535,629],"next_num":5,"trial_type":"ticket-choose","trial_index":60,"time_elapsed":486682,"internal_node_id":"0.0-60.0"},{"result":168,"points":1,"place":2,"phase":0,"sequence":41,"prices":[183,182,192,168,173,205,167,187,165,170],"times":[606,569,592,826],"next_num":4,"trial_type":"ticket-choose","trial_index":61,"time_elapsed":491624,"internal_node_id":"0.0-61.0"},{"result":165,"points":1,"place":2,"phase":0,"sequence":42,"prices":[176,187,158,210,181,187,177,165,208,153],"times":[599,497,470,536,575,650,579,830],"next_num":8,"trial_type":"ticket-choose","trial_index":62,"time_elapsed":499488,"internal_node_id":"0.0-62.0"},{"result":165,"points":2,"place":1,"phase":0,"sequence":43,"prices":[175,187,165,209,180,188,177,166,154,208],"times":[710,468,672],"next_num":3,"trial_type":"ticket-choose","trial_index":63,"time_elapsed":503468,"internal_node_id":"0.0-63.0"},{"result":163,"points":2,"place":1,"phase":0,"sequence":44,"prices":[174,186,176,217,181,187,163,166,153,209],"times":[504,448,455,474,471,533,1551],"next_num":7,"trial_type":"ticket-choose","trial_index":64,"time_elapsed":510853,"internal_node_id":"0.0-64.0"},{"result":179,"points":1,"place":4,"phase":0,"sequence":45,"prices":[201,165,162,166,185,214,165,202,204,179],"times":[665,910,443,477,460,486,444,525,516,574],"next_num":10,"trial_type":"ticket-choose","trial_index":65,"time_elapsed":519987,"internal_node_id":"0.0-65.0"},{"result":163,"points":2,"place":1,"phase":0,"sequence":46,"prices":[174,186,163,212,181,187,176,166,153,209],"times":[774,483,733],"next_num":3,"trial_type":"ticket-choose","trial_index":66,"time_elapsed":524095,"internal_node_id":"0.0-66.0"},{"result":150,"points":3,"place":0,"phase":0,"sequence":47,"prices":[189,150,175,160,188,207,158,194,178,199],"times":[476,1134],"next_num":2,"trial_type":"ticket-choose","trial_index":67,"time_elapsed":527641,"internal_node_id":"0.0-67.0"},{"result":156,"points":3,"place":0,"phase":0,"sequence":48,"prices":[174,186,167,211,181,188,178,168,208,156],"times":[1079,521,1194,563,516,492,500,682,584,563],"next_num":10,"trial_type":"ticket-choose","trial_index":68,"time_elapsed":537965,"internal_node_id":"0.0-68.0"},{"result":158,"points":2,"place":1,"phase":0,"sequence":49,"prices":[175,186,177,209,181,188,158,167,208,154],"times":[1120,532,542,510,521,496,811],"next_num":7,"trial_type":"ticket-choose","trial_index":69,"time_elapsed":545452,"internal_node_id":"0.0-69.0"},{"responses":[{"value":0,"offby":-1,"category":"$115 - $130","category_index":0},{"value":1,"offby":-4,"category":"$131 - $145","category_index":1},{"value":13,"offby":1,"category":"$146 - $160","category_index":2},{"value":25,"offby":3,"category":"$161 - $175","category_index":3},{"value":31,"offby":-3,"category":"$176 - $190","category_index":4},{"value":23,"offby":8,"category":"$191 - $205","category_index":5},{"value":7,"offby":-4,"category":"$206 - $220","category_index":6}],"phase":1,"number":1,"trial_type":"bar-choose","trial_index":70,"time_elapsed":590327,"internal_node_id":"0.0-70.0"},{"rt":15053,"url":"\/christiane\/tickets\/utils\/testing2.html","trial_type":"point_update","trial_index":71,"time_elapsed":607031,"internal_node_id":"0.0-71.0"},{"phase":1,"order":[20,18,29,26,15,27,38,4,0,22,31,34,3,49,40,43,46,39,12,16,7,8,37,42,32,44,11,5,21,6,17,30,47,19,33,35,28,41,25,48,24,13,9,2,1,45,23,36,10,14],"trial_type":"store_order","trial_index":72,"time_elapsed":608032,"internal_node_id":"0.0-72.0"},{"result":158,"points":2,"place":1,"phase":1,"sequence":0,"prices":[158,176,187,210,177,181,187,165,208,153],"times":[2065],"next_num":1,"trial_type":"ticket-choose","trial_index":73,"time_elapsed":611876,"internal_node_id":"0.0-73.0"},{"result":158,"points":2,"place":1,"phase":1,"sequence":1,"prices":[158,175,186,211,177,180,187,166,209,153],"times":[860],"next_num":1,"trial_type":"ticket-choose","trial_index":74,"time_elapsed":614535,"internal_node_id":"0.0-74.0"},{"result":161,"points":2,"place":1,"phase":1,"sequence":2,"prices":[185,179,191,165,161,173,199,150,188,168],"times":[757,476,493,490,1051],"next_num":5,"trial_type":"ticket-choose","trial_index":75,"time_elapsed":620336,"internal_node_id":"0.0-75.0"},{"result":169,"points":1,"place":3,"phase":1,"sequence":3,"prices":[200,173,182,169,207,165,152,202,161,204],"times":[632,627,616,720],"next_num":4,"trial_type":"ticket-choose","trial_index":76,"time_elapsed":625252,"internal_node_id":"0.0-76.0"},{"result":163,"points":2,"place":1,"phase":1,"sequence":4,"prices":[176,175,186,210,163,179,187,166,153,208],"times":[480,515,468,529,732],"next_num":5,"trial_type":"ticket-choose","trial_index":77,"time_elapsed":630491,"internal_node_id":"0.0-77.0"},{"result":165,"points":3,"place":0,"phase":1,"sequence":5,"prices":[192,172,171,178,188,165,217,168,195,197],"times":[494,523,561,490,502,775],"next_num":6,"trial_type":"ticket-choose","trial_index":78,"time_elapsed":636557,"internal_node_id":"0.0-78.0"},{"result":163,"points":3,"place":0,"phase":1,"sequence":6,"prices":[163,199,196,199,185,195,227,163,177,166],"times":[569,482,471,451,477,445,529,1162],"next_num":8,"trial_type":"ticket-choose","trial_index":79,"time_elapsed":644347,"internal_node_id":"0.0-79.0"},{"result":156,"points":3,"place":0,"phase":1,"sequence":7,"prices":[178,175,185,215,167,181,186,168,208,156],"times":[630,534,531,482,918,485,482,648,576,612],"next_num":10,"trial_type":"ticket-choose","trial_index":80,"time_elapsed":653765,"internal_node_id":"0.0-80.0"},{"result":156,"points":3,"place":0,"phase":1,"sequence":8,"prices":[167,174,186,211,178,181,188,168,208,156],"times":[643,482,542,505,527,488,493,556,545,572],"next_num":10,"trial_type":"ticket-choose","trial_index":81,"time_elapsed":662627,"internal_node_id":"0.0-81.0"},{"result":158,"points":2,"place":1,"phase":1,"sequence":9,"prices":[177,175,186,209,158,181,188,167,208,154],"times":[609,509,449,470,734],"next_num":5,"trial_type":"ticket-choose","trial_index":82,"time_elapsed":667868,"internal_node_id":"0.0-82.0"},{"result":165,"points":1,"place":2,"phase":1,"sequence":10,"prices":[171,169,186,165,163,167,220,148,187,165],"times":[454,538,534,1224],"next_num":4,"trial_type":"ticket-choose","trial_index":83,"time_elapsed":672872,"internal_node_id":"0.0-83.0"},{"result":156,"points":2,"place":1,"phase":1,"sequence":11,"prices":[180,156,149,160,168,186,172,198,176,195],"times":[469,753],"next_num":2,"trial_type":"ticket-choose","trial_index":84,"time_elapsed":676029,"internal_node_id":"0.0-84.0"},{"result":156,"points":3,"place":0,"phase":1,"sequence":12,"prices":[178,174,186,217,167,181,188,168,208,156],"times":[527,524,465,484,538,528,525,538,577,478],"next_num":10,"trial_type":"ticket-choose","trial_index":85,"time_elapsed":684694,"internal_node_id":"0.0-85.0"},{"result":166,"points":1,"place":3,"phase":1,"sequence":13,"prices":[173,163,185,181,166,148,160,185,176,184],"times":[582,537,544,509,1115],"next_num":5,"trial_type":"ticket-choose","trial_index":86,"time_elapsed":690544,"internal_node_id":"0.0-86.0"},{"result":150,"points":3,"place":0,"phase":1,"sequence":14,"prices":[190,150,175,161,188,207,157,194,178,199],"times":[642,930],"next_num":2,"trial_type":"ticket-choose","trial_index":87,"time_elapsed":694206,"internal_node_id":"0.0-87.0"},{"result":157,"points":3,"place":0,"phase":1,"sequence":15,"prices":[201,187,157,184,198,179,188,185,178,170],"times":[528,468,912],"next_num":3,"trial_type":"ticket-choose","trial_index":88,"time_elapsed":698352,"internal_node_id":"0.0-88.0"},{"result":158,"points":3,"place":0,"phase":1,"sequence":16,"prices":[214,184,226,192,215,158,199,175,176,208],"times":[516,484,667,505,612,795],"next_num":6,"trial_type":"ticket-choose","trial_index":89,"time_elapsed":704714,"internal_node_id":"0.0-89.0"},{"result":165,"points":3,"place":0,"phase":1,"sequence":17,"prices":[189,167,180,197,165,168,172,213,178,171],"times":[616,742,614,623,1022],"next_num":5,"trial_type":"ticket-choose","trial_index":90,"time_elapsed":710942,"internal_node_id":"0.0-90.0"},{"result":163,"points":2,"place":1,"phase":1,"sequence":18,"prices":[163,175,186,214,176,179,187,166,153,208],"times":[28109],"next_num":1,"trial_type":"ticket-choose","trial_index":91,"time_elapsed":740889,"internal_node_id":"0.0-91.0"},{"result":163,"points":2,"place":1,"phase":1,"sequence":19,"prices":[175,187,176,209,163,180,188,165,154,208],"times":[1167,532,563,518,801],"next_num":5,"trial_type":"ticket-choose","trial_index":92,"time_elapsed":747126,"internal_node_id":"0.0-92.0"},{"result":165,"points":2,"place":1,"phase":1,"sequence":20,"prices":[165,175,187,209,177,180,188,167,154,208],"times":[4513],"next_num":1,"trial_type":"ticket-choose","trial_index":93,"time_elapsed":753450,"internal_node_id":"0.0-93.0"},{"result":165,"points":2,"place":1,"phase":1,"sequence":21,"prices":[165,174,186,212,177,181,187,166,153,209],"times":[841],"next_num":1,"trial_type":"ticket-choose","trial_index":94,"time_elapsed":755910,"internal_node_id":"0.0-94.0"},{"result":165,"points":1,"place":2,"phase":1,"sequence":22,"prices":[199,193,169,165,202,182,151,164,176,171],"times":[1582,431,457,761],"next_num":4,"trial_type":"ticket-choose","trial_index":95,"time_elapsed":761427,"internal_node_id":"0.0-95.0"},{"result":169,"points":3,"place":0,"phase":1,"sequence":23,"prices":[220,173,201,197,169,205,198,183,178,186],"times":[4471,434,451,576,816],"next_num":5,"trial_type":"ticket-choose","trial_index":96,"time_elapsed":770765,"internal_node_id":"0.0-96.0"},{"result":165,"points":2,"place":1,"phase":1,"sequence":24,"prices":[193,174,224,165,187,190,224,161,194,195],"times":[613,507,459,976],"next_num":4,"trial_type":"ticket-choose","trial_index":97,"time_elapsed":775752,"internal_node_id":"0.0-97.0"},{"result":159,"points":1,"place":2,"phase":1,"sequence":25,"prices":[181,159,149,175,185,151,163,174,178,207],"times":[14998,795],"next_num":2,"trial_type":"ticket-choose","trial_index":98,"time_elapsed":793629,"internal_node_id":"0.0-98.0"},{"result":166,"points":1,"place":2,"phase":1,"sequence":26,"prices":[177,174,186,217,165,181,187,166,153,209],"times":[992,486,549,524,617,557,545,1102],"next_num":8,"trial_type":"ticket-choose","trial_index":99,"time_elapsed":802202,"internal_node_id":"0.0-99.0"},{"result":167,"points":2,"place":1,"phase":1,"sequence":27,"prices":[178,175,186,212,167,179,187,169,209,153],"times":[761,502,506,650,864],"next_num":5,"trial_type":"ticket-choose","trial_index":100,"time_elapsed":808087,"internal_node_id":"0.0-100.0"},{"result":158,"points":2,"place":1,"phase":1,"sequence":28,"prices":[177,175,186,221,158,180,187,166,209,153],"times":[653,857,563,512,960],"next_num":5,"trial_type":"ticket-choose","trial_index":101,"time_elapsed":814162,"internal_node_id":"0.0-101.0"},{"result":166,"points":1,"place":2,"phase":1,"sequence":29,"prices":[165,175,186,214,177,179,187,166,153,208],"times":[555,451,481,494,486,489,523,997],"next_num":8,"trial_type":"ticket-choose","trial_index":102,"time_elapsed":821852,"internal_node_id":"0.0-102.0"},{"result":163,"points":2,"place":1,"phase":1,"sequence":30,"prices":[174,186,176,217,163,181,187,166,153,209],"times":[605,469,481,501,806],"next_num":5,"trial_type":"ticket-choose","trial_index":103,"time_elapsed":827246,"internal_node_id":"0.0-103.0"},{"result":157,"points":3,"place":0,"phase":1,"sequence":31,"prices":[191,170,182,165,175,182,203,157,195,200],"times":[651,461,526,493,577,495,593,743],"next_num":8,"trial_type":"ticket-choose","trial_index":104,"time_elapsed":834943,"internal_node_id":"0.0-104.0"},{"result":152,"points":3,"place":0,"phase":1,"sequence":32,"prices":[200,180,203,152,175,170,160,154,176,191],"times":[580,522,536,777],"next_num":4,"trial_type":"ticket-choose","trial_index":105,"time_elapsed":839729,"internal_node_id":"0.0-105.0"},{"result":158,"points":2,"place":1,"phase":1,"sequence":33,"prices":[158,175,186,209,177,181,188,167,208,154],"times":[745],"next_num":1,"trial_type":"ticket-choose","trial_index":106,"time_elapsed":842174,"internal_node_id":"0.0-106.0"},{"result":165,"points":2,"place":1,"phase":1,"sequence":34,"prices":[183,179,188,165,168,173,205,159,187,191],"times":[514,460,537,860],"next_num":4,"trial_type":"ticket-choose","trial_index":107,"time_elapsed":846826,"internal_node_id":"0.0-107.0"},{"result":153,"points":2,"place":1,"phase":1,"sequence":35,"prices":[167,153,172,185,195,143,184,211,177,227],"times":[639,711],"next_num":2,"trial_type":"ticket-choose","trial_index":108,"time_elapsed":850014,"internal_node_id":"0.0-108.0"},{"result":171,"points":1,"place":3,"phase":1,"sequence":36,"prices":[196,171,170,184,187,165,211,169,201,202],"times":[463,1051],"next_num":2,"trial_type":"ticket-choose","trial_index":109,"time_elapsed":853613,"internal_node_id":"0.0-109.0"},{"result":155,"points":2,"place":1,"phase":1,"sequence":37,"prices":[200,207,155,158,156,168,167,135,178,177],"times":[707,489,708],"next_num":3,"trial_type":"ticket-choose","trial_index":110,"time_elapsed":857687,"internal_node_id":"0.0-110.0"},{"result":166,"points":1,"place":3,"phase":1,"sequence":38,"prices":[201,204,179,166,185,165,214,156,202,165],"times":[1890,759,926,693],"next_num":4,"trial_type":"ticket-choose","trial_index":111,"time_elapsed":864252,"internal_node_id":"0.0-111.0"},{"result":169,"points":2,"place":1,"phase":1,"sequence":39,"prices":[181,214,169,147,182,193,178,184,176,179],"times":[5459,516,1310],"next_num":3,"trial_type":"ticket-choose","trial_index":112,"time_elapsed":873658,"internal_node_id":"0.0-112.0"},{"result":165,"points":3,"place":0,"phase":1,"sequence":40,"prices":[193,181,175,181,185,165,224,199,218,184],"times":[731,602,659,465,481,820],"next_num":6,"trial_type":"ticket-choose","trial_index":113,"time_elapsed":880111,"internal_node_id":"0.0-113.0"},{"result":165,"points":1,"place":2,"phase":1,"sequence":41,"prices":[163,175,187,209,176,180,188,165,154,208],"times":[699,452,479,513,591,797,528,679],"next_num":8,"trial_type":"ticket-choose","trial_index":114,"time_elapsed":888121,"internal_node_id":"0.0-114.0"},{"result":153,"points":3,"place":0,"phase":1,"sequence":42,"prices":[177,175,186,210,165,179,187,166,153,208],"times":[459,533,490,515,516,467,459,614,770],"next_num":9,"trial_type":"ticket-choose","trial_index":115,"time_elapsed":896420,"internal_node_id":"0.0-115.0"},{"result":153,"points":3,"place":0,"phase":1,"sequence":43,"prices":[167,175,186,225,178,179,187,169,209,153],"times":[1362,641,465,501,481,453,477,474,762,495],"next_num":10,"trial_type":"ticket-choose","trial_index":116,"time_elapsed":906035,"internal_node_id":"0.0-116.0"},{"result":156,"points":3,"place":0,"phase":1,"sequence":44,"prices":[167,175,185,224,178,181,186,168,208,156],"times":[769,491,511,525,531,498,485,460,460,510],"next_num":10,"trial_type":"ticket-choose","trial_index":117,"time_elapsed":914927,"internal_node_id":"0.0-117.0"},{"result":167,"points":2,"place":1,"phase":1,"sequence":45,"prices":[199,191,188,174,167,193,189,164,176,170],"times":[792,564,460,484,852],"next_num":5,"trial_type":"ticket-choose","trial_index":118,"time_elapsed":920702,"internal_node_id":"0.0-118.0"},{"result":158,"points":2,"place":1,"phase":1,"sequence":46,"prices":[177,176,187,225,158,181,187,165,208,153],"times":[535,497,474,573,753],"next_num":5,"trial_type":"ticket-choose","trial_index":119,"time_elapsed":926085,"internal_node_id":"0.0-119.0"},{"result":165,"points":2,"place":1,"phase":1,"sequence":47,"prices":[187,201,165,172,196,174,178,154,172,180],"times":[476,551,1009],"next_num":3,"trial_type":"ticket-choose","trial_index":120,"time_elapsed":930201,"internal_node_id":"0.0-120.0"},{"result":165,"points":2,"place":1,"phase":1,"sequence":48,"prices":[177,175,187,209,165,180,188,165,154,208],"times":[551,495,466,491,776],"next_num":5,"trial_type":"ticket-choose","trial_index":121,"time_elapsed":935489,"internal_node_id":"0.0-121.0"},{"result":163,"points":2,"place":1,"phase":1,"sequence":49,"prices":[163,174,186,212,176,181,187,166,153,209],"times":[949],"next_num":1,"trial_type":"ticket-choose","trial_index":122,"time_elapsed":938193,"internal_node_id":"0.0-122.0"},{"responses":[{"value":1,"offby":0,"category":"$115 - $130","category_index":0},{"value":8,"offby":3,"category":"$131 - $145","category_index":1},{"value":16,"offby":4,"category":"$146 - $160","category_index":2},{"value":32,"offby":10,"category":"$161 - $175","category_index":3},{"value":25,"offby":-9,"category":"$176 - $190","category_index":4},{"value":14,"offby":-1,"category":"$191 - $205","category_index":5},{"value":4,"offby":-7,"category":"$206 - $220","category_index":6}],"phase":1,"number":1,"trial_type":"bar-choose","trial_index":123,"time_elapsed":972644,"internal_node_id":"0.0-123.0"},{"special_comment":"Nope.","trial_type":"special_sequence","trial_index":124,"time_elapsed":977905,"internal_node_id":"0.0-124.0"},{"during":"Nothing","bonus":284,"trial_type":"final","trial_index":125,"time_elapsed":1007219,"internal_node_id":"0.0-125.0"}],"bonus":284}