{"start_time":"2017-05-24 12:04:36","end_time":"2017-05-24 12:36:08","points_phase0":109,"points_phase1":111,"phase_order":0,"age":42,"gender":"f","tries":2,"during":"Nothing","worker_id":"A1LRJ4U04532TM","assignment_id":"3Z4AIRP3C761CX111V6YL8MD6X81X1","data":[{"rt":116074,"url":"\/christiane\/tickets\/utils\/consent.html","trial_type":"html","trial_index":0,"time_elapsed":116230,"internal_node_id":"0.0-0.0"},{"age":42,"gender":"f","trial_type":"age","trial_index":1,"time_elapsed":122423,"internal_node_id":"0.0-1.0"},{"worker_id":"A1LRJ4U04532TM","trial_type":"workerid","trial_index":2,"time_elapsed":129290,"internal_node_id":"0.0-2.0"},{"tries":2,"trial_type":"instructions_check","trial_index":3,"time_elapsed":158683,"internal_node_id":"0.0-3.0"},{"rt":16295,"url":"\/christiane\/tickets\/utils\/start.html","trial_type":"html","trial_index":4,"time_elapsed":176131,"internal_node_id":"0.0-4.0"},{"trial_type":"number-animation","trial_index":5,"time_elapsed":194818,"internal_node_id":"0.0-5.0"},{"phase":0,"sequence":0,"avg":181,"response":176,"trial_type":"training_avg","trial_index":6,"time_elapsed":209651,"internal_node_id":"0.0-6.0"},{"trial_type":"number-animation","trial_index":7,"time_elapsed":232064,"internal_node_id":"0.0-7.0"},{"phase":0,"sequence":1,"avg":188,"response":195,"trial_type":"training_avg","trial_index":8,"time_elapsed":242434,"internal_node_id":"0.0-8.0"},{"trial_type":"number-animation","trial_index":9,"time_elapsed":273859,"internal_node_id":"0.0-9.0"},{"phase":0,"sequence":2,"avg":188,"response":185,"trial_type":"training_avg","trial_index":10,"time_elapsed":288467,"internal_node_id":"0.0-10.0"},{"trial_type":"number-animation","trial_index":11,"time_elapsed":319201,"internal_node_id":"0.0-11.0"},{"phase":0,"sequence":3,"avg":177,"response":175,"trial_type":"training_avg","trial_index":12,"time_elapsed":329165,"internal_node_id":"0.0-12.0"},{"trial_type":"number-animation","trial_index":13,"time_elapsed":361158,"internal_node_id":"0.0-13.0"},{"phase":0,"sequence":4,"avg":182,"response":180,"trial_type":"training_avg","trial_index":14,"time_elapsed":370721,"internal_node_id":"0.0-14.0"},{"responses":[{"value":0,"offby":-1,"category":"$115 - $130","category_index":0},{"value":2,"offby":-3,"category":"$131 - $145","category_index":1},{"value":10,"offby":-2,"category":"$146 - $160","category_index":2},{"value":23,"offby":1,"category":"$161 - $175","category_index":3},{"value":50,"offby":16,"category":"$176 - $190","category_index":4},{"value":13,"offby":-2,"category":"$191 - $205","category_index":5},{"value":2,"offby":-9,"category":"$206 - $220","category_index":6}],"phase":0,"number":0,"trial_type":"bar-choose","trial_index":15,"time_elapsed":445218,"internal_node_id":"0.0-15.0"},{"rt":11917,"url":"\/christiane\/tickets\/utils\/testing.html","trial_type":"html","trial_index":16,"time_elapsed":458501,"internal_node_id":"0.0-16.0"},{"phase":0,"order":[29,40,25,0,41,33,20,1,23,4,48,38,47,31,43,18,34,26,13,35,49,30,42,36,14,45,6,17,27,24,28,8,44,22,9,21,39,10,19,15,11,3,37,16,2,12,5,32,7,46],"trial_type":"store_order","trial_index":17,"time_elapsed":459501,"internal_node_id":"0.0-17.0"},{"result":165,"points":2,"place":1,"phase":0,"sequence":-1,"prices":[184,180,224,165,181,199,185,193,218,146],"times":[2958,1261,980,1191],"next_num":4,"trial_type":"ticket-choose","trial_index":18,"time_elapsed":469223,"internal_node_id":"0.0-18.0"},{"rt":14351,"url":"\/christiane\/tickets\/utils\/testing_after.html","trial_type":"html","trial_index":19,"time_elapsed":484730,"internal_node_id":"0.0-19.0"},{"result":171,"points":1,"place":3,"phase":0,"sequence":0,"prices":[185,170,182,201,173,199,171,188,165,168],"times":[4202,1553,1137,1318,1335,1018,3592],"next_num":7,"trial_type":"ticket-choose","trial_index":20,"time_elapsed":504095,"internal_node_id":"0.0-20.0"},{"result":150,"points":3,"place":0,"phase":0,"sequence":1,"prices":[189,150,175,160,188,207,158,194,178,199],"times":[2720,1861],"next_num":2,"trial_type":"ticket-choose","trial_index":21,"time_elapsed":511686,"internal_node_id":"0.0-21.0"},{"result":165,"points":2,"place":1,"phase":0,"sequence":2,"prices":[201,165,162,166,185,214,165,202,204,179],"times":[1982,3128],"next_num":2,"trial_type":"ticket-choose","trial_index":22,"time_elapsed":519583,"internal_node_id":"0.0-22.0"},{"result":167,"points":2,"place":1,"phase":0,"sequence":3,"prices":[174,186,167,211,181,188,178,168,208,156],"times":[1870,899,3175],"next_num":3,"trial_type":"ticket-choose","trial_index":23,"time_elapsed":528441,"internal_node_id":"0.0-23.0"},{"result":155,"points":2,"place":1,"phase":0,"sequence":4,"prices":[201,207,155,158,156,165,167,135,178,177],"times":[1877,848,1530],"next_num":3,"trial_type":"ticket-choose","trial_index":24,"time_elapsed":535701,"internal_node_id":"0.0-24.0"},{"result":165,"points":3,"place":0,"phase":0,"sequence":5,"prices":[183,182,192,168,173,205,167,187,165,170],"times":[1202,654,808,1495,949,1019,2310,1065,1503],"next_num":9,"trial_type":"ticket-choose","trial_index":25,"time_elapsed":550625,"internal_node_id":"0.0-25.0"},{"result":158,"points":2,"place":1,"phase":0,"sequence":6,"prices":[176,187,158,210,181,187,177,165,208,153],"times":[2035,799,1521],"next_num":3,"trial_type":"ticket-choose","trial_index":26,"time_elapsed":557603,"internal_node_id":"0.0-26.0"},{"result":168,"points":1,"place":2,"phase":0,"sequence":7,"prices":[175,185,167,224,181,186,178,168,208,156],"times":[1918,710,1261,792,1339,933,956,1170],"next_num":8,"trial_type":"ticket-choose","trial_index":27,"time_elapsed":570943,"internal_node_id":"0.0-27.0"},{"result":158,"points":2,"place":1,"phase":0,"sequence":8,"prices":[176,187,177,225,181,187,158,165,208,153],"times":[2077,702,805,955,697,791,1349],"next_num":7,"trial_type":"ticket-choose","trial_index":28,"time_elapsed":582278,"internal_node_id":"0.0-28.0"},{"result":156,"points":3,"place":0,"phase":0,"sequence":9,"prices":[175,185,178,215,181,186,167,168,208,156],"times":[1955,637,690,720,1062,1039,2504,1135,1065,1317],"next_num":10,"trial_type":"ticket-choose","trial_index":29,"time_elapsed":598600,"internal_node_id":"0.0-29.0"},{"result":147,"points":3,"place":0,"phase":0,"sequence":10,"prices":[181,215,169,147,182,193,177,184,176,179],"times":[1438,902,703,1722],"next_num":4,"trial_type":"ticket-choose","trial_index":30,"time_elapsed":606429,"internal_node_id":"0.0-30.0"},{"result":166,"points":2,"place":1,"phase":0,"sequence":11,"prices":[168,199,196,198,185,195,227,163,177,166],"times":[1474,729,877,767,827,785,914,1878,1149,1082],"next_num":10,"trial_type":"ticket-choose","trial_index":31,"time_elapsed":621067,"internal_node_id":"0.0-31.0"},{"result":152,"points":3,"place":0,"phase":0,"sequence":12,"prices":[200,181,203,152,175,171,160,154,176,191],"times":[1361,1187,699,1308],"next_num":4,"trial_type":"ticket-choose","trial_index":32,"time_elapsed":628877,"internal_node_id":"0.0-32.0"},{"result":165,"points":3,"place":0,"phase":0,"sequence":13,"prices":[171,203,175,170,167,220,192,186,165,165],"times":[1132,781,1292,1004,1056,1279,1097,1120,1370],"next_num":9,"trial_type":"ticket-choose","trial_index":33,"time_elapsed":643265,"internal_node_id":"0.0-33.0"},{"result":157,"points":3,"place":0,"phase":0,"sequence":14,"prices":[201,187,157,184,198,179,188,185,178,170],"times":[2818,2662,2202],"next_num":3,"trial_type":"ticket-choose","trial_index":34,"time_elapsed":654121,"internal_node_id":"0.0-34.0"},{"result":158,"points":2,"place":1,"phase":0,"sequence":15,"prices":[175,186,158,211,180,187,177,166,209,153],"times":[1649,732,1929],"next_num":3,"trial_type":"ticket-choose","trial_index":35,"time_elapsed":661172,"internal_node_id":"0.0-35.0"},{"result":148,"points":3,"place":0,"phase":0,"sequence":16,"prices":[181,155,148,161,168,187,172,199,176,194],"times":[1276,584,1363],"next_num":3,"trial_type":"ticket-choose","trial_index":36,"time_elapsed":666933,"internal_node_id":"0.0-36.0"},{"result":161,"points":3,"place":0,"phase":0,"sequence":17,"prices":[200,165,165,173,182,207,161,202,204,180],"times":[1297,803,855,836,931,792,1474],"next_num":7,"trial_type":"ticket-choose","trial_index":37,"time_elapsed":677426,"internal_node_id":"0.0-37.0"},{"result":165,"points":1,"place":2,"phase":0,"sequence":18,"prices":[175,187,163,209,180,188,176,165,154,208],"times":[1721,1064,2137,1203,1290,830,1246,1524],"next_num":8,"trial_type":"ticket-choose","trial_index":38,"time_elapsed":692121,"internal_node_id":"0.0-38.0"},{"result":154,"points":2,"place":1,"phase":0,"sequence":19,"prices":[168,154,172,185,195,144,184,211,177,227],"times":[1541,2124],"next_num":2,"trial_type":"ticket-choose","trial_index":39,"time_elapsed":698336,"internal_node_id":"0.0-39.0"},{"result":148,"points":3,"place":0,"phase":0,"sequence":20,"prices":[183,163,185,180,166,148,160,186,176,184],"times":[1756,1168,775,743,845,1285],"next_num":6,"trial_type":"ticket-choose","trial_index":40,"time_elapsed":708526,"internal_node_id":"0.0-40.0"},{"result":165,"points":3,"place":0,"phase":0,"sequence":21,"prices":[191,172,169,175,182,203,170,195,165,176],"times":[1214,757,1703,829,743,1366,947,980,1456],"next_num":9,"trial_type":"ticket-choose","trial_index":41,"time_elapsed":722498,"internal_node_id":"0.0-41.0"},{"result":143,"points":3,"place":0,"phase":0,"sequence":22,"prices":[222,173,202,197,143,205,198,183,178,186],"times":[3135,901,1110,966,1284],"next_num":5,"trial_type":"ticket-choose","trial_index":42,"time_elapsed":733127,"internal_node_id":"0.0-42.0"},{"result":154,"points":3,"place":0,"phase":0,"sequence":23,"prices":[188,200,165,172,198,174,177,154,177,180],"times":[1441,1286,1261,830,1205,1078,947,1370],"next_num":8,"trial_type":"ticket-choose","trial_index":43,"time_elapsed":746551,"internal_node_id":"0.0-43.0"},{"result":153,"points":3,"place":0,"phase":0,"sequence":24,"prices":[174,186,163,212,181,187,176,166,153,209],"times":[1430,820,1025,743,1217,987,1098,1958,1302],"next_num":9,"trial_type":"ticket-choose","trial_index":44,"time_elapsed":761026,"internal_node_id":"0.0-44.0"},{"result":164,"points":3,"place":0,"phase":0,"sequence":25,"prices":[212,192,188,184,167,193,189,164,176,170],"times":[1692,955,672,765,1065,1247,2449,3066],"next_num":8,"trial_type":"ticket-choose","trial_index":45,"time_elapsed":776889,"internal_node_id":"0.0-45.0"},{"result":153,"points":3,"place":0,"phase":0,"sequence":26,"prices":[175,186,165,214,179,187,177,166,153,208],"times":[1222,1409,1139,804,1363,950,837,1868,1372],"next_num":9,"trial_type":"ticket-choose","trial_index":46,"time_elapsed":791658,"internal_node_id":"0.0-46.0"},{"result":163,"points":2,"place":1,"phase":0,"sequence":27,"prices":[174,186,176,217,181,187,163,166,153,209],"times":[1233,1718,1390,696,821,994,1223],"next_num":7,"trial_type":"ticket-choose","trial_index":47,"time_elapsed":804435,"internal_node_id":"0.0-47.0"},{"result":186,"points":1,"place":4,"phase":0,"sequence":28,"prices":[192,165,171,178,188,217,172,195,197,186],"times":[1135,1032,760,884,895,901,954,893,1378,1280],"next_num":10,"trial_type":"ticket-choose","trial_index":48,"time_elapsed":819345,"internal_node_id":"0.0-48.0"},{"result":184,"points":1,"place":4,"phase":0,"sequence":29,"prices":[193,165,175,181,185,224,180,199,218,184],"times":[1535,1253,784,892,861,853,800,830,954,1158],"next_num":10,"trial_type":"ticket-choose","trial_index":49,"time_elapsed":834131,"internal_node_id":"0.0-49.0"},{"result":185,"points":1,"place":4,"phase":0,"sequence":30,"prices":[196,165,170,184,187,211,171,201,202,185],"times":[1402,1015,891,1429,850,783,824,971,918,1201],"next_num":10,"trial_type":"ticket-choose","trial_index":50,"time_elapsed":848691,"internal_node_id":"0.0-50.0"},{"result":165,"points":2,"place":1,"phase":0,"sequence":31,"prices":[174,186,165,212,181,187,177,167,153,209],"times":[1675,895,1345],"next_num":3,"trial_type":"ticket-choose","trial_index":51,"time_elapsed":855272,"internal_node_id":"0.0-51.0"},{"result":159,"points":1,"place":2,"phase":0,"sequence":32,"prices":[180,159,149,175,185,141,163,174,178,207],"times":[1144,1397],"next_num":2,"trial_type":"ticket-choose","trial_index":52,"time_elapsed":860491,"internal_node_id":"0.0-52.0"},{"result":158,"points":2,"place":1,"phase":0,"sequence":33,"prices":[175,186,177,209,181,188,158,167,208,154],"times":[1185,732,1238,772,816,1087,1195],"next_num":7,"trial_type":"ticket-choose","trial_index":53,"time_elapsed":871013,"internal_node_id":"0.0-53.0"},{"result":165,"points":2,"place":1,"phase":0,"sequence":34,"prices":[175,186,177,210,179,187,165,166,153,208],"times":[1345,656,720,2453,892,1301,1693],"next_num":7,"trial_type":"ticket-choose","trial_index":54,"time_elapsed":884388,"internal_node_id":"0.0-54.0"},{"result":158,"points":2,"place":1,"phase":0,"sequence":35,"prices":[175,186,177,221,180,187,158,166,209,153],"times":[1160,695,1143,1120,861,1133,1185],"next_num":7,"trial_type":"ticket-choose","trial_index":55,"time_elapsed":894988,"internal_node_id":"0.0-55.0"},{"result":171,"points":1,"place":3,"phase":0,"sequence":36,"prices":[189,167,180,197,165,168,172,213,178,171],"times":[1075,1082,1456,865,2157,1125,869,821,2285,913],"next_num":10,"trial_type":"ticket-choose","trial_index":56,"time_elapsed":912248,"internal_node_id":"0.0-56.0"},{"result":165,"points":2,"place":1,"phase":0,"sequence":37,"prices":[175,187,177,209,180,188,165,165,154,208],"times":[1751,1334,1199,822,1033,938,1043],"next_num":7,"trial_type":"ticket-choose","trial_index":57,"time_elapsed":924192,"internal_node_id":"0.0-57.0"},{"result":158,"points":2,"place":1,"phase":0,"sequence":38,"prices":[175,186,158,209,181,188,177,167,208,154],"times":[1125,823,1521],"next_num":3,"trial_type":"ticket-choose","trial_index":58,"time_elapsed":930178,"internal_node_id":"0.0-58.0"},{"result":163,"points":2,"place":1,"phase":0,"sequence":39,"prices":[175,186,176,210,179,187,163,166,153,208],"times":[1063,853,689,1082,973,817,1761],"next_num":7,"trial_type":"ticket-choose","trial_index":59,"time_elapsed":941278,"internal_node_id":"0.0-59.0"},{"result":165,"points":2,"place":1,"phase":0,"sequence":40,"prices":[174,186,177,217,181,187,165,166,153,209],"times":[3171,743,1449,759,588,639,1587],"next_num":7,"trial_type":"ticket-choose","trial_index":60,"time_elapsed":953573,"internal_node_id":"0.0-60.0"},{"result":167,"points":2,"place":1,"phase":0,"sequence":41,"prices":[174,186,178,217,181,188,167,168,208,156],"times":[1448,1281,657,744,723,789,1333],"next_num":7,"trial_type":"ticket-choose","trial_index":61,"time_elapsed":965198,"internal_node_id":"0.0-61.0"},{"result":152,"points":3,"place":0,"phase":0,"sequence":42,"prices":[198,193,169,163,202,182,152,164,177,171],"times":[1738,751,720,713,935,660,1900],"next_num":7,"trial_type":"ticket-choose","trial_index":62,"time_elapsed":976163,"internal_node_id":"0.0-62.0"},{"result":163,"points":2,"place":1,"phase":0,"sequence":43,"prices":[175,187,176,209,180,188,163,165,154,208],"times":[1360,1070,903,765,917,1302,1776],"next_num":7,"trial_type":"ticket-choose","trial_index":63,"time_elapsed":987811,"internal_node_id":"0.0-63.0"},{"result":169,"points":1,"place":2,"phase":0,"sequence":44,"prices":[175,186,167,225,179,187,178,169,209,153],"times":[1156,822,1317,799,806,1048,967,1267],"next_num":8,"trial_type":"ticket-choose","trial_index":64,"time_elapsed":999830,"internal_node_id":"0.0-64.0"},{"result":166,"points":1,"place":2,"phase":0,"sequence":45,"prices":[175,186,163,214,179,187,176,166,153,208],"times":[1383,1319,634,1028,1024,669,812,987],"next_num":8,"trial_type":"ticket-choose","trial_index":65,"time_elapsed":1011882,"internal_node_id":"0.0-65.0"},{"result":153,"points":3,"place":0,"phase":0,"sequence":46,"prices":[175,186,178,212,179,187,167,169,209,153],"times":[908,744,847,782,657,932,1066,1066,1005,1121],"next_num":10,"trial_type":"ticket-choose","trial_index":66,"time_elapsed":1025339,"internal_node_id":"0.0-66.0"},{"result":165,"points":3,"place":0,"phase":0,"sequence":47,"prices":[193,169,171,187,190,224,174,194,165,188],"times":[1550,1007,1033,1250,622,885,852,914,1484],"next_num":9,"trial_type":"ticket-choose","trial_index":67,"time_elapsed":1038697,"internal_node_id":"0.0-67.0"},{"result":166,"points":1,"place":2,"phase":0,"sequence":48,"prices":[175,187,165,209,180,188,177,166,154,208],"times":[1220,767,931,816,955,925,1444,2228],"next_num":8,"trial_type":"ticket-choose","trial_index":68,"time_elapsed":1052126,"internal_node_id":"0.0-68.0"},{"result":158,"points":3,"place":0,"phase":0,"sequence":49,"prices":[210,184,226,193,215,158,199,175,176,208],"times":[1040,633,1145,964,1059,1434],"next_num":6,"trial_type":"ticket-choose","trial_index":69,"time_elapsed":1061949,"internal_node_id":"0.0-69.0"},{"responses":[{"value":0,"offby":-1,"category":"$115 - $130","category_index":0},{"value":4,"offby":-1,"category":"$131 - $145","category_index":1},{"value":15,"offby":3,"category":"$146 - $160","category_index":2},{"value":25,"offby":3,"category":"$161 - $175","category_index":3},{"value":30,"offby":-4,"category":"$176 - $190","category_index":4},{"value":16,"offby":1,"category":"$191 - $205","category_index":5},{"value":10,"offby":-1,"category":"$206 - $220","category_index":6}],"phase":1,"number":1,"trial_type":"bar-choose","trial_index":70,"time_elapsed":1147263,"internal_node_id":"0.0-70.0"},{"rt":30315,"url":"\/christiane\/tickets\/utils\/testing2.html","trial_type":"point_update","trial_index":71,"time_elapsed":1178867,"internal_node_id":"0.0-71.0"},{"phase":1,"order":[21,29,33,0,10,16,3,38,17,36,9,43,2,18,48,26,6,8,27,13,12,30,19,49,45,37,39,42,25,46,34,5,28,15,20,40,22,1,31,35,7,24,4,47,41,23,11,32,44,14],"trial_type":"store_order","trial_index":72,"time_elapsed":1179868,"internal_node_id":"0.0-72.0"},{"result":158,"points":2,"place":1,"phase":1,"sequence":0,"prices":[177,175,186,221,158,180,187,166,209,153],"times":[2647,957,862,837,1434],"next_num":5,"trial_type":"ticket-choose","trial_index":73,"time_elapsed":1190104,"internal_node_id":"0.0-73.0"},{"result":150,"points":3,"place":0,"phase":1,"sequence":1,"prices":[185,179,191,165,161,173,199,150,188,168],"times":[1387,1065,1112,813,1199,781,854,1059],"next_num":8,"trial_type":"ticket-choose","trial_index":74,"time_elapsed":1203299,"internal_node_id":"0.0-74.0"},{"result":159,"points":3,"place":0,"phase":1,"sequence":2,"prices":[183,179,188,165,168,173,205,159,187,191],"times":[1197,785,1096,900,845,1074,846,1517],"next_num":8,"trial_type":"ticket-choose","trial_index":75,"time_elapsed":1215283,"internal_node_id":"0.0-75.0"},{"result":156,"points":3,"place":0,"phase":1,"sequence":3,"prices":[167,174,186,211,178,181,188,168,208,156],"times":[1303,775,1243,893,1466,1121,1024,1397,867,1028],"next_num":10,"trial_type":"ticket-choose","trial_index":76,"time_elapsed":1231052,"internal_node_id":"0.0-76.0"},{"result":165,"points":2,"place":1,"phase":1,"sequence":4,"prices":[177,175,187,209,165,180,188,165,154,208],"times":[1506,1202,906,963,1481,681,741,1177],"next_num":8,"trial_type":"ticket-choose","trial_index":77,"time_elapsed":1243900,"internal_node_id":"0.0-77.0"},{"result":163,"points":2,"place":1,"phase":1,"sequence":5,"prices":[176,187,179,209,163,180,188,165,154,208],"times":[2128,5693,845,1166,2693],"next_num":5,"trial_type":"ticket-choose","trial_index":78,"time_elapsed":1259860,"internal_node_id":"0.0-78.0"},{"result":156,"points":3,"place":0,"phase":1,"sequence":6,"prices":[178,174,186,217,167,181,188,168,208,156],"times":[1257,1490,1009,935,2347,798,1017,1052,750,1539],"next_num":10,"trial_type":"ticket-choose","trial_index":79,"time_elapsed":1276277,"internal_node_id":"0.0-79.0"},{"result":163,"points":3,"place":0,"phase":1,"sequence":7,"prices":[163,199,196,199,185,195,227,163,177,166],"times":[1575,912,930,926,931,933,994,1821],"next_num":8,"trial_type":"ticket-choose","trial_index":80,"time_elapsed":1290058,"internal_node_id":"0.0-80.0"},{"result":153,"points":3,"place":0,"phase":1,"sequence":8,"prices":[176,186,178,217,163,181,187,166,153,209],"times":[979,4415,878,796,2602,916,751,1877,1270],"next_num":9,"trial_type":"ticket-choose","trial_index":81,"time_elapsed":1308374,"internal_node_id":"0.0-81.0"},{"result":154,"points":3,"place":0,"phase":1,"sequence":9,"prices":[187,201,165,172,196,174,178,154,172,180],"times":[1509,733,1435,1641,820,759,1027,1035],"next_num":8,"trial_type":"ticket-choose","trial_index":82,"time_elapsed":1320929,"internal_node_id":"0.0-82.0"},{"result":153,"points":3,"place":0,"phase":1,"sequence":10,"prices":[177,175,186,210,165,179,187,166,153,208],"times":[1851,867,838,816,2299,722,791,2052,1174],"next_num":9,"trial_type":"ticket-choose","trial_index":83,"time_elapsed":1337172,"internal_node_id":"0.0-83.0"},{"result":157,"points":3,"place":0,"phase":1,"sequence":11,"prices":[201,187,157,184,198,179,188,185,178,170],"times":[1160,830,1922],"next_num":3,"trial_type":"ticket-choose","trial_index":84,"time_elapsed":1343936,"internal_node_id":"0.0-84.0"},{"result":153,"points":3,"place":0,"phase":1,"sequence":12,"prices":[167,175,186,225,178,179,187,169,209,153],"times":[1473,703,891,1691,754,963,1099,2363,831,1132],"next_num":10,"trial_type":"ticket-choose","trial_index":85,"time_elapsed":1360833,"internal_node_id":"0.0-85.0"},{"result":158,"points":2,"place":1,"phase":1,"sequence":13,"prices":[158,175,186,211,177,180,187,166,209,153],"times":[2918],"next_num":1,"trial_type":"ticket-choose","trial_index":86,"time_elapsed":1366240,"internal_node_id":"0.0-86.0"},{"result":147,"points":3,"place":0,"phase":1,"sequence":14,"prices":[181,214,169,147,182,193,178,184,176,179],"times":[1086,625,896,1211],"next_num":4,"trial_type":"ticket-choose","trial_index":87,"time_elapsed":1372692,"internal_node_id":"0.0-87.0"},{"result":152,"points":3,"place":0,"phase":1,"sequence":15,"prices":[200,173,182,169,207,165,152,202,161,204],"times":[974,1230,775,1051,719,1844,1359],"next_num":7,"trial_type":"ticket-choose","trial_index":88,"time_elapsed":1384805,"internal_node_id":"0.0-88.0"},{"result":153,"points":3,"place":0,"phase":1,"sequence":16,"prices":[165,175,186,214,177,179,187,166,153,208],"times":[1802,987,861,996,760,832,1725,3457,1376],"next_num":9,"trial_type":"ticket-choose","trial_index":89,"time_elapsed":1402238,"internal_node_id":"0.0-89.0"},{"result":166,"points":1,"place":2,"phase":1,"sequence":17,"prices":[165,174,186,212,177,181,187,166,153,209],"times":[906,663,975,808,688,832,713,1773],"next_num":8,"trial_type":"ticket-choose","trial_index":90,"time_elapsed":1413684,"internal_node_id":"0.0-90.0"},{"result":197,"points":0,"place":8,"phase":1,"sequence":18,"prices":[192,172,171,178,188,165,217,168,195,197],"times":[1909,814,487,519,512,697,662,519,681,2278],"next_num":10,"trial_type":"ticket-choose","trial_index":91,"time_elapsed":1426898,"internal_node_id":"0.0-91.0"},{"result":165,"points":1,"place":2,"phase":1,"sequence":19,"prices":[163,175,187,209,176,180,188,165,154,208],"times":[1697,509,505,558,585,1774,879,1666],"next_num":8,"trial_type":"ticket-choose","trial_index":92,"time_elapsed":1438671,"internal_node_id":"0.0-92.0"},{"result":166,"points":1,"place":2,"phase":1,"sequence":20,"prices":[163,175,186,214,176,179,187,166,153,208],"times":[1694,573,520,648,592,1267,583,2302],"next_num":8,"trial_type":"ticket-choose","trial_index":93,"time_elapsed":1450391,"internal_node_id":"0.0-93.0"},{"result":191,"points":0,"place":6,"phase":1,"sequence":21,"prices":[191,170,182,165,175,182,203,157,195,200],"times":[2067],"next_num":1,"trial_type":"ticket-choose","trial_index":94,"time_elapsed":1455959,"internal_node_id":"0.0-94.0"},{"result":158,"points":2,"place":1,"phase":1,"sequence":22,"prices":[158,175,186,209,177,181,188,167,208,154],"times":[2776],"next_num":1,"trial_type":"ticket-choose","trial_index":95,"time_elapsed":1461059,"internal_node_id":"0.0-95.0"},{"result":148,"points":3,"place":0,"phase":1,"sequence":23,"prices":[173,163,185,181,166,148,160,185,176,184],"times":[1322,1135,852,751,743,1637],"next_num":6,"trial_type":"ticket-choose","trial_index":96,"time_elapsed":1470652,"internal_node_id":"0.0-96.0"},{"result":164,"points":3,"place":0,"phase":1,"sequence":24,"prices":[199,191,188,174,167,193,189,164,176,170],"times":[1837,692,909,1761,552,782,712,1193],"next_num":8,"trial_type":"ticket-choose","trial_index":97,"time_elapsed":1482701,"internal_node_id":"0.0-97.0"},{"result":151,"points":3,"place":0,"phase":1,"sequence":25,"prices":[199,193,169,165,202,182,151,164,176,171],"times":[1162,742,1191,1641,774,1004,1561],"next_num":7,"trial_type":"ticket-choose","trial_index":98,"time_elapsed":1494395,"internal_node_id":"0.0-98.0"},{"result":171,"points":1,"place":3,"phase":1,"sequence":26,"prices":[189,167,180,197,165,168,172,213,178,171],"times":[2014,999,805,815,1263,1043,1306,918,1042,1337],"next_num":10,"trial_type":"ticket-choose","trial_index":99,"time_elapsed":1510653,"internal_node_id":"0.0-99.0"},{"result":186,"points":1,"place":4,"phase":1,"sequence":27,"prices":[220,173,201,197,169,205,198,183,178,186],"times":[1631,831,800,781,1625,790,741,911,911,1090],"next_num":10,"trial_type":"ticket-choose","trial_index":100,"time_elapsed":1525190,"internal_node_id":"0.0-100.0"},{"result":166,"points":1,"place":3,"phase":1,"sequence":28,"prices":[201,204,179,166,185,165,214,156,202,165],"times":[1162,643,2120,2385],"next_num":4,"trial_type":"ticket-choose","trial_index":101,"time_elapsed":1534333,"internal_node_id":"0.0-101.0"},{"result":158,"points":3,"place":0,"phase":1,"sequence":29,"prices":[214,184,226,192,215,158,199,175,176,208],"times":[1723,869,876,1569,768,1143],"next_num":6,"trial_type":"ticket-choose","trial_index":102,"time_elapsed":1544258,"internal_node_id":"0.0-102.0"},{"result":156,"points":2,"place":1,"phase":1,"sequence":30,"prices":[180,156,149,160,168,186,172,198,176,195],"times":[1259,1324],"next_num":2,"trial_type":"ticket-choose","trial_index":103,"time_elapsed":1549089,"internal_node_id":"0.0-103.0"},{"result":153,"points":3,"place":0,"phase":1,"sequence":31,"prices":[178,175,186,212,167,179,187,169,209,153],"times":[982,966,693,759,1847,796,946,1548,960,1127],"next_num":10,"trial_type":"ticket-choose","trial_index":104,"time_elapsed":1564034,"internal_node_id":"0.0-104.0"},{"result":165,"points":3,"place":0,"phase":1,"sequence":32,"prices":[196,171,170,184,187,165,211,169,201,202],"times":[1058,956,1459,901,883,2277],"next_num":6,"trial_type":"ticket-choose","trial_index":105,"time_elapsed":1574730,"internal_node_id":"0.0-105.0"},{"result":163,"points":2,"place":1,"phase":1,"sequence":33,"prices":[176,175,186,210,163,179,187,166,153,208],"times":[1379,870,1282,770,1175],"next_num":5,"trial_type":"ticket-choose","trial_index":106,"time_elapsed":1583180,"internal_node_id":"0.0-106.0"},{"result":158,"points":2,"place":1,"phase":1,"sequence":34,"prices":[158,176,187,210,177,181,187,165,208,153],"times":[1302],"next_num":1,"trial_type":"ticket-choose","trial_index":107,"time_elapsed":1586701,"internal_node_id":"0.0-107.0"},{"result":150,"points":3,"place":0,"phase":1,"sequence":35,"prices":[190,150,175,161,188,207,157,194,178,199],"times":[892,1143],"next_num":2,"trial_type":"ticket-choose","trial_index":108,"time_elapsed":1590965,"internal_node_id":"0.0-108.0"},{"result":158,"points":2,"place":1,"phase":1,"sequence":36,"prices":[177,175,186,209,158,181,188,167,208,154],"times":[859,663,703,1118,1920],"next_num":5,"trial_type":"ticket-choose","trial_index":109,"time_elapsed":1599325,"internal_node_id":"0.0-109.0"},{"result":168,"points":1,"place":2,"phase":1,"sequence":37,"prices":[167,175,185,224,178,181,186,168,208,156],"times":[1060,696,656,1256,766,853,995,1963],"next_num":8,"trial_type":"ticket-choose","trial_index":110,"time_elapsed":1611116,"internal_node_id":"0.0-110.0"},{"result":148,"points":3,"place":0,"phase":1,"sequence":38,"prices":[171,169,186,165,163,167,220,148,187,165],"times":[1328,923,894,695,790,854,869,1192],"next_num":8,"trial_type":"ticket-choose","trial_index":111,"time_elapsed":1622421,"internal_node_id":"0.0-111.0"},{"result":143,"points":3,"place":0,"phase":1,"sequence":39,"prices":[167,153,172,185,195,143,184,211,177,227],"times":[1126,892,735,2207,1147,1317],"next_num":6,"trial_type":"ticket-choose","trial_index":112,"time_elapsed":1633393,"internal_node_id":"0.0-112.0"},{"result":154,"points":3,"place":0,"phase":1,"sequence":40,"prices":[165,175,187,209,177,180,188,167,154,208],"times":[1497,808,947,1174,997,971,1352,1881,1138],"next_num":9,"trial_type":"ticket-choose","trial_index":113,"time_elapsed":1648816,"internal_node_id":"0.0-113.0"},{"result":184,"points":1,"place":4,"phase":1,"sequence":41,"prices":[193,181,175,181,185,165,224,199,218,184],"times":[5512,2829,759,932,711,2063,689,838,1333,1072],"next_num":10,"trial_type":"ticket-choose","trial_index":114,"time_elapsed":1669717,"internal_node_id":"0.0-114.0"},{"result":167,"points":2,"place":1,"phase":1,"sequence":42,"prices":[178,175,185,215,167,181,186,168,208,156],"times":[1132,698,717,758,1360],"next_num":5,"trial_type":"ticket-choose","trial_index":115,"time_elapsed":1677786,"internal_node_id":"0.0-115.0"},{"result":154,"points":2,"place":1,"phase":1,"sequence":43,"prices":[200,180,203,152,175,170,160,154,176,191],"times":[1866,930,3372,1154,1034,626,868,1436],"next_num":8,"trial_type":"ticket-choose","trial_index":116,"time_elapsed":1692865,"internal_node_id":"0.0-116.0"},{"result":155,"points":2,"place":1,"phase":1,"sequence":44,"prices":[200,207,155,158,156,168,167,135,178,177],"times":[1383,853,1568],"next_num":3,"trial_type":"ticket-choose","trial_index":117,"time_elapsed":1699253,"internal_node_id":"0.0-117.0"},{"result":158,"points":2,"place":1,"phase":1,"sequence":45,"prices":[177,176,187,225,158,181,187,165,208,153],"times":[1377,1018,1397,894,1222],"next_num":5,"trial_type":"ticket-choose","trial_index":118,"time_elapsed":1708385,"internal_node_id":"0.0-118.0"},{"result":153,"points":3,"place":0,"phase":1,"sequence":46,"prices":[177,174,186,217,165,181,187,166,153,209],"times":[1438,786,704,734,1065,843,1049,1679,1209],"next_num":9,"trial_type":"ticket-choose","trial_index":119,"time_elapsed":1722009,"internal_node_id":"0.0-119.0"},{"result":161,"points":3,"place":0,"phase":1,"sequence":47,"prices":[193,174,224,165,187,190,224,161,194,195],"times":[5242,875,1483,1898,1214,782,737,1746],"next_num":8,"trial_type":"ticket-choose","trial_index":120,"time_elapsed":1739543,"internal_node_id":"0.0-120.0"},{"result":159,"points":1,"place":2,"phase":1,"sequence":48,"prices":[181,159,149,175,185,151,163,174,178,207],"times":[1842,1247],"next_num":2,"trial_type":"ticket-choose","trial_index":121,"time_elapsed":1744994,"internal_node_id":"0.0-121.0"},{"result":166,"points":1,"place":2,"phase":1,"sequence":49,"prices":[163,174,186,212,176,181,187,166,153,209],"times":[1203,712,744,891,624,767,704,1090],"next_num":8,"trial_type":"ticket-choose","trial_index":122,"time_elapsed":1755769,"internal_node_id":"0.0-122.0"},{"responses":[{"value":0,"offby":-1,"category":"$115 - $130","category_index":0},{"value":5,"offby":0,"category":"$131 - $145","category_index":1},{"value":24,"offby":12,"category":"$146 - $160","category_index":2},{"value":25,"offby":3,"category":"$161 - $175","category_index":3},{"value":28,"offby":-6,"category":"$176 - $190","category_index":4},{"value":10,"offby":-5,"category":"$191 - $205","category_index":5},{"value":8,"offby":-3,"category":"$206 - $220","category_index":6}],"phase":1,"number":1,"trial_type":"bar-choose","trial_index":123,"time_elapsed":1840788,"internal_node_id":"0.0-123.0"},{"special_comment":"No, but I sure did try to figure it out.","trial_type":"special_sequence","trial_index":124,"time_elapsed":1860946,"internal_node_id":"0.0-124.0"},{"during":"Nothing","bonus":292,"trial_type":"final","trial_index":125,"time_elapsed":1888690,"internal_node_id":"0.0-125.0"}],"bonus":292}