{"start_time":"2017-05-24 15:34:35","end_time":"2017-05-24 16:00:44","points_phase0":101,"points_phase1":101,"phase_order":0,"age":45,"gender":"f","tries":1,"during":"Nothing","worker_id":"A1LRVMS6IUA63","assignment_id":"3NKQQ8O39ZY3NONICJF623OI1DBUDB","data":[{"rt":17415,"url":"\/christiane\/tickets\/utils\/consent.html","trial_type":"html","trial_index":0,"time_elapsed":17727,"internal_node_id":"0.0-0.0"},{"age":45,"gender":"f","trial_type":"age","trial_index":1,"time_elapsed":26396,"internal_node_id":"0.0-1.0"},{"worker_id":"A1LRVMS6IUA63","trial_type":"workerid","trial_index":2,"time_elapsed":39732,"internal_node_id":"0.0-2.0"},{"tries":1,"trial_type":"instructions_check","trial_index":3,"time_elapsed":68228,"internal_node_id":"0.0-3.0"},{"rt":15647,"url":"\/christiane\/tickets\/utils\/start.html","trial_type":"html","trial_index":4,"time_elapsed":85036,"internal_node_id":"0.0-4.0"},{"trial_type":"number-animation","trial_index":5,"time_elapsed":107713,"internal_node_id":"0.0-5.0"},{"phase":0,"sequence":0,"avg":181,"response":165,"trial_type":"training_avg","trial_index":6,"time_elapsed":118508,"internal_node_id":"0.0-6.0"},{"trial_type":"number-animation","trial_index":7,"time_elapsed":137393,"internal_node_id":"0.0-7.0"},{"phase":0,"sequence":1,"avg":188,"response":180,"trial_type":"training_avg","trial_index":8,"time_elapsed":146407,"internal_node_id":"0.0-8.0"},{"trial_type":"number-animation","trial_index":9,"time_elapsed":180350,"internal_node_id":"0.0-9.0"},{"phase":0,"sequence":2,"avg":188,"response":192,"trial_type":"training_avg","trial_index":10,"time_elapsed":192805,"internal_node_id":"0.0-10.0"},{"trial_type":"number-animation","trial_index":11,"time_elapsed":229565,"internal_node_id":"0.0-11.0"},{"phase":0,"sequence":3,"avg":177,"response":164,"trial_type":"training_avg","trial_index":12,"time_elapsed":237746,"internal_node_id":"0.0-12.0"},{"trial_type":"number-animation","trial_index":13,"time_elapsed":266562,"internal_node_id":"0.0-13.0"},{"phase":0,"sequence":4,"avg":182,"response":178,"trial_type":"training_avg","trial_index":14,"time_elapsed":277867,"internal_node_id":"0.0-14.0"},{"responses":[{"value":5,"offby":4,"category":"$115 - $130","category_index":0},{"value":5,"offby":0,"category":"$131 - $145","category_index":1},{"value":12,"offby":0,"category":"$146 - $160","category_index":2},{"value":22,"offby":0,"category":"$161 - $175","category_index":3},{"value":22,"offby":-12,"category":"$176 - $190","category_index":4},{"value":22,"offby":7,"category":"$191 - $205","category_index":5},{"value":12,"offby":1,"category":"$206 - $220","category_index":6}],"phase":0,"number":0,"trial_type":"bar-choose","trial_index":15,"time_elapsed":375678,"internal_node_id":"0.0-15.0"},{"rt":17681,"url":"\/christiane\/tickets\/utils\/testing.html","trial_type":"html","trial_index":16,"time_elapsed":394578,"internal_node_id":"0.0-16.0"},{"phase":0,"order":[41,27,32,11,31,42,39,45,4,29,9,26,34,37,3,47,12,13,7,6,14,28,38,5,18,48,24,25,8,21,46,10,35,33,23,44,40,43,17,36,15,30,16,2,20,22,0,19,1,49],"trial_type":"store_order","trial_index":17,"time_elapsed":395581,"internal_node_id":"0.0-17.0"},{"result":146,"points":3,"place":0,"phase":0,"sequence":-1,"prices":[184,180,224,165,181,199,185,193,218,146],"times":[5824,1391,1067,1792,1096,1091,1940,1393,1411,2099],"next_num":10,"trial_type":"ticket-choose","trial_index":18,"time_elapsed":421168,"internal_node_id":"0.0-18.0"},{"rt":41697,"url":"\/christiane\/tickets\/utils\/testing_after.html","trial_type":"html","trial_index":19,"time_elapsed":464086,"internal_node_id":"0.0-19.0"},{"result":155,"points":2,"place":1,"phase":0,"sequence":0,"prices":[201,207,155,158,156,165,167,135,178,177],"times":[3111,1259,2098],"next_num":3,"trial_type":"ticket-choose","trial_index":20,"time_elapsed":474848,"internal_node_id":"0.0-20.0"},{"result":186,"points":1,"place":4,"phase":0,"sequence":1,"prices":[192,165,171,178,188,217,172,195,197,186],"times":[1760,2413,1597,1067,1225,725,834,985,1011,1557],"next_num":10,"trial_type":"ticket-choose","trial_index":21,"time_elapsed":493287,"internal_node_id":"0.0-21.0"},{"result":169,"points":2,"place":1,"phase":0,"sequence":2,"prices":[193,169,171,187,190,224,174,194,165,188],"times":[2062,3935],"next_num":2,"trial_type":"ticket-choose","trial_index":22,"time_elapsed":502581,"internal_node_id":"0.0-22.0"},{"result":165,"points":2,"place":1,"phase":0,"sequence":3,"prices":[174,186,177,217,181,187,165,166,153,209],"times":[1681,1117,942,840,659,695,2903],"next_num":7,"trial_type":"ticket-choose","trial_index":23,"time_elapsed":515263,"internal_node_id":"0.0-23.0"},{"result":167,"points":1,"place":2,"phase":0,"sequence":4,"prices":[171,203,175,170,167,220,192,186,165,165],"times":[3116,1020,1109,1204,1603],"next_num":5,"trial_type":"ticket-choose","trial_index":24,"time_elapsed":527583,"internal_node_id":"0.0-24.0"},{"result":143,"points":3,"place":0,"phase":0,"sequence":5,"prices":[222,173,202,197,143,205,198,183,178,186],"times":[1529,913,852,1385,1229],"next_num":5,"trial_type":"ticket-choose","trial_index":25,"time_elapsed":537365,"internal_node_id":"0.0-25.0"},{"result":165,"points":3,"place":0,"phase":0,"sequence":6,"prices":[189,167,180,197,165,168,172,213,178,171],"times":[1890,2215,662,695,1377],"next_num":5,"trial_type":"ticket-choose","trial_index":26,"time_elapsed":547696,"internal_node_id":"0.0-26.0"},{"result":167,"points":2,"place":1,"phase":0,"sequence":7,"prices":[212,192,188,184,167,193,189,164,176,170],"times":[1747,763,943,773,1306],"next_num":5,"trial_type":"ticket-choose","trial_index":27,"time_elapsed":556866,"internal_node_id":"0.0-27.0"},{"result":167,"points":2,"place":1,"phase":0,"sequence":8,"prices":[175,185,178,215,181,186,167,168,208,156],"times":[1748,763,914,725,797,808,1358],"next_num":7,"trial_type":"ticket-choose","trial_index":28,"time_elapsed":568566,"internal_node_id":"0.0-28.0"},{"result":165,"points":3,"place":0,"phase":0,"sequence":9,"prices":[185,170,182,201,173,199,171,188,165,168],"times":[1689,1083,807,970,977,1178,1304,1667,1147],"next_num":9,"trial_type":"ticket-choose","trial_index":29,"time_elapsed":584130,"internal_node_id":"0.0-29.0"},{"result":165,"points":2,"place":1,"phase":0,"sequence":10,"prices":[175,186,177,210,179,187,165,166,153,208],"times":[2361,984,878,884,1611,877,1491],"next_num":7,"trial_type":"ticket-choose","trial_index":30,"time_elapsed":601044,"internal_node_id":"0.0-30.0"},{"result":165,"points":2,"place":1,"phase":0,"sequence":11,"prices":[200,165,165,173,182,207,161,202,204,180],"times":[2412,1239],"next_num":2,"trial_type":"ticket-choose","trial_index":31,"time_elapsed":607385,"internal_node_id":"0.0-31.0"},{"result":155,"points":2,"place":1,"phase":0,"sequence":12,"prices":[181,155,148,161,168,187,172,199,176,194],"times":[2110,2837],"next_num":2,"trial_type":"ticket-choose","trial_index":32,"time_elapsed":616252,"internal_node_id":"0.0-32.0"},{"result":169,"points":1,"place":3,"phase":0,"sequence":13,"prices":[198,193,169,163,202,182,152,164,177,171],"times":[1803,818,3054],"next_num":3,"trial_type":"ticket-choose","trial_index":33,"time_elapsed":624879,"internal_node_id":"0.0-33.0"},{"result":167,"points":2,"place":1,"phase":0,"sequence":14,"prices":[174,186,178,217,181,188,167,168,208,156],"times":[1441,768,674,819,770,775,1383],"next_num":7,"trial_type":"ticket-choose","trial_index":34,"time_elapsed":635528,"internal_node_id":"0.0-34.0"},{"result":152,"points":3,"place":0,"phase":0,"sequence":15,"prices":[200,181,203,152,175,171,160,154,176,191],"times":[1702,945,763,1229],"next_num":4,"trial_type":"ticket-choose","trial_index":35,"time_elapsed":643462,"internal_node_id":"0.0-35.0"},{"result":163,"points":2,"place":1,"phase":0,"sequence":16,"prices":[175,186,163,214,179,187,176,166,153,208],"times":[1474,780,1204],"next_num":3,"trial_type":"ticket-choose","trial_index":36,"time_elapsed":649756,"internal_node_id":"0.0-36.0"},{"result":163,"points":2,"place":1,"phase":0,"sequence":17,"prices":[175,187,163,209,180,188,176,165,154,208],"times":[1371,1149,1410],"next_num":3,"trial_type":"ticket-choose","trial_index":37,"time_elapsed":656650,"internal_node_id":"0.0-37.0"},{"result":165,"points":2,"place":1,"phase":0,"sequence":18,"prices":[175,187,165,209,180,188,177,166,154,208],"times":[5291,786,1158],"next_num":3,"trial_type":"ticket-choose","trial_index":38,"time_elapsed":666706,"internal_node_id":"0.0-38.0"},{"result":165,"points":2,"place":1,"phase":0,"sequence":19,"prices":[175,186,165,214,179,187,177,166,153,208],"times":[2972,762,1351],"next_num":3,"trial_type":"ticket-choose","trial_index":39,"time_elapsed":674688,"internal_node_id":"0.0-39.0"},{"result":163,"points":2,"place":1,"phase":0,"sequence":20,"prices":[174,186,163,212,181,187,176,166,153,209],"times":[1434,715,1495],"next_num":3,"trial_type":"ticket-choose","trial_index":40,"time_elapsed":681796,"internal_node_id":"0.0-40.0"},{"result":165,"points":3,"place":0,"phase":0,"sequence":21,"prices":[196,165,170,184,187,211,171,201,202,185],"times":[1663,1242],"next_num":2,"trial_type":"ticket-choose","trial_index":41,"time_elapsed":687257,"internal_node_id":"0.0-41.0"},{"result":168,"points":1,"place":2,"phase":0,"sequence":22,"prices":[168,199,196,198,185,195,227,163,177,166],"times":[1727],"next_num":1,"trial_type":"ticket-choose","trial_index":42,"time_elapsed":691397,"internal_node_id":"0.0-42.0"},{"result":167,"points":2,"place":1,"phase":0,"sequence":23,"prices":[175,186,178,212,179,187,167,169,209,153],"times":[1351,673,636,692,647,1074,1405],"next_num":7,"trial_type":"ticket-choose","trial_index":43,"time_elapsed":701678,"internal_node_id":"0.0-43.0"},{"result":158,"points":2,"place":1,"phase":0,"sequence":24,"prices":[175,186,158,211,180,187,177,166,209,153],"times":[1583,724,1227],"next_num":3,"trial_type":"ticket-choose","trial_index":44,"time_elapsed":707937,"internal_node_id":"0.0-44.0"},{"result":169,"points":2,"place":1,"phase":0,"sequence":25,"prices":[181,215,169,147,182,193,177,184,176,179],"times":[923,5430,2539],"next_num":3,"trial_type":"ticket-choose","trial_index":45,"time_elapsed":723224,"internal_node_id":"0.0-45.0"},{"result":165,"points":3,"place":0,"phase":0,"sequence":26,"prices":[193,165,175,181,185,224,180,199,218,184],"times":[1646,1046],"next_num":2,"trial_type":"ticket-choose","trial_index":46,"time_elapsed":728888,"internal_node_id":"0.0-46.0"},{"result":165,"points":2,"place":1,"phase":0,"sequence":27,"prices":[201,165,162,166,185,214,165,202,204,179],"times":[1494,1504],"next_num":2,"trial_type":"ticket-choose","trial_index":47,"time_elapsed":734560,"internal_node_id":"0.0-47.0"},{"result":165,"points":2,"place":1,"phase":0,"sequence":28,"prices":[174,186,165,212,181,187,177,167,153,209],"times":[1328,861,1149],"next_num":3,"trial_type":"ticket-choose","trial_index":48,"time_elapsed":740853,"internal_node_id":"0.0-48.0"},{"result":158,"points":2,"place":1,"phase":0,"sequence":29,"prices":[175,186,177,221,180,187,158,166,209,153],"times":[1183,677,697,662,826,795,1287],"next_num":7,"trial_type":"ticket-choose","trial_index":49,"time_elapsed":750697,"internal_node_id":"0.0-49.0"},{"result":158,"points":3,"place":0,"phase":0,"sequence":30,"prices":[210,184,226,193,215,158,199,175,176,208],"times":[1452,756,739,803,911,1325],"next_num":6,"trial_type":"ticket-choose","trial_index":50,"time_elapsed":760152,"internal_node_id":"0.0-50.0"},{"result":165,"points":2,"place":1,"phase":0,"sequence":31,"prices":[175,187,177,209,180,188,165,165,154,208],"times":[1504,1170,861,660,755,786,1178],"next_num":7,"trial_type":"ticket-choose","trial_index":51,"time_elapsed":770566,"internal_node_id":"0.0-51.0"},{"result":168,"points":1,"place":2,"phase":0,"sequence":32,"prices":[168,154,172,185,195,144,184,211,177,227],"times":[2935],"next_num":1,"trial_type":"ticket-choose","trial_index":52,"time_elapsed":775946,"internal_node_id":"0.0-52.0"},{"result":167,"points":2,"place":1,"phase":0,"sequence":33,"prices":[183,182,192,168,173,205,167,187,165,170],"times":[2943,762,637,1492,826,608,1204],"next_num":7,"trial_type":"ticket-choose","trial_index":53,"time_elapsed":788100,"internal_node_id":"0.0-53.0"},{"result":158,"points":2,"place":1,"phase":0,"sequence":34,"prices":[176,187,177,225,181,187,158,165,208,153],"times":[1211,900,878,865,772,867,1267],"next_num":7,"trial_type":"ticket-choose","trial_index":54,"time_elapsed":798837,"internal_node_id":"0.0-54.0"},{"result":159,"points":1,"place":2,"phase":0,"sequence":35,"prices":[180,159,149,175,185,141,163,174,178,207],"times":[1530,1181],"next_num":2,"trial_type":"ticket-choose","trial_index":55,"time_elapsed":804188,"internal_node_id":"0.0-55.0"},{"result":150,"points":3,"place":0,"phase":0,"sequence":36,"prices":[189,150,175,160,188,207,158,194,178,199],"times":[1270,967],"next_num":2,"trial_type":"ticket-choose","trial_index":56,"time_elapsed":809228,"internal_node_id":"0.0-56.0"},{"result":157,"points":3,"place":0,"phase":0,"sequence":37,"prices":[201,187,157,184,198,179,188,185,178,170],"times":[1292,715,970],"next_num":3,"trial_type":"ticket-choose","trial_index":57,"time_elapsed":814962,"internal_node_id":"0.0-57.0"},{"result":163,"points":2,"place":1,"phase":0,"sequence":38,"prices":[174,186,176,217,181,187,163,166,153,209],"times":[1170,796,878,839,1085,1831,1210],"next_num":7,"trial_type":"ticket-choose","trial_index":58,"time_elapsed":827039,"internal_node_id":"0.0-58.0"},{"result":165,"points":2,"place":1,"phase":0,"sequence":39,"prices":[188,200,165,172,198,174,177,154,177,180],"times":[1740,810,1069],"next_num":3,"trial_type":"ticket-choose","trial_index":59,"time_elapsed":834734,"internal_node_id":"0.0-59.0"},{"result":163,"points":2,"place":1,"phase":0,"sequence":40,"prices":[175,186,176,210,179,187,163,166,153,208],"times":[2055,636,742,770,1014,866,1139],"next_num":7,"trial_type":"ticket-choose","trial_index":60,"time_elapsed":845488,"internal_node_id":"0.0-60.0"},{"result":169,"points":2,"place":1,"phase":0,"sequence":41,"prices":[191,172,169,175,182,203,170,195,165,176],"times":[1333,1178,1554],"next_num":3,"trial_type":"ticket-choose","trial_index":61,"time_elapsed":852202,"internal_node_id":"0.0-61.0"},{"result":163,"points":2,"place":1,"phase":0,"sequence":42,"prices":[175,187,176,209,180,188,163,165,154,208],"times":[1285,890,785,743,746,878,1544],"next_num":7,"trial_type":"ticket-choose","trial_index":62,"time_elapsed":862949,"internal_node_id":"0.0-62.0"},{"result":167,"points":2,"place":1,"phase":0,"sequence":43,"prices":[175,186,167,225,179,187,178,169,209,153],"times":[1426,716,1124],"next_num":3,"trial_type":"ticket-choose","trial_index":63,"time_elapsed":868870,"internal_node_id":"0.0-63.0"},{"result":158,"points":2,"place":1,"phase":0,"sequence":44,"prices":[176,187,158,210,181,187,177,165,208,153],"times":[1584,670,1023],"next_num":3,"trial_type":"ticket-choose","trial_index":64,"time_elapsed":874887,"internal_node_id":"0.0-64.0"},{"result":158,"points":2,"place":1,"phase":0,"sequence":45,"prices":[175,186,177,209,181,188,158,167,208,154],"times":[1263,828,615,828,957,617,1186],"next_num":7,"trial_type":"ticket-choose","trial_index":65,"time_elapsed":884768,"internal_node_id":"0.0-65.0"},{"result":167,"points":2,"place":1,"phase":0,"sequence":46,"prices":[174,186,167,211,181,188,178,168,208,156],"times":[1843,990,2268],"next_num":3,"trial_type":"ticket-choose","trial_index":66,"time_elapsed":892766,"internal_node_id":"0.0-66.0"},{"result":158,"points":2,"place":1,"phase":0,"sequence":47,"prices":[175,186,158,209,181,188,177,167,208,154],"times":[1163,739,1061],"next_num":3,"trial_type":"ticket-choose","trial_index":67,"time_elapsed":898398,"internal_node_id":"0.0-67.0"},{"result":168,"points":1,"place":2,"phase":0,"sequence":48,"prices":[175,185,167,224,181,186,178,168,208,156],"times":[1396,873,1252,643,667,700,976,1170],"next_num":8,"trial_type":"ticket-choose","trial_index":68,"time_elapsed":909789,"internal_node_id":"0.0-68.0"},{"result":163,"points":1,"place":2,"phase":0,"sequence":49,"prices":[183,163,185,180,166,148,160,186,176,184],"times":[1389,1109],"next_num":2,"trial_type":"ticket-choose","trial_index":69,"time_elapsed":914838,"internal_node_id":"0.0-69.0"},{"responses":[{"value":10,"offby":9,"category":"$115 - $130","category_index":0},{"value":10,"offby":5,"category":"$131 - $145","category_index":1},{"value":25,"offby":13,"category":"$146 - $160","category_index":2},{"value":20,"offby":-2,"category":"$161 - $175","category_index":3},{"value":20,"offby":-14,"category":"$176 - $190","category_index":4},{"value":10,"offby":-5,"category":"$191 - $205","category_index":5},{"value":5,"offby":-6,"category":"$206 - $220","category_index":6}],"phase":1,"number":1,"trial_type":"bar-choose","trial_index":70,"time_elapsed":982736,"internal_node_id":"0.0-70.0"},{"rt":17642,"url":"\/christiane\/tickets\/utils\/testing2.html","trial_type":"point_update","trial_index":71,"time_elapsed":1001858,"internal_node_id":"0.0-71.0"},{"phase":1,"order":[13,29,17,5,41,36,34,15,33,25,19,35,43,23,45,22,20,42,46,18,28,11,9,4,24,37,49,32,38,21,31,7,2,26,39,30,14,48,3,1,0,16,27,10,6,40,8,12,47,44],"trial_type":"store_order","trial_index":72,"time_elapsed":1002868,"internal_node_id":"0.0-72.0"},{"result":165,"points":1,"place":2,"phase":1,"sequence":0,"prices":[163,175,187,209,176,180,188,165,154,208],"times":[3766,821,628,684,638,982,675,1502],"next_num":8,"trial_type":"ticket-choose","trial_index":73,"time_elapsed":1016702,"internal_node_id":"0.0-73.0"},{"result":165,"points":1,"place":2,"phase":1,"sequence":1,"prices":[185,179,191,165,161,173,199,150,188,168],"times":[2171,915,756,1192],"next_num":4,"trial_type":"ticket-choose","trial_index":74,"time_elapsed":1024824,"internal_node_id":"0.0-74.0"},{"result":153,"points":3,"place":0,"phase":1,"sequence":2,"prices":[176,186,178,217,163,181,187,166,153,209],"times":[1304,640,614,681,2091,630,560,1628,1053],"next_num":9,"trial_type":"ticket-choose","trial_index":75,"time_elapsed":1038387,"internal_node_id":"0.0-75.0"},{"result":153,"points":3,"place":0,"phase":1,"sequence":3,"prices":[178,175,186,212,167,179,187,169,209,153],"times":[1850,1130,1560,1574,1178,801,837,1762,664,1194],"next_num":10,"trial_type":"ticket-choose","trial_index":76,"time_elapsed":1055810,"internal_node_id":"0.0-76.0"},{"result":155,"points":2,"place":1,"phase":1,"sequence":4,"prices":[200,207,155,158,156,168,167,135,178,177],"times":[1983,613,1015],"next_num":3,"trial_type":"ticket-choose","trial_index":77,"time_elapsed":1065125,"internal_node_id":"0.0-77.0"},{"result":154,"points":3,"place":0,"phase":1,"sequence":5,"prices":[187,201,165,172,196,174,178,154,172,180],"times":[1246,694,1163,642,592,662,659,1289],"next_num":8,"trial_type":"ticket-choose","trial_index":78,"time_elapsed":1075822,"internal_node_id":"0.0-78.0"},{"result":156,"points":2,"place":1,"phase":1,"sequence":6,"prices":[180,156,149,160,168,186,172,198,176,195],"times":[1501,1548],"next_num":2,"trial_type":"ticket-choose","trial_index":79,"time_elapsed":1081681,"internal_node_id":"0.0-79.0"},{"result":153,"points":3,"place":0,"phase":1,"sequence":7,"prices":[176,175,186,210,163,179,187,166,153,208],"times":[1544,755,614,591,576,832,732,1061,1236],"next_num":9,"trial_type":"ticket-choose","trial_index":80,"time_elapsed":1093704,"internal_node_id":"0.0-80.0"},{"result":159,"points":3,"place":0,"phase":1,"sequence":8,"prices":[183,179,188,165,168,173,205,159,187,191],"times":[3041,715,646,1061,485,583,788,1266],"next_num":8,"trial_type":"ticket-choose","trial_index":81,"time_elapsed":1106103,"internal_node_id":"0.0-81.0"},{"result":156,"points":3,"place":0,"phase":1,"sequence":9,"prices":[201,204,179,166,185,165,214,156,202,165],"times":[1503,614,652,724,855,732,770,1185],"next_num":8,"trial_type":"ticket-choose","trial_index":82,"time_elapsed":1117176,"internal_node_id":"0.0-82.0"},{"result":158,"points":2,"place":1,"phase":1,"sequence":10,"prices":[158,175,186,209,177,181,188,167,208,154],"times":[1630],"next_num":1,"trial_type":"ticket-choose","trial_index":83,"time_elapsed":1121124,"internal_node_id":"0.0-83.0"},{"result":153,"points":2,"place":1,"phase":1,"sequence":11,"prices":[167,153,172,185,195,143,184,211,177,227],"times":[1378,1057],"next_num":2,"trial_type":"ticket-choose","trial_index":84,"time_elapsed":1126095,"internal_node_id":"0.0-84.0"},{"result":157,"points":3,"place":0,"phase":1,"sequence":12,"prices":[201,187,157,184,198,179,188,185,178,170],"times":[1317,669,1093],"next_num":3,"trial_type":"ticket-choose","trial_index":85,"time_elapsed":1131953,"internal_node_id":"0.0-85.0"},{"result":158,"points":2,"place":1,"phase":1,"sequence":13,"prices":[177,176,187,225,158,181,187,165,208,153],"times":[1428,559,568,614,1049],"next_num":5,"trial_type":"ticket-choose","trial_index":86,"time_elapsed":1139633,"internal_node_id":"0.0-86.0"},{"result":170,"points":1,"place":2,"phase":1,"sequence":14,"prices":[199,191,188,174,167,193,189,164,176,170],"times":[1340,653,594,590,610,624,612,623,682,607],"next_num":11,"trial_type":"ticket-choose","trial_index":87,"time_elapsed":1152970,"internal_node_id":"0.0-87.0"},{"result":158,"points":2,"place":1,"phase":1,"sequence":15,"prices":[177,175,186,209,158,181,188,167,208,154],"times":[1315,802,819,677,1079],"next_num":5,"trial_type":"ticket-choose","trial_index":88,"time_elapsed":1160956,"internal_node_id":"0.0-88.0"},{"result":158,"points":2,"place":1,"phase":1,"sequence":16,"prices":[158,176,187,210,177,181,187,165,208,153],"times":[1514],"next_num":1,"trial_type":"ticket-choose","trial_index":89,"time_elapsed":1164818,"internal_node_id":"0.0-89.0"},{"result":186,"points":1,"place":4,"phase":1,"sequence":17,"prices":[220,173,201,197,169,205,198,183,178,186],"times":[1348,630,652,629,722,785,723,766,916,1837],"next_num":10,"trial_type":"ticket-choose","trial_index":90,"time_elapsed":1178289,"internal_node_id":"0.0-90.0"},{"result":158,"points":3,"place":0,"phase":1,"sequence":18,"prices":[214,184,226,192,215,158,199,175,176,208],"times":[1379,699,667,3727,1465,1021],"next_num":6,"trial_type":"ticket-choose","trial_index":91,"time_elapsed":1190633,"internal_node_id":"0.0-91.0"},{"result":158,"points":2,"place":1,"phase":1,"sequence":19,"prices":[158,175,186,211,177,180,187,166,209,153],"times":[1515],"next_num":1,"trial_type":"ticket-choose","trial_index":92,"time_elapsed":1194649,"internal_node_id":"0.0-92.0"},{"result":165,"points":3,"place":0,"phase":1,"sequence":20,"prices":[196,171,170,184,187,165,211,169,201,202],"times":[1452,684,710,646,675,1212],"next_num":6,"trial_type":"ticket-choose","trial_index":93,"time_elapsed":1203797,"internal_node_id":"0.0-93.0"},{"result":165,"points":2,"place":1,"phase":1,"sequence":21,"prices":[177,174,186,217,165,181,187,166,153,209],"times":[1070,682,756,779,1212],"next_num":5,"trial_type":"ticket-choose","trial_index":94,"time_elapsed":1211659,"internal_node_id":"0.0-94.0"},{"result":166,"points":1,"place":2,"phase":1,"sequence":22,"prices":[177,175,186,210,165,179,187,166,153,208],"times":[1294,605,599,660,1535,925,875,1261],"next_num":8,"trial_type":"ticket-choose","trial_index":95,"time_elapsed":1223587,"internal_node_id":"0.0-95.0"},{"result":156,"points":3,"place":0,"phase":1,"sequence":23,"prices":[178,175,185,215,167,181,186,168,208,156],"times":[1374,717,581,633,586,583,622,943,735,980],"next_num":10,"trial_type":"ticket-choose","trial_index":96,"time_elapsed":1235535,"internal_node_id":"0.0-96.0"},{"result":184,"points":1,"place":4,"phase":1,"sequence":24,"prices":[193,181,175,181,185,165,224,199,218,184],"times":[1275,708,606,692,714,653,795,802,772,1031],"next_num":10,"trial_type":"ticket-choose","trial_index":97,"time_elapsed":1247875,"internal_node_id":"0.0-97.0"},{"result":169,"points":1,"place":3,"phase":1,"sequence":25,"prices":[199,193,169,165,202,182,151,164,176,171],"times":[1337,762,1756],"next_num":3,"trial_type":"ticket-choose","trial_index":98,"time_elapsed":1254830,"internal_node_id":"0.0-98.0"},{"result":148,"points":3,"place":0,"phase":1,"sequence":26,"prices":[173,163,185,181,166,148,160,185,176,184],"times":[1268,592,534,572,589,1115],"next_num":6,"trial_type":"ticket-choose","trial_index":99,"time_elapsed":1262794,"internal_node_id":"0.0-99.0"},{"result":195,"points":0,"place":7,"phase":1,"sequence":27,"prices":[193,174,224,165,187,190,224,161,194,195],"times":[1254,629,638,825,574,586,632,982,785,960],"next_num":10,"trial_type":"ticket-choose","trial_index":100,"time_elapsed":1275186,"internal_node_id":"0.0-100.0"},{"result":163,"points":3,"place":0,"phase":1,"sequence":28,"prices":[163,199,196,199,185,195,227,163,177,166],"times":[1552,663,666,670,788,724,756,975],"next_num":8,"trial_type":"ticket-choose","trial_index":101,"time_elapsed":1286102,"internal_node_id":"0.0-101.0"},{"result":158,"points":2,"place":1,"phase":1,"sequence":29,"prices":[177,175,186,221,158,180,187,166,209,153],"times":[2006,740,634,763,1158],"next_num":5,"trial_type":"ticket-choose","trial_index":102,"time_elapsed":1294655,"internal_node_id":"0.0-102.0"},{"result":165,"points":1,"place":2,"phase":1,"sequence":30,"prices":[171,169,186,165,163,167,220,148,187,165],"times":[2464,912,631,1307],"next_num":4,"trial_type":"ticket-choose","trial_index":103,"time_elapsed":1303089,"internal_node_id":"0.0-103.0"},{"result":167,"points":1,"place":2,"phase":1,"sequence":31,"prices":[165,175,187,209,177,180,188,167,154,208],"times":[1527,601,606,646,669,764,746,3666],"next_num":8,"trial_type":"ticket-choose","trial_index":104,"time_elapsed":1316274,"internal_node_id":"0.0-104.0"},{"result":153,"points":3,"place":0,"phase":1,"sequence":32,"prices":[167,175,186,225,178,179,187,169,209,153],"times":[2009,3132,727,667,635,763,747,1927,714,889],"next_num":10,"trial_type":"ticket-choose","trial_index":105,"time_elapsed":1334368,"internal_node_id":"0.0-105.0"},{"result":165,"points":1,"place":2,"phase":1,"sequence":33,"prices":[200,173,182,169,207,165,152,202,161,204],"times":[1262,666,589,744,935,1062],"next_num":6,"trial_type":"ticket-choose","trial_index":106,"time_elapsed":1343069,"internal_node_id":"0.0-106.0"},{"result":165,"points":3,"place":0,"phase":1,"sequence":34,"prices":[189,167,180,197,165,168,172,213,178,171],"times":[1349,1295,527,576,1108],"next_num":5,"trial_type":"ticket-choose","trial_index":107,"time_elapsed":1351141,"internal_node_id":"0.0-107.0"},{"result":165,"points":2,"place":1,"phase":1,"sequence":35,"prices":[191,170,182,165,175,182,203,157,195,200],"times":[1586,674,606,1122],"next_num":4,"trial_type":"ticket-choose","trial_index":108,"time_elapsed":1358196,"internal_node_id":"0.0-108.0"},{"result":166,"points":1,"place":2,"phase":1,"sequence":36,"prices":[163,174,186,212,176,181,187,166,153,209],"times":[1587,559,553,573,630,646,833,1183],"next_num":8,"trial_type":"ticket-choose","trial_index":109,"time_elapsed":1368589,"internal_node_id":"0.0-109.0"},{"result":169,"points":2,"place":1,"phase":1,"sequence":37,"prices":[181,214,169,147,182,193,178,184,176,179],"times":[2715,1662,1062],"next_num":3,"trial_type":"ticket-choose","trial_index":110,"time_elapsed":1376961,"internal_node_id":"0.0-110.0"},{"result":167,"points":2,"place":1,"phase":1,"sequence":38,"prices":[178,174,186,217,167,181,188,168,208,156],"times":[1695,652,632,686,1345],"next_num":5,"trial_type":"ticket-choose","trial_index":111,"time_elapsed":1385216,"internal_node_id":"0.0-111.0"},{"result":168,"points":1,"place":2,"phase":1,"sequence":39,"prices":[167,175,185,224,178,181,186,168,208,156],"times":[2075,486,503,574,550,582,632,1249],"next_num":8,"trial_type":"ticket-choose","trial_index":112,"time_elapsed":1395518,"internal_node_id":"0.0-112.0"},{"result":168,"points":1,"place":2,"phase":1,"sequence":40,"prices":[167,174,186,211,178,181,188,168,208,156],"times":[1350,613,549,634,602,579,626,1156],"next_num":8,"trial_type":"ticket-choose","trial_index":113,"time_elapsed":1405343,"internal_node_id":"0.0-113.0"},{"result":163,"points":2,"place":1,"phase":1,"sequence":41,"prices":[176,187,179,209,163,180,188,165,154,208],"times":[2405,686,698,683,1490],"next_num":5,"trial_type":"ticket-choose","trial_index":114,"time_elapsed":1414403,"internal_node_id":"0.0-114.0"},{"result":165,"points":3,"place":0,"phase":1,"sequence":42,"prices":[192,172,171,178,188,165,217,168,195,197],"times":[1312,560,552,596,768,1407],"next_num":6,"trial_type":"ticket-choose","trial_index":115,"time_elapsed":1423262,"internal_node_id":"0.0-115.0"},{"result":165,"points":2,"place":1,"phase":1,"sequence":43,"prices":[177,175,187,209,165,180,188,165,154,208],"times":[4719,777,620,804,1605],"next_num":5,"trial_type":"ticket-choose","trial_index":116,"time_elapsed":1435087,"internal_node_id":"0.0-116.0"},{"result":165,"points":2,"place":1,"phase":1,"sequence":44,"prices":[165,175,186,214,177,179,187,166,153,208],"times":[1865],"next_num":1,"trial_type":"ticket-choose","trial_index":117,"time_elapsed":1442336,"internal_node_id":"0.0-117.0"},{"result":150,"points":3,"place":0,"phase":1,"sequence":45,"prices":[190,150,175,161,188,207,157,194,178,199],"times":[1753,1098],"next_num":2,"trial_type":"ticket-choose","trial_index":118,"time_elapsed":1447809,"internal_node_id":"0.0-118.0"},{"result":165,"points":2,"place":1,"phase":1,"sequence":46,"prices":[165,174,186,212,177,181,187,166,153,209],"times":[1884],"next_num":1,"trial_type":"ticket-choose","trial_index":119,"time_elapsed":1452003,"internal_node_id":"0.0-119.0"},{"result":163,"points":2,"place":1,"phase":1,"sequence":47,"prices":[163,175,186,214,176,179,187,166,153,208],"times":[2621],"next_num":1,"trial_type":"ticket-choose","trial_index":120,"time_elapsed":1457066,"internal_node_id":"0.0-120.0"},{"result":152,"points":3,"place":0,"phase":1,"sequence":48,"prices":[200,180,203,152,175,170,160,154,176,191],"times":[1313,886,715,1413],"next_num":4,"trial_type":"ticket-choose","trial_index":121,"time_elapsed":1464299,"internal_node_id":"0.0-121.0"},{"result":159,"points":1,"place":2,"phase":1,"sequence":49,"prices":[181,159,149,175,185,151,163,174,178,207],"times":[1596,1052],"next_num":2,"trial_type":"ticket-choose","trial_index":122,"time_elapsed":1469473,"internal_node_id":"0.0-122.0"},{"responses":[{"value":0,"offby":-1,"category":"$115 - $130","category_index":0},{"value":7,"offby":2,"category":"$131 - $145","category_index":1},{"value":28,"offby":16,"category":"$146 - $160","category_index":2},{"value":25,"offby":3,"category":"$161 - $175","category_index":3},{"value":20,"offby":-14,"category":"$176 - $190","category_index":4},{"value":20,"offby":5,"category":"$191 - $205","category_index":5},{"value":0,"offby":-11,"category":"$206 - $220","category_index":6}],"phase":1,"number":1,"trial_type":"bar-choose","trial_index":123,"time_elapsed":1515673,"internal_node_id":"0.0-123.0"},{"special_comment":"Tickets in the 150s were often the cheapest.","trial_type":"special_sequence","trial_index":124,"time_elapsed":1538232,"internal_node_id":"0.0-124.0"},{"during":"Nothing","bonus":268,"trial_type":"final","trial_index":125,"time_elapsed":1563601,"internal_node_id":"0.0-125.0"}],"bonus":268}