{"start_time":"2017-05-24 15:46:16","end_time":"2017-05-24 16:29:24","points_phase0":90,"points_phase1":98,"phase_order":0,"age":31,"gender":"m","tries":1,"during":"Nothing","worker_id":"A1M682B2WUSYJP","assignment_id":"3EJPLAJKEN9LOE2D8J60DPT5M936ZK","data":[{"rt":1069960,"url":"\/christiane\/tickets\/utils\/consent.html","trial_type":"html","trial_index":0,"time_elapsed":1070247,"internal_node_id":"0.0-0.0"},{"age":31,"gender":"m","trial_type":"age","trial_index":1,"time_elapsed":1074632,"internal_node_id":"0.0-1.0"},{"worker_id":"A1M682B2WUSYJP","trial_type":"workerid","trial_index":2,"time_elapsed":1083442,"internal_node_id":"0.0-2.0"},{"tries":1,"trial_type":"instructions_check","trial_index":3,"time_elapsed":1137324,"internal_node_id":"0.0-3.0"},{"rt":9566,"url":"\/christiane\/tickets\/utils\/start.html","trial_type":"html","trial_index":4,"time_elapsed":1148079,"internal_node_id":"0.0-4.0"},{"trial_type":"number-animation","trial_index":5,"time_elapsed":1167623,"internal_node_id":"0.0-5.0"},{"phase":0,"sequence":0,"avg":181,"response":180,"trial_type":"training_avg","trial_index":6,"time_elapsed":1175905,"internal_node_id":"0.0-6.0"},{"trial_type":"number-animation","trial_index":7,"time_elapsed":1191061,"internal_node_id":"0.0-7.0"},{"phase":0,"sequence":1,"avg":188,"response":185,"trial_type":"training_avg","trial_index":8,"time_elapsed":1197976,"internal_node_id":"0.0-8.0"},{"trial_type":"number-animation","trial_index":9,"time_elapsed":1212388,"internal_node_id":"0.0-9.0"},{"phase":0,"sequence":2,"avg":188,"response":197,"trial_type":"training_avg","trial_index":10,"time_elapsed":1218946,"internal_node_id":"0.0-10.0"},{"trial_type":"number-animation","trial_index":11,"time_elapsed":1231039,"internal_node_id":"0.0-11.0"},{"phase":0,"sequence":3,"avg":177,"response":164,"trial_type":"training_avg","trial_index":12,"time_elapsed":1236227,"internal_node_id":"0.0-12.0"},{"trial_type":"number-animation","trial_index":13,"time_elapsed":1249454,"internal_node_id":"0.0-13.0"},{"phase":0,"sequence":4,"avg":182,"response":185,"trial_type":"training_avg","trial_index":14,"time_elapsed":1255498,"internal_node_id":"0.0-14.0"},{"responses":[{"value":1,"offby":0,"category":"$115 - $130","category_index":0},{"value":8,"offby":3,"category":"$131 - $145","category_index":1},{"value":16,"offby":4,"category":"$146 - $160","category_index":2},{"value":34,"offby":12,"category":"$161 - $175","category_index":3},{"value":21,"offby":-13,"category":"$176 - $190","category_index":4},{"value":13,"offby":-2,"category":"$191 - $205","category_index":5},{"value":7,"offby":-4,"category":"$206 - $220","category_index":6}],"phase":0,"number":0,"trial_type":"bar-choose","trial_index":15,"time_elapsed":1294787,"internal_node_id":"0.0-15.0"},{"rt":10808,"url":"\/christiane\/tickets\/utils\/testing.html","trial_type":"html","trial_index":16,"time_elapsed":1306768,"internal_node_id":"0.0-16.0"},{"phase":0,"order":[43,26,30,33,20,29,0,31,13,46,15,19,40,41,38,45,34,14,10,21,9,25,1,42,16,12,44,5,23,6,22,47,3,49,28,11,18,27,36,4,37,24,35,8,7,39,32,2,17,48],"trial_type":"store_order","trial_index":17,"time_elapsed":1307770,"internal_node_id":"0.0-17.0"},{"result":165,"points":2,"place":1,"phase":0,"sequence":-1,"prices":[184,180,224,165,181,199,185,193,218,146],"times":[1781,1046,703,2276],"next_num":4,"trial_type":"ticket-choose","trial_index":18,"time_elapsed":1316505,"internal_node_id":"0.0-18.0"},{"rt":10096,"url":"\/christiane\/tickets\/utils\/testing_after.html","trial_type":"html","trial_index":19,"time_elapsed":1327768,"internal_node_id":"0.0-19.0"},{"result":157,"points":3,"place":0,"phase":0,"sequence":0,"prices":[201,187,157,184,198,179,188,185,178,170],"times":[1219,1013,978],"next_num":3,"trial_type":"ticket-choose","trial_index":20,"time_elapsed":1334420,"internal_node_id":"0.0-20.0"},{"result":161,"points":3,"place":0,"phase":0,"sequence":1,"prices":[200,165,165,173,182,207,161,202,204,180],"times":[742,1042,681,593,576,657,928],"next_num":7,"trial_type":"ticket-choose","trial_index":21,"time_elapsed":1343488,"internal_node_id":"0.0-21.0"},{"result":170,"points":1,"place":2,"phase":0,"sequence":2,"prices":[191,172,169,175,182,203,170,195,165,176],"times":[1401,619,2653,519,582,733,1322],"next_num":7,"trial_type":"ticket-choose","trial_index":22,"time_elapsed":1354921,"internal_node_id":"0.0-22.0"},{"result":168,"points":1,"place":2,"phase":0,"sequence":3,"prices":[183,182,192,168,173,205,167,187,165,170],"times":[778,698,608,949],"next_num":4,"trial_type":"ticket-choose","trial_index":23,"time_elapsed":1360581,"internal_node_id":"0.0-23.0"},{"result":158,"points":2,"place":1,"phase":0,"sequence":4,"prices":[176,187,158,210,181,187,177,165,208,153],"times":[602,698,928],"next_num":3,"trial_type":"ticket-choose","trial_index":24,"time_elapsed":1365152,"internal_node_id":"0.0-24.0"},{"result":171,"points":1,"place":3,"phase":0,"sequence":5,"prices":[185,170,182,201,173,199,171,188,165,168],"times":[14225,646,564,575,632,590,880],"next_num":7,"trial_type":"ticket-choose","trial_index":25,"time_elapsed":1386653,"internal_node_id":"0.0-25.0"},{"result":167,"points":2,"place":1,"phase":0,"sequence":6,"prices":[174,186,167,211,181,188,178,168,208,156],"times":[657,679,982],"next_num":3,"trial_type":"ticket-choose","trial_index":26,"time_elapsed":1391297,"internal_node_id":"0.0-26.0"},{"result":167,"points":1,"place":2,"phase":0,"sequence":7,"prices":[171,203,175,170,167,220,192,186,165,165],"times":[476,767,1246,573,845],"next_num":5,"trial_type":"ticket-choose","trial_index":27,"time_elapsed":1397939,"internal_node_id":"0.0-27.0"},{"result":163,"points":2,"place":1,"phase":0,"sequence":8,"prices":[175,187,163,209,180,188,176,165,154,208],"times":[605,808,942],"next_num":3,"trial_type":"ticket-choose","trial_index":28,"time_elapsed":1402557,"internal_node_id":"0.0-28.0"},{"result":158,"points":3,"place":0,"phase":0,"sequence":9,"prices":[210,184,226,193,215,158,199,175,176,208],"times":[695,675,589,655,590,918],"next_num":6,"trial_type":"ticket-choose","trial_index":29,"time_elapsed":1409741,"internal_node_id":"0.0-29.0"},{"result":163,"points":2,"place":1,"phase":0,"sequence":10,"prices":[175,186,176,210,179,187,163,166,153,208],"times":[445,2265,3131,543,743,725,796],"next_num":7,"trial_type":"ticket-choose","trial_index":30,"time_elapsed":1422010,"internal_node_id":"0.0-30.0"},{"result":158,"points":2,"place":1,"phase":0,"sequence":11,"prices":[175,186,158,209,181,188,177,167,208,154],"times":[477,680,982],"next_num":3,"trial_type":"ticket-choose","trial_index":31,"time_elapsed":1426447,"internal_node_id":"0.0-31.0"},{"result":150,"points":3,"place":0,"phase":0,"sequence":12,"prices":[189,150,175,160,188,207,158,194,178,199],"times":[491,1046],"next_num":2,"trial_type":"ticket-choose","trial_index":32,"time_elapsed":1430433,"internal_node_id":"0.0-32.0"},{"result":155,"points":2,"place":1,"phase":0,"sequence":13,"prices":[201,207,155,158,156,165,167,135,178,177],"times":[492,558,921],"next_num":3,"trial_type":"ticket-choose","trial_index":33,"time_elapsed":1434732,"internal_node_id":"0.0-33.0"},{"result":163,"points":3,"place":0,"phase":0,"sequence":14,"prices":[168,199,196,198,185,195,227,163,177,166],"times":[443,598,600,595,642,654,653,942],"next_num":8,"trial_type":"ticket-choose","trial_index":34,"time_elapsed":1443229,"internal_node_id":"0.0-34.0"},{"result":167,"points":2,"place":1,"phase":0,"sequence":15,"prices":[212,192,188,184,167,193,189,164,176,170],"times":[2400,833,1340,2118,943],"next_num":5,"trial_type":"ticket-choose","trial_index":35,"time_elapsed":1453930,"internal_node_id":"0.0-35.0"},{"result":155,"points":2,"place":1,"phase":0,"sequence":16,"prices":[181,155,148,161,168,187,172,199,176,194],"times":[1000,998],"next_num":2,"trial_type":"ticket-choose","trial_index":36,"time_elapsed":1458220,"internal_node_id":"0.0-36.0"},{"result":166,"points":1,"place":2,"phase":0,"sequence":17,"prices":[174,186,163,212,181,187,176,166,153,209],"times":[469,747,847,719,742,804,591,918],"next_num":8,"trial_type":"ticket-choose","trial_index":37,"time_elapsed":1467535,"internal_node_id":"0.0-37.0"},{"result":165,"points":2,"place":1,"phase":0,"sequence":18,"prices":[175,187,177,209,180,188,165,165,154,208],"times":[808,644,819,662,555,597,925],"next_num":7,"trial_type":"ticket-choose","trial_index":38,"time_elapsed":1475798,"internal_node_id":"0.0-38.0"},{"result":180,"points":0,"place":5,"phase":0,"sequence":19,"prices":[175,186,177,221,180,187,158,166,209,153],"times":[1847,1023,709,616,1195],"next_num":5,"trial_type":"ticket-choose","trial_index":39,"time_elapsed":1484134,"internal_node_id":"0.0-39.0"},{"result":165,"points":2,"place":1,"phase":0,"sequence":20,"prices":[175,186,177,210,179,187,165,166,153,208],"times":[657,573,716,2664,1927,633,1021],"next_num":7,"trial_type":"ticket-choose","trial_index":40,"time_elapsed":1495788,"internal_node_id":"0.0-40.0"},{"result":165,"points":2,"place":1,"phase":0,"sequence":21,"prices":[201,165,162,166,185,214,165,202,204,179],"times":[782,1038,1799,775,664,674,1275],"next_num":7,"trial_type":"ticket-choose","trial_index":41,"time_elapsed":1506198,"internal_node_id":"0.0-41.0"},{"result":168,"points":1,"place":2,"phase":0,"sequence":22,"prices":[175,185,167,224,181,186,178,168,208,156],"times":[681,708,1401,542,666,695,616,1015],"next_num":8,"trial_type":"ticket-choose","trial_index":42,"time_elapsed":1516719,"internal_node_id":"0.0-42.0"},{"result":143,"points":3,"place":0,"phase":0,"sequence":23,"prices":[222,173,202,197,143,205,198,183,178,186],"times":[526,966,595,591,1153],"next_num":5,"trial_type":"ticket-choose","trial_index":43,"time_elapsed":1523373,"internal_node_id":"0.0-43.0"},{"result":163,"points":2,"place":1,"phase":0,"sequence":24,"prices":[175,187,176,209,180,188,163,165,154,208],"times":[1007,5694,808,605,803,627,907],"next_num":7,"trial_type":"ticket-choose","trial_index":44,"time_elapsed":1537861,"internal_node_id":"0.0-44.0"},{"result":163,"points":2,"place":1,"phase":0,"sequence":25,"prices":[175,186,163,214,179,187,176,166,153,208],"times":[923,2367,1102],"next_num":3,"trial_type":"ticket-choose","trial_index":45,"time_elapsed":1544719,"internal_node_id":"0.0-45.0"},{"result":159,"points":1,"place":2,"phase":0,"sequence":26,"prices":[180,159,149,175,185,141,163,174,178,207],"times":[1388,911],"next_num":2,"trial_type":"ticket-choose","trial_index":46,"time_elapsed":1549085,"internal_node_id":"0.0-46.0"},{"result":169,"points":1,"place":2,"phase":0,"sequence":27,"prices":[175,186,178,212,179,187,167,169,209,153],"times":[545,559,577,679,658,591,1285,1625],"next_num":8,"trial_type":"ticket-choose","trial_index":47,"time_elapsed":1559709,"internal_node_id":"0.0-47.0"},{"result":158,"points":2,"place":1,"phase":0,"sequence":28,"prices":[176,187,177,225,181,187,158,165,208,153],"times":[692,550,727,622,666,838,871],"next_num":7,"trial_type":"ticket-choose","trial_index":48,"time_elapsed":1567865,"internal_node_id":"0.0-48.0"},{"result":153,"points":3,"place":0,"phase":0,"sequence":29,"prices":[175,186,165,214,179,187,177,166,153,208],"times":[507,740,594,639,721,770,817,1720,951],"next_num":9,"trial_type":"ticket-choose","trial_index":49,"time_elapsed":1579259,"internal_node_id":"0.0-49.0"},{"result":158,"points":2,"place":1,"phase":0,"sequence":30,"prices":[175,186,177,209,181,188,158,167,208,154],"times":[806,694,1306,623,694,617,1096],"next_num":7,"trial_type":"ticket-choose","trial_index":50,"time_elapsed":1588665,"internal_node_id":"0.0-50.0"},{"result":152,"points":3,"place":0,"phase":0,"sequence":31,"prices":[200,181,203,152,175,171,160,154,176,191],"times":[1219,1185,980,1139],"next_num":4,"trial_type":"ticket-choose","trial_index":51,"time_elapsed":1646136,"internal_node_id":"0.0-51.0"},{"result":167,"points":2,"place":1,"phase":0,"sequence":32,"prices":[174,186,178,217,181,188,167,168,208,156],"times":[1609,508,867,602,843,605,935],"next_num":7,"trial_type":"ticket-choose","trial_index":52,"time_elapsed":1655399,"internal_node_id":"0.0-52.0"},{"result":163,"points":1,"place":2,"phase":0,"sequence":33,"prices":[183,163,185,180,166,148,160,186,176,184],"times":[933,1121],"next_num":2,"trial_type":"ticket-choose","trial_index":53,"time_elapsed":1659623,"internal_node_id":"0.0-53.0"},{"result":185,"points":1,"place":4,"phase":0,"sequence":34,"prices":[196,165,170,184,187,211,171,201,202,185],"times":[940,607,607,589,563,589,524,640,719,2102],"next_num":11,"trial_type":"ticket-choose","trial_index":54,"time_elapsed":1671636,"internal_node_id":"0.0-54.0"},{"result":165,"points":2,"place":1,"phase":0,"sequence":35,"prices":[174,186,177,217,181,187,165,166,153,209],"times":[1338,616,523,617,599,576,1167],"next_num":7,"trial_type":"ticket-choose","trial_index":55,"time_elapsed":1680346,"internal_node_id":"0.0-55.0"},{"result":158,"points":2,"place":1,"phase":0,"sequence":36,"prices":[175,186,158,211,180,187,177,166,209,153],"times":[794,615,968],"next_num":3,"trial_type":"ticket-choose","trial_index":56,"time_elapsed":1685095,"internal_node_id":"0.0-56.0"},{"result":186,"points":1,"place":4,"phase":0,"sequence":37,"prices":[192,165,171,178,188,217,172,195,197,186],"times":[1276,686,575,600,617,612,638,679,866,1114],"next_num":10,"trial_type":"ticket-choose","trial_index":57,"time_elapsed":1697032,"internal_node_id":"0.0-57.0"},{"result":165,"points":2,"place":1,"phase":0,"sequence":38,"prices":[188,200,165,172,198,174,177,154,177,180],"times":[987,638,908],"next_num":3,"trial_type":"ticket-choose","trial_index":58,"time_elapsed":1702013,"internal_node_id":"0.0-58.0"},{"result":167,"points":2,"place":1,"phase":0,"sequence":39,"prices":[175,185,178,215,181,186,167,168,208,156],"times":[752,553,606,607,641,646,967],"next_num":7,"trial_type":"ticket-choose","trial_index":59,"time_elapsed":1710510,"internal_node_id":"0.0-59.0"},{"result":169,"points":1,"place":3,"phase":0,"sequence":40,"prices":[198,193,169,163,202,182,152,164,177,171],"times":[827,701,1005],"next_num":3,"trial_type":"ticket-choose","trial_index":60,"time_elapsed":1715584,"internal_node_id":"0.0-60.0"},{"result":165,"points":3,"place":0,"phase":0,"sequence":41,"prices":[193,165,175,181,185,224,180,199,218,184],"times":[1249,963],"next_num":2,"trial_type":"ticket-choose","trial_index":61,"time_elapsed":1901075,"internal_node_id":"0.0-61.0"},{"result":168,"points":1,"place":2,"phase":0,"sequence":42,"prices":[168,154,172,185,195,144,184,211,177,227],"times":[3008],"next_num":1,"trial_type":"ticket-choose","trial_index":62,"time_elapsed":1906106,"internal_node_id":"0.0-62.0"},{"result":167,"points":1,"place":2,"phase":0,"sequence":43,"prices":[174,186,165,212,181,187,177,167,153,209],"times":[899,605,1088,549,621,537,533,1027],"next_num":8,"trial_type":"ticket-choose","trial_index":63,"time_elapsed":1915441,"internal_node_id":"0.0-63.0"},{"result":165,"points":2,"place":1,"phase":0,"sequence":44,"prices":[175,187,165,209,180,188,177,166,154,208],"times":[733,548,882],"next_num":3,"trial_type":"ticket-choose","trial_index":64,"time_elapsed":1919982,"internal_node_id":"0.0-64.0"},{"result":167,"points":2,"place":1,"phase":0,"sequence":45,"prices":[189,167,180,197,165,168,172,213,178,171],"times":[930,919],"next_num":2,"trial_type":"ticket-choose","trial_index":65,"time_elapsed":1924012,"internal_node_id":"0.0-65.0"},{"result":169,"points":2,"place":1,"phase":0,"sequence":46,"prices":[193,169,171,187,190,224,174,194,165,188],"times":[799,1233],"next_num":2,"trial_type":"ticket-choose","trial_index":66,"time_elapsed":1928186,"internal_node_id":"0.0-66.0"},{"result":169,"points":1,"place":2,"phase":0,"sequence":47,"prices":[175,186,167,225,179,187,178,169,209,153],"times":[750,711,606,559,923,793,1370,936],"next_num":8,"trial_type":"ticket-choose","trial_index":67,"time_elapsed":1938247,"internal_node_id":"0.0-67.0"},{"result":163,"points":2,"place":1,"phase":0,"sequence":48,"prices":[174,186,176,217,181,187,163,166,153,209],"times":[826,758,758,791,712,649,838],"next_num":7,"trial_type":"ticket-choose","trial_index":68,"time_elapsed":1949673,"internal_node_id":"0.0-68.0"},{"result":181,"points":0,"place":5,"phase":0,"sequence":49,"prices":[181,215,169,147,182,193,177,184,176,179],"times":[1057],"next_num":1,"trial_type":"ticket-choose","trial_index":69,"time_elapsed":1952971,"internal_node_id":"0.0-69.0"},{"responses":[{"value":4,"offby":3,"category":"$115 - $130","category_index":0},{"value":6,"offby":1,"category":"$131 - $145","category_index":1},{"value":16,"offby":4,"category":"$146 - $160","category_index":2},{"value":31,"offby":9,"category":"$161 - $175","category_index":3},{"value":26,"offby":-8,"category":"$176 - $190","category_index":4},{"value":13,"offby":-2,"category":"$191 - $205","category_index":5},{"value":4,"offby":-7,"category":"$206 - $220","category_index":6}],"phase":1,"number":1,"trial_type":"bar-choose","trial_index":70,"time_elapsed":1980128,"internal_node_id":"0.0-70.0"},{"rt":165569,"url":"\/christiane\/tickets\/utils\/testing2.html","trial_type":"point_update","trial_index":71,"time_elapsed":2147152,"internal_node_id":"0.0-71.0"},{"phase":1,"order":[38,30,18,15,41,3,36,10,2,48,34,28,39,17,4,37,45,23,29,40,9,7,26,19,27,6,33,43,25,5,1,14,22,20,21,49,12,46,42,31,13,32,8,44,11,24,35,0,16,47],"trial_type":"store_order","trial_index":72,"time_elapsed":2148176,"internal_node_id":"0.0-72.0"},{"result":163,"points":3,"place":0,"phase":1,"sequence":0,"prices":[163,199,196,199,185,195,227,163,177,166],"times":[1365],"next_num":1,"trial_type":"ticket-choose","trial_index":73,"time_elapsed":2151624,"internal_node_id":"0.0-73.0"},{"result":165,"points":2,"place":1,"phase":1,"sequence":1,"prices":[191,170,182,165,175,182,203,157,195,200],"times":[714,550,596,1711],"next_num":4,"trial_type":"ticket-choose","trial_index":74,"time_elapsed":2157890,"internal_node_id":"0.0-74.0"},{"result":158,"points":2,"place":1,"phase":1,"sequence":2,"prices":[158,175,186,211,177,180,187,166,209,153],"times":[1436],"next_num":1,"trial_type":"ticket-choose","trial_index":75,"time_elapsed":2161218,"internal_node_id":"0.0-75.0"},{"result":163,"points":2,"place":1,"phase":1,"sequence":3,"prices":[176,175,186,210,163,179,187,166,153,208],"times":[603,606,615,584,917],"next_num":5,"trial_type":"ticket-choose","trial_index":76,"time_elapsed":2167378,"internal_node_id":"0.0-76.0"},{"result":155,"points":2,"place":1,"phase":1,"sequence":4,"prices":[200,207,155,158,156,168,167,135,178,177],"times":[12024,664,951],"next_num":3,"trial_type":"ticket-choose","trial_index":77,"time_elapsed":2183548,"internal_node_id":"0.0-77.0"},{"result":167,"points":2,"place":1,"phase":1,"sequence":5,"prices":[178,174,186,217,167,181,188,168,208,156],"times":[1995,626,630,595,912],"next_num":5,"trial_type":"ticket-choose","trial_index":78,"time_elapsed":2202656,"internal_node_id":"0.0-78.0"},{"result":165,"points":2,"place":1,"phase":1,"sequence":6,"prices":[187,201,165,172,196,174,178,154,172,180],"times":[1301,609,1009],"next_num":3,"trial_type":"ticket-choose","trial_index":79,"time_elapsed":2208168,"internal_node_id":"0.0-79.0"},{"result":165,"points":2,"place":1,"phase":1,"sequence":7,"prices":[177,175,187,209,165,180,188,165,154,208],"times":[4094,1002,598,568,1228],"next_num":5,"trial_type":"ticket-choose","trial_index":80,"time_elapsed":2218551,"internal_node_id":"0.0-80.0"},{"result":167,"points":2,"place":1,"phase":1,"sequence":8,"prices":[167,175,186,225,178,179,187,169,209,153],"times":[1281],"next_num":1,"trial_type":"ticket-choose","trial_index":81,"time_elapsed":2221843,"internal_node_id":"0.0-81.0"},{"result":169,"points":2,"place":1,"phase":1,"sequence":9,"prices":[181,214,169,147,182,193,178,184,176,179],"times":[703,599,1133],"next_num":3,"trial_type":"ticket-choose","trial_index":82,"time_elapsed":2226866,"internal_node_id":"0.0-82.0"},{"result":156,"points":2,"place":1,"phase":1,"sequence":10,"prices":[180,156,149,160,168,186,172,198,176,195],"times":[3480,1030],"next_num":2,"trial_type":"ticket-choose","trial_index":83,"time_elapsed":2233925,"internal_node_id":"0.0-83.0"},{"result":165,"points":3,"place":0,"phase":1,"sequence":11,"prices":[196,171,170,184,187,165,211,169,201,202],"times":[2593,826,1754,797,716,940],"next_num":6,"trial_type":"ticket-choose","trial_index":84,"time_elapsed":2245240,"internal_node_id":"0.0-84.0"},{"result":167,"points":2,"place":1,"phase":1,"sequence":12,"prices":[189,167,180,197,165,168,172,213,178,171],"times":[1105,1751],"next_num":2,"trial_type":"ticket-choose","trial_index":85,"time_elapsed":2250424,"internal_node_id":"0.0-85.0"},{"result":163,"points":2,"place":1,"phase":1,"sequence":13,"prices":[176,186,178,217,163,181,187,166,153,209],"times":[1123,4282,851,2595,1126],"next_num":5,"trial_type":"ticket-choose","trial_index":86,"time_elapsed":2263408,"internal_node_id":"0.0-86.0"},{"result":167,"points":2,"place":1,"phase":1,"sequence":14,"prices":[178,175,185,215,167,181,186,168,208,156],"times":[2838,2423,660,614,1080],"next_num":5,"trial_type":"ticket-choose","trial_index":87,"time_elapsed":2274112,"internal_node_id":"0.0-87.0"},{"result":169,"points":1,"place":3,"phase":1,"sequence":15,"prices":[199,193,169,165,202,182,151,164,176,171],"times":[3746,647,2492],"next_num":3,"trial_type":"ticket-choose","trial_index":88,"time_elapsed":2284521,"internal_node_id":"0.0-88.0"},{"result":167,"points":2,"place":1,"phase":1,"sequence":16,"prices":[199,191,188,174,167,193,189,164,176,170],"times":[1173,720,719,767,918],"next_num":5,"trial_type":"ticket-choose","trial_index":89,"time_elapsed":2291859,"internal_node_id":"0.0-89.0"},{"result":158,"points":2,"place":1,"phase":1,"sequence":17,"prices":[177,176,187,225,158,181,187,165,208,153],"times":[4741,685,693,845,3229],"next_num":5,"trial_type":"ticket-choose","trial_index":90,"time_elapsed":2305358,"internal_node_id":"0.0-90.0"},{"result":165,"points":1,"place":2,"phase":1,"sequence":18,"prices":[185,179,191,165,161,173,199,150,188,168],"times":[14423,755,699,1106],"next_num":4,"trial_type":"ticket-choose","trial_index":91,"time_elapsed":2325150,"internal_node_id":"0.0-91.0"},{"result":150,"points":3,"place":0,"phase":1,"sequence":19,"prices":[190,150,175,161,188,207,157,194,178,199],"times":[914,1140],"next_num":2,"trial_type":"ticket-choose","trial_index":92,"time_elapsed":2329300,"internal_node_id":"0.0-92.0"},{"result":165,"points":2,"place":1,"phase":1,"sequence":20,"prices":[177,175,186,210,165,179,187,166,153,208],"times":[680,670,789,2176,3978],"next_num":5,"trial_type":"ticket-choose","trial_index":93,"time_elapsed":2340726,"internal_node_id":"0.0-93.0"},{"result":165,"points":2,"place":1,"phase":1,"sequence":21,"prices":[165,175,187,209,177,180,188,167,154,208],"times":[1187],"next_num":1,"trial_type":"ticket-choose","trial_index":94,"time_elapsed":2345847,"internal_node_id":"0.0-94.0"},{"result":165,"points":1,"place":2,"phase":1,"sequence":22,"prices":[200,173,182,169,207,165,152,202,161,204],"times":[1281,946,658,863,1400,1234],"next_num":6,"trial_type":"ticket-choose","trial_index":95,"time_elapsed":2355301,"internal_node_id":"0.0-95.0"},{"result":154,"points":3,"place":0,"phase":1,"sequence":23,"prices":[158,175,186,209,177,181,188,167,208,154],"times":[884,646,535,528,562,549,515,520,772,585],"next_num":10,"trial_type":"ticket-choose","trial_index":96,"time_elapsed":2365223,"internal_node_id":"0.0-96.0"},{"result":165,"points":3,"place":0,"phase":1,"sequence":24,"prices":[192,172,171,178,188,165,217,168,195,197],"times":[960,661,553,566,633,1060],"next_num":6,"trial_type":"ticket-choose","trial_index":97,"time_elapsed":2372767,"internal_node_id":"0.0-97.0"},{"result":165,"points":2,"place":1,"phase":1,"sequence":25,"prices":[165,175,186,214,177,179,187,166,153,208],"times":[1297],"next_num":1,"trial_type":"ticket-choose","trial_index":98,"time_elapsed":2377404,"internal_node_id":"0.0-98.0"},{"result":165,"points":2,"place":1,"phase":1,"sequence":26,"prices":[183,179,188,165,168,173,205,159,187,191],"times":[1116,3545,619,950],"next_num":4,"trial_type":"ticket-choose","trial_index":99,"time_elapsed":2386245,"internal_node_id":"0.0-99.0"},{"result":157,"points":3,"place":0,"phase":1,"sequence":27,"prices":[201,187,157,184,198,179,188,185,178,170],"times":[699,689,987],"next_num":3,"trial_type":"ticket-choose","trial_index":100,"time_elapsed":2391408,"internal_node_id":"0.0-100.0"},{"result":166,"points":1,"place":3,"phase":1,"sequence":28,"prices":[201,204,179,166,185,165,214,156,202,165],"times":[2856,732,1157,1062],"next_num":4,"trial_type":"ticket-choose","trial_index":101,"time_elapsed":2399826,"internal_node_id":"0.0-101.0"},{"result":167,"points":2,"place":1,"phase":1,"sequence":29,"prices":[178,175,186,212,167,179,187,169,209,153],"times":[954,989,620,657,1162],"next_num":5,"trial_type":"ticket-choose","trial_index":102,"time_elapsed":2406870,"internal_node_id":"0.0-102.0"},{"result":167,"points":2,"place":1,"phase":1,"sequence":30,"prices":[167,175,185,224,178,181,186,168,208,156],"times":[886],"next_num":1,"trial_type":"ticket-choose","trial_index":103,"time_elapsed":2409744,"internal_node_id":"0.0-103.0"},{"result":166,"points":1,"place":2,"phase":1,"sequence":31,"prices":[163,174,186,212,176,181,187,166,153,209],"times":[703,602,549,594,747,634,583,912],"next_num":8,"trial_type":"ticket-choose","trial_index":104,"time_elapsed":2418503,"internal_node_id":"0.0-104.0"},{"result":158,"points":2,"place":1,"phase":1,"sequence":32,"prices":[177,175,186,209,158,181,188,167,208,154],"times":[690,638,627,577,967],"next_num":5,"trial_type":"ticket-choose","trial_index":105,"time_elapsed":2424871,"internal_node_id":"0.0-105.0"},{"result":158,"points":2,"place":1,"phase":1,"sequence":33,"prices":[158,176,187,210,177,181,187,165,208,153],"times":[965],"next_num":1,"trial_type":"ticket-choose","trial_index":106,"time_elapsed":2427795,"internal_node_id":"0.0-106.0"},{"result":158,"points":2,"place":1,"phase":1,"sequence":34,"prices":[177,175,186,221,158,180,187,166,209,153],"times":[713,633,699,767,1002],"next_num":5,"trial_type":"ticket-choose","trial_index":107,"time_elapsed":2435536,"internal_node_id":"0.0-107.0"},{"result":163,"points":1,"place":2,"phase":1,"sequence":35,"prices":[173,163,185,181,166,148,160,185,176,184],"times":[1507,831],"next_num":2,"trial_type":"ticket-choose","trial_index":108,"time_elapsed":2440123,"internal_node_id":"0.0-108.0"},{"result":163,"points":2,"place":1,"phase":1,"sequence":36,"prices":[163,175,186,214,176,179,187,166,153,208],"times":[1094],"next_num":1,"trial_type":"ticket-choose","trial_index":109,"time_elapsed":2443237,"internal_node_id":"0.0-109.0"},{"result":158,"points":3,"place":0,"phase":1,"sequence":37,"prices":[214,184,226,192,215,158,199,175,176,208],"times":[656,3165,2837,729,1306,1431],"next_num":6,"trial_type":"ticket-choose","trial_index":110,"time_elapsed":2456792,"internal_node_id":"0.0-110.0"},{"result":186,"points":1,"place":4,"phase":1,"sequence":38,"prices":[220,173,201,197,169,205,198,183,178,186],"times":[2207,4388,574,846,379,598,897,671,854,582],"next_num":10,"trial_type":"ticket-choose","trial_index":111,"time_elapsed":2472869,"internal_node_id":"0.0-111.0"},{"result":169,"points":0,"place":5,"phase":1,"sequence":39,"prices":[171,169,186,165,163,167,220,148,187,165],"times":[827,1027],"next_num":2,"trial_type":"ticket-choose","trial_index":112,"time_elapsed":2477005,"internal_node_id":"0.0-112.0"},{"result":163,"points":2,"place":1,"phase":1,"sequence":40,"prices":[163,175,187,209,176,180,188,165,154,208],"times":[1173],"next_num":1,"trial_type":"ticket-choose","trial_index":113,"time_elapsed":2480210,"internal_node_id":"0.0-113.0"},{"result":165,"points":2,"place":1,"phase":1,"sequence":41,"prices":[193,174,224,165,187,190,224,161,194,195],"times":[5693,629,644,985],"next_num":4,"trial_type":"ticket-choose","trial_index":114,"time_elapsed":2490680,"internal_node_id":"0.0-114.0"},{"result":165,"points":2,"place":1,"phase":1,"sequence":42,"prices":[165,174,186,212,177,181,187,166,153,209],"times":[1175],"next_num":1,"trial_type":"ticket-choose","trial_index":115,"time_elapsed":2493825,"internal_node_id":"0.0-115.0"},{"result":159,"points":1,"place":2,"phase":1,"sequence":43,"prices":[181,159,149,175,185,151,163,174,178,207],"times":[812,798],"next_num":2,"trial_type":"ticket-choose","trial_index":116,"time_elapsed":2497889,"internal_node_id":"0.0-116.0"},{"result":165,"points":2,"place":1,"phase":1,"sequence":44,"prices":[177,174,186,217,165,181,187,166,153,209],"times":[3369,859,605,573,930],"next_num":5,"trial_type":"ticket-choose","trial_index":117,"time_elapsed":2507007,"internal_node_id":"0.0-117.0"},{"result":165,"points":3,"place":0,"phase":1,"sequence":45,"prices":[193,181,175,181,185,165,224,199,218,184],"times":[737,727,759,692,856,903],"next_num":6,"trial_type":"ticket-choose","trial_index":118,"time_elapsed":2515037,"internal_node_id":"0.0-118.0"},{"result":167,"points":1,"place":2,"phase":1,"sequence":46,"prices":[167,153,172,185,195,143,184,211,177,227],"times":[2054],"next_num":1,"trial_type":"ticket-choose","trial_index":119,"time_elapsed":2519224,"internal_node_id":"0.0-119.0"},{"result":167,"points":2,"place":1,"phase":1,"sequence":47,"prices":[167,174,186,211,178,181,188,168,208,156],"times":[1035],"next_num":1,"trial_type":"ticket-choose","trial_index":120,"time_elapsed":2523026,"internal_node_id":"0.0-120.0"},{"result":163,"points":2,"place":1,"phase":1,"sequence":48,"prices":[176,187,179,209,163,180,188,165,154,208],"times":[1024,610,717,682,4022],"next_num":5,"trial_type":"ticket-choose","trial_index":121,"time_elapsed":2534234,"internal_node_id":"0.0-121.0"},{"result":152,"points":3,"place":0,"phase":1,"sequence":49,"prices":[200,180,203,152,175,170,160,154,176,191],"times":[1127,1295,616,1455],"next_num":4,"trial_type":"ticket-choose","trial_index":122,"time_elapsed":2541378,"internal_node_id":"0.0-122.0"},{"responses":[{"value":3,"offby":2,"category":"$115 - $130","category_index":0},{"value":8,"offby":3,"category":"$131 - $145","category_index":1},{"value":13,"offby":1,"category":"$146 - $160","category_index":2},{"value":19,"offby":-3,"category":"$161 - $175","category_index":3},{"value":30,"offby":-4,"category":"$176 - $190","category_index":4},{"value":18,"offby":3,"category":"$191 - $205","category_index":5},{"value":9,"offby":-2,"category":"$206 - $220","category_index":6}],"phase":1,"number":1,"trial_type":"bar-choose","trial_index":123,"time_elapsed":2562329,"internal_node_id":"0.0-123.0"},{"special_comment":"Not really, no.","trial_type":"special_sequence","trial_index":124,"time_elapsed":2569162,"internal_node_id":"0.0-124.0"},{"during":"Nothing","bonus":252,"trial_type":"final","trial_index":125,"time_elapsed":2585429,"internal_node_id":"0.0-125.0"}],"bonus":252}