{"start_time":"2017-05-24 16:30:52","end_time":"2017-05-24 16:47:53","points_phase0":102,"points_phase1":111,"phase_order":1,"age":29,"gender":"m","tries":1,"during":"Nothing","worker_id":"A1MVMCWGWM4FM9","assignment_id":"35GMH2SV3FAD2PHLCSEH9FEEJ3QOEN","data":[{"rt":2323,"url":"\/christiane\/tickets\/utils\/consent.html","trial_type":"html","trial_index":0,"time_elapsed":2828,"internal_node_id":"0.0-0.0"},{"age":29,"gender":"m","trial_type":"age","trial_index":1,"time_elapsed":7490,"internal_node_id":"0.0-1.0"},{"worker_id":"A1MVMCWGWM4FM9","trial_type":"workerid","trial_index":2,"time_elapsed":15865,"internal_node_id":"0.0-2.0"},{"tries":1,"trial_type":"instructions_check","trial_index":3,"time_elapsed":31999,"internal_node_id":"0.0-3.0"},{"rt":5491,"url":"\/christiane\/tickets\/utils\/start.html","trial_type":"html","trial_index":4,"time_elapsed":38609,"internal_node_id":"0.0-4.0"},{"trial_type":"number-animation","trial_index":5,"time_elapsed":56779,"internal_node_id":"0.0-5.0"},{"phase":0,"sequence":0,"avg":181,"response":175,"trial_type":"training_avg","trial_index":6,"time_elapsed":63818,"internal_node_id":"0.0-6.0"},{"trial_type":"number-animation","trial_index":7,"time_elapsed":84248,"internal_node_id":"0.0-7.0"},{"phase":0,"sequence":1,"avg":188,"response":187,"trial_type":"training_avg","trial_index":8,"time_elapsed":92920,"internal_node_id":"0.0-8.0"},{"trial_type":"number-animation","trial_index":9,"time_elapsed":114638,"internal_node_id":"0.0-9.0"},{"phase":0,"sequence":2,"avg":188,"response":185,"trial_type":"training_avg","trial_index":10,"time_elapsed":119914,"internal_node_id":"0.0-10.0"},{"trial_type":"number-animation","trial_index":11,"time_elapsed":145305,"internal_node_id":"0.0-11.0"},{"phase":0,"sequence":3,"avg":177,"response":172,"trial_type":"training_avg","trial_index":12,"time_elapsed":150771,"internal_node_id":"0.0-12.0"},{"trial_type":"number-animation","trial_index":13,"time_elapsed":169239,"internal_node_id":"0.0-13.0"},{"phase":0,"sequence":4,"avg":182,"response":184,"trial_type":"training_avg","trial_index":14,"time_elapsed":174065,"internal_node_id":"0.0-14.0"},{"responses":[{"value":2,"offby":1,"category":"$115 - $130","category_index":0},{"value":8,"offby":3,"category":"$131 - $145","category_index":1},{"value":10,"offby":-2,"category":"$146 - $160","category_index":2},{"value":20,"offby":-2,"category":"$161 - $175","category_index":3},{"value":40,"offby":6,"category":"$176 - $190","category_index":4},{"value":15,"offby":0,"category":"$191 - $205","category_index":5},{"value":5,"offby":-6,"category":"$206 - $220","category_index":6}],"phase":0,"number":0,"trial_type":"bar-choose","trial_index":15,"time_elapsed":228808,"internal_node_id":"0.0-15.0"},{"rt":7599,"url":"\/christiane\/tickets\/utils\/testing.html","trial_type":"html","trial_index":16,"time_elapsed":237518,"internal_node_id":"0.0-16.0"},{"phase":0,"order":[11,15,43,29,28,13,0,32,26,48,24,38,3,17,40,12,42,35,31,7,5,2,49,20,33,30,37,14,10,46,34,18,6,16,36,22,8,4,45,1,27,25,44,19,21,23,47,39,9,41],"trial_type":"store_order","trial_index":17,"time_elapsed":238522,"internal_node_id":"0.0-17.0"},{"result":165,"points":2,"place":1,"phase":0,"sequence":-1,"prices":[184,180,224,165,181,199,185,193,218,146],"times":[1772,1006,1013,2823],"next_num":4,"trial_type":"ticket-choose","trial_index":18,"time_elapsed":248350,"internal_node_id":"0.0-18.0"},{"rt":14927,"url":"\/christiane\/tickets\/utils\/testing_after.html","trial_type":"html","trial_index":19,"time_elapsed":264386,"internal_node_id":"0.0-19.0"},{"result":165,"points":2,"place":1,"phase":0,"sequence":0,"prices":[191,170,182,165,175,182,203,157,195,200],"times":[1503,953,3074,967],"next_num":4,"trial_type":"ticket-choose","trial_index":20,"time_elapsed":274306,"internal_node_id":"0.0-20.0"},{"result":165,"points":2,"place":1,"phase":0,"sequence":1,"prices":[193,174,224,165,187,190,224,161,194,195],"times":[1052,798,715,1750],"next_num":4,"trial_type":"ticket-choose","trial_index":21,"time_elapsed":281516,"internal_node_id":"0.0-21.0"},{"result":165,"points":3,"place":0,"phase":0,"sequence":2,"prices":[189,167,180,197,165,168,172,213,178,171],"times":[800,721,582,638,956],"next_num":5,"trial_type":"ticket-choose","trial_index":22,"time_elapsed":288572,"internal_node_id":"0.0-22.0"},{"result":165,"points":2,"place":1,"phase":0,"sequence":3,"prices":[177,174,186,217,165,181,187,166,153,209],"times":[1140,655,615,614,971],"next_num":5,"trial_type":"ticket-choose","trial_index":23,"time_elapsed":295593,"internal_node_id":"0.0-23.0"},{"result":163,"points":2,"place":1,"phase":0,"sequence":4,"prices":[163,174,186,212,176,181,187,166,153,209],"times":[1312],"next_num":1,"trial_type":"ticket-choose","trial_index":24,"time_elapsed":298856,"internal_node_id":"0.0-24.0"},{"result":167,"points":2,"place":1,"phase":0,"sequence":5,"prices":[199,191,188,174,167,193,189,164,176,170],"times":[775,548,539,1095,1125],"next_num":5,"trial_type":"ticket-choose","trial_index":25,"time_elapsed":305776,"internal_node_id":"0.0-25.0"},{"result":157,"points":3,"place":0,"phase":0,"sequence":6,"prices":[201,187,157,184,198,179,188,185,178,170],"times":[645,558,899],"next_num":3,"trial_type":"ticket-choose","trial_index":26,"time_elapsed":310610,"internal_node_id":"0.0-26.0"},{"result":165,"points":1,"place":2,"phase":0,"sequence":7,"prices":[199,193,169,165,202,182,151,164,176,171],"times":[608,562,953,813],"next_num":4,"trial_type":"ticket-choose","trial_index":27,"time_elapsed":316144,"internal_node_id":"0.0-27.0"},{"result":165,"points":3,"place":0,"phase":0,"sequence":8,"prices":[193,181,175,181,185,165,224,199,218,184],"times":[582,714,896,570,587,904],"next_num":6,"trial_type":"ticket-choose","trial_index":28,"time_elapsed":323428,"internal_node_id":"0.0-28.0"},{"result":167,"points":2,"place":1,"phase":0,"sequence":9,"prices":[178,175,185,215,167,181,186,168,208,156],"times":[1071,552,487,571,865],"next_num":5,"trial_type":"ticket-choose","trial_index":29,"time_elapsed":329563,"internal_node_id":"0.0-29.0"},{"result":165,"points":2,"place":1,"phase":0,"sequence":10,"prices":[165,175,186,214,177,179,187,166,153,208],"times":[1049],"next_num":1,"trial_type":"ticket-choose","trial_index":30,"time_elapsed":332466,"internal_node_id":"0.0-30.0"},{"result":158,"points":3,"place":0,"phase":0,"sequence":11,"prices":[214,184,226,192,215,158,199,175,176,208],"times":[1002,533,801,587,793,859],"next_num":6,"trial_type":"ticket-choose","trial_index":31,"time_elapsed":339897,"internal_node_id":"0.0-31.0"},{"result":165,"points":2,"place":1,"phase":0,"sequence":12,"prices":[187,201,165,172,196,174,178,154,172,180],"times":[626,502,787],"next_num":3,"trial_type":"ticket-choose","trial_index":32,"time_elapsed":343952,"internal_node_id":"0.0-32.0"},{"result":169,"points":1,"place":3,"phase":0,"sequence":13,"prices":[200,173,182,169,207,165,152,202,161,204],"times":[568,1090,496,1025],"next_num":4,"trial_type":"ticket-choose","trial_index":33,"time_elapsed":349601,"internal_node_id":"0.0-33.0"},{"result":159,"points":1,"place":2,"phase":0,"sequence":14,"prices":[181,159,149,175,185,151,163,174,178,207],"times":[862,819],"next_num":2,"trial_type":"ticket-choose","trial_index":34,"time_elapsed":353406,"internal_node_id":"0.0-34.0"},{"result":165,"points":3,"place":0,"phase":0,"sequence":15,"prices":[192,172,171,178,188,165,217,168,195,197],"times":[524,672,939,903,580,809],"next_num":6,"trial_type":"ticket-choose","trial_index":35,"time_elapsed":360770,"internal_node_id":"0.0-35.0"},{"result":163,"points":2,"place":1,"phase":0,"sequence":16,"prices":[176,187,179,209,163,180,188,165,154,208],"times":[2969,464,601,750,818],"next_num":5,"trial_type":"ticket-choose","trial_index":36,"time_elapsed":368995,"internal_node_id":"0.0-36.0"},{"result":155,"points":2,"place":1,"phase":0,"sequence":17,"prices":[200,207,155,158,156,168,167,135,178,177],"times":[729,897,1005],"next_num":3,"trial_type":"ticket-choose","trial_index":37,"time_elapsed":373826,"internal_node_id":"0.0-37.0"},{"result":163,"points":2,"place":1,"phase":0,"sequence":18,"prices":[176,186,178,217,163,181,187,166,153,209],"times":[649,686,612,692,714],"next_num":5,"trial_type":"ticket-choose","trial_index":38,"time_elapsed":379770,"internal_node_id":"0.0-38.0"},{"result":158,"points":2,"place":1,"phase":0,"sequence":19,"prices":[177,176,187,225,158,181,187,165,208,153],"times":[724,1300,495,638,989],"next_num":5,"trial_type":"ticket-choose","trial_index":39,"time_elapsed":386586,"internal_node_id":"0.0-39.0"},{"result":165,"points":2,"place":1,"phase":0,"sequence":20,"prices":[177,175,187,209,165,180,188,165,154,208],"times":[579,712,654,571,1408],"next_num":5,"trial_type":"ticket-choose","trial_index":40,"time_elapsed":393232,"internal_node_id":"0.0-40.0"},{"result":163,"points":3,"place":0,"phase":0,"sequence":21,"prices":[163,199,196,199,185,195,227,163,177,166],"times":[3386],"next_num":1,"trial_type":"ticket-choose","trial_index":41,"time_elapsed":398612,"internal_node_id":"0.0-41.0"},{"result":152,"points":3,"place":0,"phase":0,"sequence":22,"prices":[200,180,203,152,175,170,160,154,176,191],"times":[741,581,562,1073],"next_num":4,"trial_type":"ticket-choose","trial_index":42,"time_elapsed":403988,"internal_node_id":"0.0-42.0"},{"result":169,"points":1,"place":2,"phase":0,"sequence":23,"prices":[178,175,186,212,167,179,187,169,209,153],"times":[482,492,575,547,853,827,750,825],"next_num":8,"trial_type":"ticket-choose","trial_index":43,"time_elapsed":412656,"internal_node_id":"0.0-43.0"},{"result":158,"points":2,"place":1,"phase":0,"sequence":24,"prices":[158,175,186,209,177,181,188,167,208,154],"times":[942],"next_num":1,"trial_type":"ticket-choose","trial_index":44,"time_elapsed":415316,"internal_node_id":"0.0-44.0"},{"result":167,"points":2,"place":1,"phase":0,"sequence":25,"prices":[178,174,186,217,167,181,188,168,208,156],"times":[745,662,506,560,1065],"next_num":5,"trial_type":"ticket-choose","trial_index":45,"time_elapsed":421468,"internal_node_id":"0.0-45.0"},{"result":163,"points":2,"place":1,"phase":0,"sequence":26,"prices":[163,175,186,214,176,179,187,166,153,208],"times":[1440],"next_num":1,"trial_type":"ticket-choose","trial_index":46,"time_elapsed":424634,"internal_node_id":"0.0-46.0"},{"result":158,"points":2,"place":1,"phase":0,"sequence":27,"prices":[177,175,186,221,158,180,187,166,209,153],"times":[949,867,489,524,738],"next_num":5,"trial_type":"ticket-choose","trial_index":47,"time_elapsed":430784,"internal_node_id":"0.0-47.0"},{"result":154,"points":3,"place":0,"phase":0,"sequence":28,"prices":[165,175,187,209,177,180,188,167,154,208],"times":[1568,463,546,654,710,696,599,1775,702],"next_num":9,"trial_type":"ticket-choose","trial_index":48,"time_elapsed":442016,"internal_node_id":"0.0-48.0"},{"result":165,"points":3,"place":0,"phase":0,"sequence":29,"prices":[196,171,170,184,187,165,211,169,201,202],"times":[989,641,576,560,506,935],"next_num":6,"trial_type":"ticket-choose","trial_index":49,"time_elapsed":449106,"internal_node_id":"0.0-49.0"},{"result":169,"points":2,"place":1,"phase":0,"sequence":30,"prices":[181,214,169,147,182,193,178,184,176,179],"times":[1979,511,1041],"next_num":3,"trial_type":"ticket-choose","trial_index":50,"time_elapsed":454778,"internal_node_id":"0.0-50.0"},{"result":167,"points":2,"place":1,"phase":0,"sequence":31,"prices":[167,174,186,211,178,181,188,168,208,156],"times":[940],"next_num":1,"trial_type":"ticket-choose","trial_index":51,"time_elapsed":457392,"internal_node_id":"0.0-51.0"},{"result":163,"points":2,"place":1,"phase":0,"sequence":32,"prices":[176,175,186,210,163,179,187,166,153,208],"times":[835,1472,554,557,722],"next_num":5,"trial_type":"ticket-choose","trial_index":52,"time_elapsed":464142,"internal_node_id":"0.0-52.0"},{"result":165,"points":1,"place":2,"phase":0,"sequence":33,"prices":[158,176,187,210,177,181,187,165,208,153],"times":[523,741,512,542,552,541,541,791],"next_num":8,"trial_type":"ticket-choose","trial_index":53,"time_elapsed":472100,"internal_node_id":"0.0-53.0"},{"result":163,"points":2,"place":1,"phase":0,"sequence":34,"prices":[163,175,187,209,176,180,188,165,154,208],"times":[833],"next_num":1,"trial_type":"ticket-choose","trial_index":54,"time_elapsed":474620,"internal_node_id":"0.0-54.0"},{"result":158,"points":2,"place":1,"phase":0,"sequence":35,"prices":[158,175,186,211,177,180,187,166,209,153],"times":[1018],"next_num":1,"trial_type":"ticket-choose","trial_index":55,"time_elapsed":477446,"internal_node_id":"0.0-55.0"},{"result":163,"points":1,"place":2,"phase":0,"sequence":36,"prices":[173,163,185,181,166,148,160,185,176,184],"times":[714,1285],"next_num":2,"trial_type":"ticket-choose","trial_index":56,"time_elapsed":481414,"internal_node_id":"0.0-56.0"},{"result":166,"points":1,"place":2,"phase":0,"sequence":37,"prices":[165,174,186,212,177,181,187,166,153,209],"times":[1403,490,569,571,498,657,759,1153],"next_num":8,"trial_type":"ticket-choose","trial_index":57,"time_elapsed":490844,"internal_node_id":"0.0-57.0"},{"result":156,"points":3,"place":0,"phase":0,"sequence":38,"prices":[167,175,185,224,178,181,186,168,208,156],"times":[1724,448,466,491,571,538,528,918,594,869],"next_num":10,"trial_type":"ticket-choose","trial_index":58,"time_elapsed":501694,"internal_node_id":"0.0-58.0"},{"result":165,"points":2,"place":1,"phase":0,"sequence":39,"prices":[183,179,188,165,168,173,205,159,187,191],"times":[719,535,541,841],"next_num":4,"trial_type":"ticket-choose","trial_index":59,"time_elapsed":506695,"internal_node_id":"0.0-59.0"},{"result":153,"points":2,"place":1,"phase":0,"sequence":40,"prices":[167,153,172,185,195,143,184,211,177,227],"times":[1236,733],"next_num":2,"trial_type":"ticket-choose","trial_index":60,"time_elapsed":510524,"internal_node_id":"0.0-60.0"},{"result":165,"points":1,"place":2,"phase":0,"sequence":41,"prices":[171,169,186,165,163,167,220,148,187,165],"times":[730,1137,533,710],"next_num":4,"trial_type":"ticket-choose","trial_index":61,"time_elapsed":515895,"internal_node_id":"0.0-61.0"},{"result":165,"points":1,"place":2,"phase":0,"sequence":42,"prices":[185,179,191,165,161,173,199,150,188,168],"times":[496,975,633,853],"next_num":4,"trial_type":"ticket-choose","trial_index":62,"time_elapsed":521107,"internal_node_id":"0.0-62.0"},{"result":158,"points":2,"place":1,"phase":0,"sequence":43,"prices":[177,175,186,209,158,181,188,167,208,154],"times":[655,476,580,577,801],"next_num":5,"trial_type":"ticket-choose","trial_index":63,"time_elapsed":526694,"internal_node_id":"0.0-63.0"},{"result":150,"points":3,"place":0,"phase":0,"sequence":44,"prices":[190,150,175,161,188,207,157,194,178,199],"times":[778,685],"next_num":2,"trial_type":"ticket-choose","trial_index":64,"time_elapsed":530314,"internal_node_id":"0.0-64.0"},{"result":153,"points":3,"place":0,"phase":0,"sequence":45,"prices":[167,175,186,225,178,179,187,169,209,153],"times":[1173,458,492,573,479,501,563,645,616,794],"next_num":10,"trial_type":"ticket-choose","trial_index":65,"time_elapsed":540330,"internal_node_id":"0.0-65.0"},{"result":165,"points":2,"place":1,"phase":0,"sequence":46,"prices":[177,175,186,210,165,179,187,166,153,208],"times":[747,604,636,517,778],"next_num":5,"trial_type":"ticket-choose","trial_index":66,"time_elapsed":546256,"internal_node_id":"0.0-66.0"},{"result":156,"points":2,"place":1,"phase":0,"sequence":47,"prices":[180,156,149,160,168,186,172,198,176,195],"times":[539,662],"next_num":2,"trial_type":"ticket-choose","trial_index":67,"time_elapsed":549404,"internal_node_id":"0.0-67.0"},{"result":166,"points":1,"place":3,"phase":0,"sequence":48,"prices":[201,204,179,166,185,165,214,156,202,165],"times":[534,527,912,766],"next_num":4,"trial_type":"ticket-choose","trial_index":68,"time_elapsed":554976,"internal_node_id":"0.0-68.0"},{"result":173,"points":2,"place":1,"phase":0,"sequence":49,"prices":[220,173,201,197,169,205,198,183,178,186],"times":[699,882],"next_num":2,"trial_type":"ticket-choose","trial_index":69,"time_elapsed":558596,"internal_node_id":"0.0-69.0"},{"responses":[{"value":0,"offby":-1,"category":"$115 - $130","category_index":0},{"value":0,"offby":-5,"category":"$131 - $145","category_index":1},{"value":10,"offby":-2,"category":"$146 - $160","category_index":2},{"value":20,"offby":-2,"category":"$161 - $175","category_index":3},{"value":40,"offby":6,"category":"$176 - $190","category_index":4},{"value":20,"offby":5,"category":"$191 - $205","category_index":5},{"value":10,"offby":-1,"category":"$206 - $220","category_index":6}],"phase":1,"number":1,"trial_type":"bar-choose","trial_index":70,"time_elapsed":592290,"internal_node_id":"0.0-70.0"},{"rt":17350,"url":"\/christiane\/tickets\/utils\/testing2.html","trial_type":"point_update","trial_index":71,"time_elapsed":610884,"internal_node_id":"0.0-71.0"},{"phase":1,"order":[30,32,39,11,14,45,43,37,24,4,6,46,36,26,44,27,16,41,17,23,10,38,47,5,19,3,12,21,7,28,48,0,15,20,13,18,49,8,1,33,35,31,29,22,40,2,9,34,25,42],"trial_type":"store_order","trial_index":72,"time_elapsed":611886,"internal_node_id":"0.0-72.0"},{"result":165,"points":2,"place":1,"phase":1,"sequence":0,"prices":[174,186,177,217,181,187,165,166,153,209],"times":[1900,665,1559,637,619,1059,933],"next_num":7,"trial_type":"ticket-choose","trial_index":73,"time_elapsed":622516,"internal_node_id":"0.0-73.0"},{"result":163,"points":2,"place":1,"phase":1,"sequence":1,"prices":[175,186,176,210,179,187,163,166,153,208],"times":[1504,609,1026,710,824,493,783],"next_num":7,"trial_type":"ticket-choose","trial_index":74,"time_elapsed":631540,"internal_node_id":"0.0-74.0"},{"result":157,"points":3,"place":0,"phase":1,"sequence":2,"prices":[201,187,157,184,198,179,188,185,178,170],"times":[637,828,761],"next_num":3,"trial_type":"ticket-choose","trial_index":75,"time_elapsed":635878,"internal_node_id":"0.0-75.0"},{"result":171,"points":1,"place":3,"phase":1,"sequence":3,"prices":[185,170,182,201,173,199,171,188,165,168],"times":[715,727,597,691,1189,642,1122],"next_num":7,"trial_type":"ticket-choose","trial_index":76,"time_elapsed":644550,"internal_node_id":"0.0-76.0"},{"result":165,"points":3,"place":0,"phase":1,"sequence":4,"prices":[196,165,170,184,187,211,171,201,202,185],"times":[601,755],"next_num":2,"trial_type":"ticket-choose","trial_index":77,"time_elapsed":647915,"internal_node_id":"0.0-77.0"},{"result":163,"points":2,"place":1,"phase":1,"sequence":5,"prices":[175,187,163,209,180,188,176,165,154,208],"times":[958,540,970],"next_num":3,"trial_type":"ticket-choose","trial_index":78,"time_elapsed":652492,"internal_node_id":"0.0-78.0"},{"result":168,"points":1,"place":2,"phase":1,"sequence":6,"prices":[174,186,167,211,181,188,178,168,208,156],"times":[394,499,802,497,491,440,462,1396],"next_num":8,"trial_type":"ticket-choose","trial_index":79,"time_elapsed":660804,"internal_node_id":"0.0-79.0"},{"result":165,"points":3,"place":0,"phase":1,"sequence":7,"prices":[193,169,171,187,190,224,174,194,165,188],"times":[648,755,577,484,498,568,455,562,729],"next_num":9,"trial_type":"ticket-choose","trial_index":80,"time_elapsed":669500,"internal_node_id":"0.0-80.0"},{"result":165,"points":2,"place":1,"phase":1,"sequence":8,"prices":[200,165,165,173,182,207,161,202,204,180],"times":[511,893],"next_num":2,"trial_type":"ticket-choose","trial_index":81,"time_elapsed":672865,"internal_node_id":"0.0-81.0"},{"result":179,"points":1,"place":4,"phase":1,"sequence":9,"prices":[181,215,169,147,182,193,177,184,176,179],"times":[566,2820,1492,434,1504,563,482,615,1078,725],"next_num":10,"trial_type":"ticket-choose","trial_index":82,"time_elapsed":687153,"internal_node_id":"0.0-82.0"},{"result":165,"points":3,"place":0,"phase":1,"sequence":10,"prices":[193,165,175,181,185,224,180,199,218,184],"times":[844,791],"next_num":2,"trial_type":"ticket-choose","trial_index":83,"time_elapsed":690885,"internal_node_id":"0.0-83.0"},{"result":163,"points":3,"place":0,"phase":1,"sequence":11,"prices":[168,199,196,198,185,195,227,163,177,166],"times":[3939,562,531,564,561,669,619,880],"next_num":8,"trial_type":"ticket-choose","trial_index":84,"time_elapsed":702457,"internal_node_id":"0.0-84.0"},{"result":167,"points":2,"place":1,"phase":1,"sequence":12,"prices":[174,186,178,217,181,188,167,168,208,156],"times":[685,616,638,550,631,568,1045],"next_num":7,"trial_type":"ticket-choose","trial_index":85,"time_elapsed":710230,"internal_node_id":"0.0-85.0"},{"result":163,"points":2,"place":1,"phase":1,"sequence":13,"prices":[174,186,176,217,181,187,163,166,153,209],"times":[1074,558,707,524,618,568,790],"next_num":7,"trial_type":"ticket-choose","trial_index":86,"time_elapsed":718134,"internal_node_id":"0.0-86.0"},{"result":150,"points":3,"place":0,"phase":1,"sequence":14,"prices":[189,150,175,160,188,207,158,194,178,199],"times":[627,1075],"next_num":2,"trial_type":"ticket-choose","trial_index":87,"time_elapsed":721780,"internal_node_id":"0.0-87.0"},{"result":163,"points":2,"place":1,"phase":1,"sequence":15,"prices":[175,186,163,214,179,187,176,166,153,208],"times":[736,1285,1019],"next_num":3,"trial_type":"ticket-choose","trial_index":88,"time_elapsed":727032,"internal_node_id":"0.0-88.0"},{"result":143,"points":3,"place":0,"phase":1,"sequence":16,"prices":[222,173,202,197,143,205,198,183,178,186],"times":[594,948,589,669,814],"next_num":5,"trial_type":"ticket-choose","trial_index":89,"time_elapsed":733140,"internal_node_id":"0.0-89.0"},{"result":154,"points":2,"place":1,"phase":1,"sequence":17,"prices":[168,154,172,185,195,144,184,211,177,227],"times":[637,825],"next_num":2,"trial_type":"ticket-choose","trial_index":90,"time_elapsed":736512,"internal_node_id":"0.0-90.0"},{"result":165,"points":3,"place":0,"phase":1,"sequence":18,"prices":[171,203,175,170,167,220,192,186,165,165],"times":[872,543,590,525,1482,539,557,576,959],"next_num":9,"trial_type":"ticket-choose","trial_index":91,"time_elapsed":746870,"internal_node_id":"0.0-91.0"},{"result":154,"points":3,"place":0,"phase":1,"sequence":19,"prices":[175,187,165,209,180,188,177,166,154,208],"times":[746,589,893,441,657,571,615,1185,1043],"next_num":9,"trial_type":"ticket-choose","trial_index":92,"time_elapsed":757274,"internal_node_id":"0.0-92.0"},{"result":153,"points":3,"place":0,"phase":1,"sequence":20,"prices":[175,186,178,212,179,187,167,169,209,153],"times":[735,522,522,673,717,655,734,796,665,676],"next_num":10,"trial_type":"ticket-choose","trial_index":93,"time_elapsed":767674,"internal_node_id":"0.0-93.0"},{"result":153,"points":3,"place":0,"phase":1,"sequence":21,"prices":[175,186,167,225,179,187,178,169,209,153],"times":[679,466,867,543,741,569,613,989,495,841],"next_num":10,"trial_type":"ticket-choose","trial_index":94,"time_elapsed":778429,"internal_node_id":"0.0-94.0"},{"result":163,"points":1,"place":2,"phase":1,"sequence":22,"prices":[183,163,185,180,166,148,160,186,176,184],"times":[775,809],"next_num":2,"trial_type":"ticket-choose","trial_index":95,"time_elapsed":782113,"internal_node_id":"0.0-95.0"},{"result":158,"points":2,"place":1,"phase":1,"sequence":23,"prices":[176,187,158,210,181,187,177,165,208,153],"times":[669,810,895],"next_num":3,"trial_type":"ticket-choose","trial_index":96,"time_elapsed":786632,"internal_node_id":"0.0-96.0"},{"result":170,"points":1,"place":3,"phase":1,"sequence":24,"prices":[183,182,192,168,173,205,167,187,165,170],"times":[618,488,647,797,546,611,595,668,1017,774],"next_num":10,"trial_type":"ticket-choose","trial_index":97,"time_elapsed":797121,"internal_node_id":"0.0-97.0"},{"result":165,"points":3,"place":0,"phase":1,"sequence":25,"prices":[191,172,169,175,182,203,170,195,165,176],"times":[665,521,669,536,566,562,551,691,774],"next_num":9,"trial_type":"ticket-choose","trial_index":98,"time_elapsed":806098,"internal_node_id":"0.0-98.0"},{"result":163,"points":2,"place":1,"phase":1,"sequence":26,"prices":[198,193,169,163,202,182,152,164,177,171],"times":[677,510,739,769],"next_num":4,"trial_type":"ticket-choose","trial_index":99,"time_elapsed":811122,"internal_node_id":"0.0-99.0"},{"result":163,"points":2,"place":1,"phase":1,"sequence":27,"prices":[174,186,163,212,181,187,176,166,153,209],"times":[669,1507,962],"next_num":3,"trial_type":"ticket-choose","trial_index":100,"time_elapsed":816387,"internal_node_id":"0.0-100.0"},{"result":165,"points":2,"place":1,"phase":1,"sequence":28,"prices":[175,187,177,209,180,188,165,165,154,208],"times":[610,678,1135,891,1558,549,962],"next_num":7,"trial_type":"ticket-choose","trial_index":101,"time_elapsed":825710,"internal_node_id":"0.0-101.0"},{"result":158,"points":3,"place":0,"phase":1,"sequence":29,"prices":[210,184,226,193,215,158,199,175,176,208],"times":[646,557,630,660,696,854],"next_num":6,"trial_type":"ticket-choose","trial_index":102,"time_elapsed":832506,"internal_node_id":"0.0-102.0"},{"result":155,"points":2,"place":1,"phase":1,"sequence":30,"prices":[181,155,148,161,168,187,172,199,176,194],"times":[888,717],"next_num":2,"trial_type":"ticket-choose","trial_index":103,"time_elapsed":835982,"internal_node_id":"0.0-103.0"},{"result":158,"points":2,"place":1,"phase":1,"sequence":31,"prices":[175,186,158,211,180,187,177,166,209,153],"times":[387,663,738],"next_num":3,"trial_type":"ticket-choose","trial_index":104,"time_elapsed":839881,"internal_node_id":"0.0-104.0"},{"result":153,"points":3,"place":0,"phase":1,"sequence":32,"prices":[175,186,165,214,179,187,177,166,153,208],"times":[932,486,911,484,565,511,552,921,821],"next_num":9,"trial_type":"ticket-choose","trial_index":105,"time_elapsed":849514,"internal_node_id":"0.0-105.0"},{"result":163,"points":2,"place":1,"phase":1,"sequence":33,"prices":[175,187,176,209,180,188,163,165,154,208],"times":[1097,520,496,563,635,756,715],"next_num":7,"trial_type":"ticket-choose","trial_index":106,"time_elapsed":857230,"internal_node_id":"0.0-106.0"},{"result":165,"points":2,"place":1,"phase":1,"sequence":34,"prices":[188,200,165,172,198,174,177,154,177,180],"times":[548,521,895],"next_num":3,"trial_type":"ticket-choose","trial_index":107,"time_elapsed":861272,"internal_node_id":"0.0-107.0"},{"result":158,"points":2,"place":1,"phase":1,"sequence":35,"prices":[175,186,177,209,181,188,158,167,208,154],"times":[569,551,579,613,519,562,849],"next_num":7,"trial_type":"ticket-choose","trial_index":108,"time_elapsed":868550,"internal_node_id":"0.0-108.0"},{"result":165,"points":2,"place":1,"phase":1,"sequence":36,"prices":[174,186,165,212,181,187,177,167,153,209],"times":[2292,610,775],"next_num":3,"trial_type":"ticket-choose","trial_index":109,"time_elapsed":874318,"internal_node_id":"0.0-109.0"},{"result":156,"points":3,"place":0,"phase":1,"sequence":37,"prices":[175,185,178,215,181,186,167,168,208,156],"times":[822,503,496,604,625,587,735,905,685,652],"next_num":10,"trial_type":"ticket-choose","trial_index":110,"time_elapsed":884552,"internal_node_id":"0.0-110.0"},{"result":167,"points":2,"place":1,"phase":1,"sequence":38,"prices":[212,192,188,184,167,193,189,164,176,170],"times":[604,735,508,645,1785],"next_num":5,"trial_type":"ticket-choose","trial_index":111,"time_elapsed":891474,"internal_node_id":"0.0-111.0"},{"result":156,"points":3,"place":0,"phase":1,"sequence":39,"prices":[175,185,167,224,181,186,178,168,208,156],"times":[618,499,857,494,564,525,541,866,542,633],"next_num":10,"trial_type":"ticket-choose","trial_index":112,"time_elapsed":901596,"internal_node_id":"0.0-112.0"},{"result":165,"points":3,"place":0,"phase":1,"sequence":40,"prices":[192,165,171,178,188,217,172,195,197,186],"times":[1632,829],"next_num":2,"trial_type":"ticket-choose","trial_index":113,"time_elapsed":906380,"internal_node_id":"0.0-113.0"},{"result":165,"points":2,"place":1,"phase":1,"sequence":41,"prices":[201,165,162,166,185,214,165,202,204,179],"times":[977,749],"next_num":2,"trial_type":"ticket-choose","trial_index":114,"time_elapsed":910094,"internal_node_id":"0.0-114.0"},{"result":159,"points":1,"place":2,"phase":1,"sequence":42,"prices":[180,159,149,175,185,141,163,174,178,207],"times":[498,688],"next_num":2,"trial_type":"ticket-choose","trial_index":115,"time_elapsed":913300,"internal_node_id":"0.0-115.0"},{"result":158,"points":2,"place":1,"phase":1,"sequence":43,"prices":[175,186,158,209,181,188,177,167,208,154],"times":[566,577,722],"next_num":3,"trial_type":"ticket-choose","trial_index":116,"time_elapsed":917434,"internal_node_id":"0.0-116.0"},{"result":158,"points":2,"place":1,"phase":1,"sequence":44,"prices":[175,186,177,221,180,187,158,166,209,153],"times":[634,998,653,587,565,642,855],"next_num":7,"trial_type":"ticket-choose","trial_index":117,"time_elapsed":925437,"internal_node_id":"0.0-117.0"},{"result":158,"points":2,"place":1,"phase":1,"sequence":45,"prices":[176,187,177,225,181,187,158,165,208,153],"times":[664,573,627,699,1679,644,763],"next_num":7,"trial_type":"ticket-choose","trial_index":118,"time_elapsed":934071,"internal_node_id":"0.0-118.0"},{"result":152,"points":3,"place":0,"phase":1,"sequence":46,"prices":[200,181,203,152,175,171,160,154,176,191],"times":[489,476,513,696],"next_num":4,"trial_type":"ticket-choose","trial_index":119,"time_elapsed":938604,"internal_node_id":"0.0-119.0"},{"result":171,"points":1,"place":3,"phase":1,"sequence":47,"prices":[189,167,180,197,165,168,172,213,178,171],"times":[717,679,524,571,690,659,527,549,587,598],"next_num":10,"trial_type":"ticket-choose","trial_index":120,"time_elapsed":948362,"internal_node_id":"0.0-120.0"},{"result":165,"points":2,"place":1,"phase":1,"sequence":48,"prices":[175,186,177,210,179,187,165,166,153,208],"times":[537,513,508,575,526,576,660],"next_num":7,"trial_type":"ticket-choose","trial_index":121,"time_elapsed":955275,"internal_node_id":"0.0-121.0"},{"result":155,"points":2,"place":1,"phase":1,"sequence":49,"prices":[201,207,155,158,156,165,167,135,178,177],"times":[559,552,827],"next_num":3,"trial_type":"ticket-choose","trial_index":122,"time_elapsed":959402,"internal_node_id":"0.0-122.0"},{"responses":[{"value":0,"offby":-1,"category":"$115 - $130","category_index":0},{"value":0,"offby":-5,"category":"$131 - $145","category_index":1},{"value":10,"offby":-2,"category":"$146 - $160","category_index":2},{"value":15,"offby":-7,"category":"$161 - $175","category_index":3},{"value":50,"offby":16,"category":"$176 - $190","category_index":4},{"value":20,"offby":5,"category":"$191 - $205","category_index":5},{"value":5,"offby":-6,"category":"$206 - $220","category_index":6}],"phase":1,"number":1,"trial_type":"bar-choose","trial_index":123,"time_elapsed":992861,"internal_node_id":"0.0-123.0"},{"special_comment":"No.","trial_type":"special_sequence","trial_index":124,"time_elapsed":997752,"internal_node_id":"0.0-124.0"},{"during":"Nothing","bonus":284,"trial_type":"final","trial_index":125,"time_elapsed":1015091,"internal_node_id":"0.0-125.0"}],"bonus":284}