{"start_time":"2017-05-24 17:24:54","end_time":"2017-05-24 17:52:00","points_phase0":100,"points_phase1":120,"phase_order":0,"age":25,"gender":"f","tries":2,"during":"Nothing","worker_id":"A1OBB3PWYWK9KK","assignment_id":"3JV9LGBJWU7BM3DCIN459IZQWJ3GOU","data":[{"rt":52043,"url":"\/christiane\/tickets\/utils\/consent.html","trial_type":"html","trial_index":0,"time_elapsed":52139,"internal_node_id":"0.0-0.0"},{"age":25,"gender":"f","trial_type":"age","trial_index":1,"time_elapsed":83049,"internal_node_id":"0.0-1.0"},{"worker_id":"A1OBB3PWYWK9KK","trial_type":"workerid","trial_index":2,"time_elapsed":86962,"internal_node_id":"0.0-2.0"},{"tries":2,"trial_type":"instructions_check","trial_index":3,"time_elapsed":114254,"internal_node_id":"0.0-3.0"},{"rt":4536,"url":"\/christiane\/tickets\/utils\/start.html","trial_type":"html","trial_index":4,"time_elapsed":119992,"internal_node_id":"0.0-4.0"},{"trial_type":"number-animation","trial_index":5,"time_elapsed":132239,"internal_node_id":"0.0-5.0"},{"phase":0,"sequence":0,"avg":181,"response":175,"trial_type":"training_avg","trial_index":6,"time_elapsed":141672,"internal_node_id":"0.0-6.0"},{"trial_type":"number-animation","trial_index":7,"time_elapsed":151738,"internal_node_id":"0.0-7.0"},{"phase":0,"sequence":1,"avg":188,"response":180,"trial_type":"training_avg","trial_index":8,"time_elapsed":160905,"internal_node_id":"0.0-8.0"},{"trial_type":"number-animation","trial_index":9,"time_elapsed":169262,"internal_node_id":"0.0-9.0"},{"phase":0,"sequence":2,"avg":188,"response":190,"trial_type":"training_avg","trial_index":10,"time_elapsed":176998,"internal_node_id":"0.0-10.0"},{"trial_type":"number-animation","trial_index":11,"time_elapsed":186131,"internal_node_id":"0.0-11.0"},{"phase":0,"sequence":3,"avg":177,"response":175,"trial_type":"training_avg","trial_index":12,"time_elapsed":193165,"internal_node_id":"0.0-12.0"},{"trial_type":"number-animation","trial_index":13,"time_elapsed":200201,"internal_node_id":"0.0-13.0"},{"phase":0,"sequence":4,"avg":182,"response":165,"trial_type":"training_avg","trial_index":14,"time_elapsed":205104,"internal_node_id":"0.0-14.0"},{"responses":[{"value":1,"offby":0,"category":"$115 - $130","category_index":0},{"value":3,"offby":-2,"category":"$131 - $145","category_index":1},{"value":15,"offby":3,"category":"$146 - $160","category_index":2},{"value":25,"offby":3,"category":"$161 - $175","category_index":3},{"value":31,"offby":-3,"category":"$176 - $190","category_index":4},{"value":20,"offby":5,"category":"$191 - $205","category_index":5},{"value":5,"offby":-6,"category":"$206 - $220","category_index":6}],"phase":0,"number":0,"trial_type":"bar-choose","trial_index":15,"time_elapsed":300488,"internal_node_id":"0.0-15.0"},{"rt":11539,"url":"\/christiane\/tickets\/utils\/testing.html","trial_type":"html","trial_index":16,"time_elapsed":313197,"internal_node_id":"0.0-16.0"},{"phase":0,"order":[11,21,25,49,30,28,29,8,47,22,43,42,12,45,26,17,20,44,7,32,10,46,13,24,3,41,33,2,5,48,1,18,16,6,4,0,23,40,38,15,27,35,19,36,37,14,34,39,31,9],"trial_type":"store_order","trial_index":17,"time_elapsed":314207,"internal_node_id":"0.0-17.0"},{"result":165,"points":2,"place":1,"phase":0,"sequence":-1,"prices":[184,180,224,165,181,199,185,193,218,146],"times":[5027,1204,727,1845],"next_num":4,"trial_type":"ticket-choose","trial_index":18,"time_elapsed":326191,"internal_node_id":"0.0-18.0"},{"rt":17346,"url":"\/christiane\/tickets\/utils\/testing_after.html","trial_type":"html","trial_index":19,"time_elapsed":344735,"internal_node_id":"0.0-19.0"},{"result":165,"points":2,"place":1,"phase":0,"sequence":0,"prices":[174,186,177,217,181,187,165,166,153,209],"times":[1448,618,913,784,1465,705,2059],"next_num":7,"trial_type":"ticket-choose","trial_index":20,"time_elapsed":356694,"internal_node_id":"0.0-20.0"},{"result":158,"points":2,"place":1,"phase":0,"sequence":1,"prices":[175,186,177,221,180,187,158,166,209,153],"times":[957,496,431,474,477,588,1675],"next_num":7,"trial_type":"ticket-choose","trial_index":21,"time_elapsed":365697,"internal_node_id":"0.0-21.0"},{"result":179,"points":1,"place":4,"phase":0,"sequence":2,"prices":[201,165,162,166,185,214,165,202,204,179],"times":[753,1818,5125,609,642,519,566,962,3298,1164],"next_num":10,"trial_type":"ticket-choose","trial_index":22,"time_elapsed":385341,"internal_node_id":"0.0-22.0"},{"result":163,"points":1,"place":2,"phase":0,"sequence":3,"prices":[183,163,185,180,166,148,160,186,176,184],"times":[619,1644],"next_num":2,"trial_type":"ticket-choose","trial_index":23,"time_elapsed":390361,"internal_node_id":"0.0-23.0"},{"result":165,"points":3,"place":0,"phase":0,"sequence":4,"prices":[191,172,169,175,182,203,170,195,165,176],"times":[700,826,744,558,518,750,527,632,2139],"next_num":9,"trial_type":"ticket-choose","trial_index":24,"time_elapsed":403160,"internal_node_id":"0.0-24.0"},{"result":185,"points":1,"place":4,"phase":0,"sequence":5,"prices":[196,165,170,184,187,211,171,201,202,185],"times":[736,1806,470,466,477,528,499,837,875,1498],"next_num":10,"trial_type":"ticket-choose","trial_index":25,"time_elapsed":415561,"internal_node_id":"0.0-25.0"},{"result":171,"points":1,"place":3,"phase":0,"sequence":6,"prices":[185,170,182,201,173,199,171,188,165,168],"times":[704,509,534,489,502,514,2557],"next_num":7,"trial_type":"ticket-choose","trial_index":26,"time_elapsed":424894,"internal_node_id":"0.0-26.0"},{"result":165,"points":2,"place":1,"phase":0,"sequence":7,"prices":[174,186,165,212,181,187,177,167,153,209],"times":[937,494,1776],"next_num":3,"trial_type":"ticket-choose","trial_index":27,"time_elapsed":430474,"internal_node_id":"0.0-27.0"},{"result":152,"points":3,"place":0,"phase":0,"sequence":8,"prices":[200,181,203,152,175,171,160,154,176,191],"times":[954,569,545,1820],"next_num":4,"trial_type":"ticket-choose","trial_index":28,"time_elapsed":437129,"internal_node_id":"0.0-28.0"},{"result":158,"points":2,"place":1,"phase":0,"sequence":9,"prices":[175,186,177,209,181,188,158,167,208,154],"times":[683,512,483,568,501,547,1583],"next_num":7,"trial_type":"ticket-choose","trial_index":29,"time_elapsed":445234,"internal_node_id":"0.0-29.0"},{"result":157,"points":3,"place":0,"phase":0,"sequence":10,"prices":[201,187,157,184,198,179,188,185,178,170],"times":[474,480,1732],"next_num":3,"trial_type":"ticket-choose","trial_index":30,"time_elapsed":450544,"internal_node_id":"0.0-30.0"},{"result":143,"points":3,"place":0,"phase":0,"sequence":11,"prices":[222,173,202,197,143,205,198,183,178,186],"times":[593,709,517,522,1616],"next_num":5,"trial_type":"ticket-choose","trial_index":31,"time_elapsed":457352,"internal_node_id":"0.0-31.0"},{"result":163,"points":2,"place":1,"phase":0,"sequence":12,"prices":[175,186,163,214,179,187,176,166,153,208],"times":[596,446,1874],"next_num":3,"trial_type":"ticket-choose","trial_index":32,"time_elapsed":462580,"internal_node_id":"0.0-32.0"},{"result":167,"points":2,"place":1,"phase":0,"sequence":13,"prices":[212,192,188,184,167,193,189,164,176,170],"times":[930,583,1064,497,2490],"next_num":5,"trial_type":"ticket-choose","trial_index":33,"time_elapsed":471031,"internal_node_id":"0.0-33.0"},{"result":161,"points":3,"place":0,"phase":0,"sequence":14,"prices":[200,165,165,173,182,207,161,202,204,180],"times":[467,2680,829,571,624,538,2085],"next_num":7,"trial_type":"ticket-choose","trial_index":34,"time_elapsed":482239,"internal_node_id":"0.0-34.0"},{"result":163,"points":2,"place":1,"phase":0,"sequence":15,"prices":[174,186,176,217,181,187,163,166,153,209],"times":[611,501,480,485,551,500,2955],"next_num":7,"trial_type":"ticket-choose","trial_index":35,"time_elapsed":491569,"internal_node_id":"0.0-35.0"},{"result":158,"points":2,"place":1,"phase":0,"sequence":16,"prices":[176,187,158,210,181,187,177,165,208,153],"times":[596,511,1338],"next_num":3,"trial_type":"ticket-choose","trial_index":36,"time_elapsed":496457,"internal_node_id":"0.0-36.0"},{"result":159,"points":1,"place":2,"phase":0,"sequence":17,"prices":[180,159,149,175,185,141,163,174,178,207],"times":[570,2151],"next_num":2,"trial_type":"ticket-choose","trial_index":37,"time_elapsed":501737,"internal_node_id":"0.0-37.0"},{"result":165,"points":2,"place":1,"phase":0,"sequence":18,"prices":[175,187,165,209,180,188,177,166,154,208],"times":[537,500,2289],"next_num":3,"trial_type":"ticket-choose","trial_index":38,"time_elapsed":507395,"internal_node_id":"0.0-38.0"},{"result":165,"points":3,"place":0,"phase":0,"sequence":19,"prices":[193,169,171,187,190,224,174,194,165,188],"times":[467,916,608,472,536,477,480,1053,2028],"next_num":9,"trial_type":"ticket-choose","trial_index":39,"time_elapsed":518142,"internal_node_id":"0.0-39.0"},{"result":165,"points":2,"place":1,"phase":0,"sequence":20,"prices":[175,187,177,209,180,188,165,165,154,208],"times":[597,428,503,481,460,426,1755],"next_num":7,"trial_type":"ticket-choose","trial_index":40,"time_elapsed":525981,"internal_node_id":"0.0-40.0"},{"result":208,"points":0,"place":6,"phase":0,"sequence":21,"prices":[210,184,226,193,215,158,199,175,176,208],"times":[494,510,491,526,502,454,720,1163,728,1600],"next_num":10,"trial_type":"ticket-choose","trial_index":41,"time_elapsed":537030,"internal_node_id":"0.0-41.0"},{"result":163,"points":2,"place":1,"phase":0,"sequence":22,"prices":[175,187,163,209,180,188,176,165,154,208],"times":[887,539,1610],"next_num":3,"trial_type":"ticket-choose","trial_index":42,"time_elapsed":542371,"internal_node_id":"0.0-42.0"},{"result":184,"points":1,"place":4,"phase":0,"sequence":23,"prices":[193,165,175,181,185,224,180,199,218,184],"times":[405,3394,501,501,530,504,543,1209,974,1555],"next_num":10,"trial_type":"ticket-choose","trial_index":43,"time_elapsed":556602,"internal_node_id":"0.0-43.0"},{"result":167,"points":2,"place":1,"phase":0,"sequence":24,"prices":[174,186,178,217,181,188,167,168,208,156],"times":[828,527,459,523,549,664,1662],"next_num":7,"trial_type":"ticket-choose","trial_index":44,"time_elapsed":565024,"internal_node_id":"0.0-44.0"},{"result":155,"points":2,"place":1,"phase":0,"sequence":25,"prices":[201,207,155,158,156,165,167,135,178,177],"times":[652,448,1527],"next_num":3,"trial_type":"ticket-choose","trial_index":45,"time_elapsed":570206,"internal_node_id":"0.0-45.0"},{"result":167,"points":2,"place":1,"phase":0,"sequence":26,"prices":[183,182,192,168,173,205,167,187,165,170],"times":[430,518,504,2145,559,563,1977],"next_num":7,"trial_type":"ticket-choose","trial_index":46,"time_elapsed":580108,"internal_node_id":"0.0-46.0"},{"result":167,"points":2,"place":1,"phase":0,"sequence":27,"prices":[175,186,167,225,179,187,178,169,209,153],"times":[415,832,3505],"next_num":3,"trial_type":"ticket-choose","trial_index":47,"time_elapsed":587214,"internal_node_id":"0.0-47.0"},{"result":167,"points":2,"place":1,"phase":0,"sequence":28,"prices":[175,186,178,212,179,187,167,169,209,153],"times":[410,524,1071,768,1234,467,1375],"next_num":7,"trial_type":"ticket-choose","trial_index":48,"time_elapsed":596268,"internal_node_id":"0.0-48.0"},{"result":147,"points":3,"place":0,"phase":0,"sequence":29,"prices":[181,215,169,147,182,193,177,184,176,179],"times":[512,949,2194,1636],"next_num":4,"trial_type":"ticket-choose","trial_index":49,"time_elapsed":604155,"internal_node_id":"0.0-49.0"},{"result":168,"points":1,"place":2,"phase":0,"sequence":30,"prices":[175,185,167,224,181,186,178,168,208,156],"times":[952,580,1153,530,551,604,1516,2637],"next_num":8,"trial_type":"ticket-choose","trial_index":50,"time_elapsed":616245,"internal_node_id":"0.0-50.0"},{"result":158,"points":2,"place":1,"phase":0,"sequence":31,"prices":[175,186,158,211,180,187,177,166,209,153],"times":[561,431,1837],"next_num":3,"trial_type":"ticket-choose","trial_index":51,"time_elapsed":621510,"internal_node_id":"0.0-51.0"},{"result":163,"points":2,"place":1,"phase":0,"sequence":32,"prices":[175,187,176,209,180,188,163,165,154,208],"times":[560,1943,1113,683,534,527,1735],"next_num":7,"trial_type":"ticket-choose","trial_index":52,"time_elapsed":631852,"internal_node_id":"0.0-52.0"},{"result":165,"points":2,"place":1,"phase":0,"sequence":33,"prices":[175,186,165,214,179,187,177,166,153,208],"times":[688,488,2020],"next_num":3,"trial_type":"ticket-choose","trial_index":53,"time_elapsed":637358,"internal_node_id":"0.0-53.0"},{"result":167,"points":2,"place":1,"phase":0,"sequence":34,"prices":[175,185,178,215,181,186,167,168,208,156],"times":[511,496,598,555,592,562,2446],"next_num":7,"trial_type":"ticket-choose","trial_index":54,"time_elapsed":646385,"internal_node_id":"0.0-54.0"},{"result":156,"points":3,"place":0,"phase":0,"sequence":35,"prices":[174,186,167,211,181,188,178,168,208,156],"times":[626,583,4911,459,468,554,493,1371,568,1499],"next_num":10,"trial_type":"ticket-choose","trial_index":55,"time_elapsed":662058,"internal_node_id":"0.0-55.0"},{"result":158,"points":2,"place":1,"phase":0,"sequence":36,"prices":[176,187,177,225,181,187,158,165,208,153],"times":[3434,471,515,599,602,513,1896],"next_num":7,"trial_type":"ticket-choose","trial_index":56,"time_elapsed":673264,"internal_node_id":"0.0-56.0"},{"result":150,"points":3,"place":0,"phase":0,"sequence":37,"prices":[189,150,175,160,188,207,158,194,178,199],"times":[405,1728],"next_num":2,"trial_type":"ticket-choose","trial_index":57,"time_elapsed":677575,"internal_node_id":"0.0-57.0"},{"result":163,"points":3,"place":0,"phase":0,"sequence":38,"prices":[168,199,196,198,185,195,227,163,177,166],"times":[1862,497,492,480,717,560,733,2737],"next_num":8,"trial_type":"ticket-choose","trial_index":58,"time_elapsed":689145,"internal_node_id":"0.0-58.0"},{"result":163,"points":2,"place":1,"phase":0,"sequence":39,"prices":[175,186,176,210,179,187,163,166,153,208],"times":[1062,494,478,528,573,576,1789],"next_num":7,"trial_type":"ticket-choose","trial_index":59,"time_elapsed":697841,"internal_node_id":"0.0-59.0"},{"result":186,"points":1,"place":4,"phase":0,"sequence":40,"prices":[192,165,171,178,188,217,172,195,197,186],"times":[497,1104,511,527,569,545,526,873,706,1333],"next_num":10,"trial_type":"ticket-choose","trial_index":60,"time_elapsed":708929,"internal_node_id":"0.0-60.0"},{"result":154,"points":2,"place":1,"phase":0,"sequence":41,"prices":[168,154,172,185,195,144,184,211,177,227],"times":[1210,1573],"next_num":2,"trial_type":"ticket-choose","trial_index":61,"time_elapsed":713832,"internal_node_id":"0.0-61.0"},{"result":158,"points":2,"place":1,"phase":0,"sequence":42,"prices":[175,186,158,209,181,188,177,167,208,154],"times":[2580,528,1458],"next_num":3,"trial_type":"ticket-choose","trial_index":62,"time_elapsed":720659,"internal_node_id":"0.0-62.0"},{"result":154,"points":3,"place":0,"phase":0,"sequence":43,"prices":[188,200,165,172,198,174,177,154,177,180],"times":[5254,865,1480,513,540,512,1287,1306],"next_num":8,"trial_type":"ticket-choose","trial_index":63,"time_elapsed":735908,"internal_node_id":"0.0-63.0"},{"result":163,"points":2,"place":1,"phase":0,"sequence":44,"prices":[198,193,169,163,202,182,152,164,177,171],"times":[607,485,1095,6470],"next_num":4,"trial_type":"ticket-choose","trial_index":64,"time_elapsed":747247,"internal_node_id":"0.0-64.0"},{"result":153,"points":3,"place":0,"phase":0,"sequence":45,"prices":[174,186,163,212,181,187,176,166,153,209],"times":[561,630,7667,523,534,495,533,1198,1519],"next_num":9,"trial_type":"ticket-choose","trial_index":65,"time_elapsed":764496,"internal_node_id":"0.0-65.0"},{"result":155,"points":2,"place":1,"phase":0,"sequence":46,"prices":[181,155,148,161,168,187,172,199,176,194],"times":[602,1659],"next_num":2,"trial_type":"ticket-choose","trial_index":66,"time_elapsed":768862,"internal_node_id":"0.0-66.0"},{"result":171,"points":1,"place":3,"phase":0,"sequence":47,"prices":[189,167,180,197,165,168,172,213,178,171],"times":[613,1029,481,439,4427,774,676,582,974,1027],"next_num":10,"trial_type":"ticket-choose","trial_index":67,"time_elapsed":784628,"internal_node_id":"0.0-67.0"},{"result":167,"points":1,"place":2,"phase":0,"sequence":48,"prices":[171,203,175,170,167,220,192,186,165,165],"times":[1225,575,652,469,3880],"next_num":5,"trial_type":"ticket-choose","trial_index":68,"time_elapsed":794418,"internal_node_id":"0.0-68.0"},{"result":165,"points":2,"place":1,"phase":0,"sequence":49,"prices":[175,186,177,210,179,187,165,166,153,208],"times":[878,462,487,561,499,541,2720],"next_num":7,"trial_type":"ticket-choose","trial_index":69,"time_elapsed":803842,"internal_node_id":"0.0-69.0"},{"responses":[{"value":0,"offby":-1,"category":"$115 - $130","category_index":0},{"value":1,"offby":-4,"category":"$131 - $145","category_index":1},{"value":9,"offby":-3,"category":"$146 - $160","category_index":2},{"value":25,"offby":3,"category":"$161 - $175","category_index":3},{"value":37,"offby":3,"category":"$176 - $190","category_index":4},{"value":20,"offby":5,"category":"$191 - $205","category_index":5},{"value":8,"offby":-3,"category":"$206 - $220","category_index":6}],"phase":1,"number":1,"trial_type":"bar-choose","trial_index":70,"time_elapsed":907246,"internal_node_id":"0.0-70.0"},{"rt":17493,"url":"\/christiane\/tickets\/utils\/testing2.html","trial_type":"point_update","trial_index":71,"time_elapsed":926050,"internal_node_id":"0.0-71.0"},{"phase":1,"order":[19,41,2,10,35,47,48,13,17,28,38,43,4,14,25,27,18,44,21,40,26,22,15,0,32,8,49,31,36,37,5,23,30,6,9,42,1,39,46,24,34,33,16,45,29,11,12,20,7,3],"trial_type":"store_order","trial_index":72,"time_elapsed":927051,"internal_node_id":"0.0-72.0"},{"result":158,"points":2,"place":1,"phase":1,"sequence":0,"prices":[158,175,186,209,177,181,188,167,208,154],"times":[3849],"next_num":1,"trial_type":"ticket-choose","trial_index":73,"time_elapsed":933125,"internal_node_id":"0.0-73.0"},{"result":155,"points":2,"place":1,"phase":1,"sequence":1,"prices":[200,207,155,158,156,168,167,135,178,177],"times":[2773,468,3870],"next_num":3,"trial_type":"ticket-choose","trial_index":74,"time_elapsed":942740,"internal_node_id":"0.0-74.0"},{"result":153,"points":3,"place":0,"phase":1,"sequence":2,"prices":[167,175,186,225,178,179,187,169,209,153],"times":[1759,497,465,571,693,1281,517,5362,582,1359],"next_num":10,"trial_type":"ticket-choose","trial_index":75,"time_elapsed":959863,"internal_node_id":"0.0-75.0"},{"result":154,"points":3,"place":0,"phase":1,"sequence":3,"prices":[177,175,187,209,165,180,188,165,154,208],"times":[2078,392,510,503,1664,520,505,2478,2131],"next_num":9,"trial_type":"ticket-choose","trial_index":76,"time_elapsed":974241,"internal_node_id":"0.0-76.0"},{"result":143,"points":3,"place":0,"phase":1,"sequence":4,"prices":[167,153,172,185,195,143,184,211,177,227],"times":[570,313,587,458,447,1580],"next_num":6,"trial_type":"ticket-choose","trial_index":77,"time_elapsed":981736,"internal_node_id":"0.0-77.0"},{"result":154,"points":2,"place":1,"phase":1,"sequence":5,"prices":[200,180,203,152,175,170,160,154,176,191],"times":[778,470,481,479,551,530,2022,3072],"next_num":8,"trial_type":"ticket-choose","trial_index":78,"time_elapsed":993636,"internal_node_id":"0.0-78.0"},{"result":147,"points":3,"place":0,"phase":1,"sequence":6,"prices":[181,214,169,147,182,193,178,184,176,179],"times":[2266,565,945,1899],"next_num":4,"trial_type":"ticket-choose","trial_index":79,"time_elapsed":1001827,"internal_node_id":"0.0-79.0"},{"result":165,"points":1,"place":2,"phase":1,"sequence":7,"prices":[163,175,187,209,176,180,188,165,154,208],"times":[2259,615,522,523,696,501,515,3633],"next_num":8,"trial_type":"ticket-choose","trial_index":80,"time_elapsed":1014775,"internal_node_id":"0.0-80.0"},{"result":153,"points":3,"place":0,"phase":1,"sequence":8,"prices":[176,186,178,217,163,181,187,166,153,209],"times":[628,487,455,535,3545,598,770,1547,1701],"next_num":9,"trial_type":"ticket-choose","trial_index":81,"time_elapsed":1028767,"internal_node_id":"0.0-81.0"},{"result":202,"points":0,"place":8,"phase":1,"sequence":9,"prices":[196,171,170,184,187,165,211,169,201,202],"times":[782,563,450,450,474,979,598,634,776,1480],"next_num":10,"trial_type":"ticket-choose","trial_index":82,"time_elapsed":1039938,"internal_node_id":"0.0-82.0"},{"result":166,"points":1,"place":2,"phase":1,"sequence":10,"prices":[163,199,196,199,185,195,227,163,177,166],"times":[828,461,441,444,474,501,795,2602,632,1504],"next_num":10,"trial_type":"ticket-choose","trial_index":83,"time_elapsed":1052640,"internal_node_id":"0.0-83.0"},{"result":170,"points":2,"place":1,"phase":1,"sequence":11,"prices":[201,187,157,184,198,179,188,185,178,170],"times":[448,366,353,552,410,480,504,533,544,1607],"next_num":10,"trial_type":"ticket-choose","trial_index":84,"time_elapsed":1062268,"internal_node_id":"0.0-84.0"},{"result":156,"points":3,"place":0,"phase":1,"sequence":12,"prices":[178,175,185,215,167,181,186,168,208,156],"times":[714,897,499,566,789,1056,569,2092,618,1182],"next_num":10,"trial_type":"ticket-choose","trial_index":85,"time_elapsed":1075154,"internal_node_id":"0.0-85.0"},{"result":153,"points":3,"place":0,"phase":1,"sequence":13,"prices":[163,174,186,212,176,181,187,166,153,209],"times":[1810,472,472,512,638,537,560,3096,1346],"next_num":9,"trial_type":"ticket-choose","trial_index":86,"time_elapsed":1088219,"internal_node_id":"0.0-86.0"},{"result":156,"points":3,"place":0,"phase":1,"sequence":14,"prices":[201,204,179,166,185,165,214,156,202,165],"times":[614,382,431,1688,511,3899,614,1606],"next_num":8,"trial_type":"ticket-choose","trial_index":87,"time_elapsed":1101323,"internal_node_id":"0.0-87.0"},{"result":197,"points":0,"place":8,"phase":1,"sequence":15,"prices":[192,172,171,178,188,165,217,168,195,197],"times":[1059,602,541,474,508,1215,549,1202,1013,1827],"next_num":10,"trial_type":"ticket-choose","trial_index":88,"time_elapsed":1114460,"internal_node_id":"0.0-88.0"},{"result":158,"points":2,"place":1,"phase":1,"sequence":16,"prices":[158,175,186,211,177,180,187,166,209,153],"times":[5232],"next_num":1,"trial_type":"ticket-choose","trial_index":89,"time_elapsed":1121585,"internal_node_id":"0.0-89.0"},{"result":159,"points":1,"place":2,"phase":1,"sequence":17,"prices":[181,159,149,175,185,151,163,174,178,207],"times":[1740,3401],"next_num":2,"trial_type":"ticket-choose","trial_index":90,"time_elapsed":1128834,"internal_node_id":"0.0-90.0"},{"result":153,"points":3,"place":0,"phase":1,"sequence":18,"prices":[177,175,186,221,158,180,187,166,209,153],"times":[1740,504,479,465,474,895,556,4829,570,1826],"next_num":10,"trial_type":"ticket-choose","trial_index":91,"time_elapsed":1145129,"internal_node_id":"0.0-91.0"},{"result":150,"points":3,"place":0,"phase":1,"sequence":19,"prices":[190,150,175,161,188,207,157,194,178,199],"times":[705,2007],"next_num":2,"trial_type":"ticket-choose","trial_index":92,"time_elapsed":1149984,"internal_node_id":"0.0-92.0"},{"result":152,"points":3,"place":0,"phase":1,"sequence":20,"prices":[200,173,182,169,207,165,152,202,161,204],"times":[811,532,532,630,535,1847,1679],"next_num":7,"trial_type":"ticket-choose","trial_index":93,"time_elapsed":1159699,"internal_node_id":"0.0-93.0"},{"result":158,"points":2,"place":1,"phase":1,"sequence":21,"prices":[177,175,186,209,158,181,188,167,208,154],"times":[534,476,465,471,3136],"next_num":5,"trial_type":"ticket-choose","trial_index":94,"time_elapsed":1167654,"internal_node_id":"0.0-94.0"},{"result":153,"points":3,"place":0,"phase":1,"sequence":22,"prices":[176,175,186,210,163,179,187,166,153,208],"times":[516,471,494,465,1033,517,550,1212,1662],"next_num":9,"trial_type":"ticket-choose","trial_index":95,"time_elapsed":1178220,"internal_node_id":"0.0-95.0"},{"result":156,"points":3,"place":0,"phase":1,"sequence":23,"prices":[167,174,186,211,178,181,188,168,208,156],"times":[1046,415,503,504,491,526,551,1151,594,1212],"next_num":10,"trial_type":"ticket-choose","trial_index":96,"time_elapsed":1189039,"internal_node_id":"0.0-96.0"},{"result":161,"points":3,"place":0,"phase":1,"sequence":24,"prices":[193,174,224,165,187,190,224,161,194,195],"times":[768,473,501,1011,431,483,524,3817],"next_num":8,"trial_type":"ticket-choose","trial_index":97,"time_elapsed":1200533,"internal_node_id":"0.0-97.0"},{"result":166,"points":1,"place":2,"phase":1,"sequence":25,"prices":[165,174,186,212,177,181,187,166,153,209],"times":[924,471,500,528,484,563,531,4175],"next_num":8,"trial_type":"ticket-choose","trial_index":98,"time_elapsed":1212188,"internal_node_id":"0.0-98.0"},{"result":148,"points":3,"place":0,"phase":1,"sequence":26,"prices":[173,163,185,181,166,148,160,185,176,184],"times":[538,714,429,490,759,1784],"next_num":6,"trial_type":"ticket-choose","trial_index":99,"time_elapsed":1219812,"internal_node_id":"0.0-99.0"},{"result":148,"points":3,"place":0,"phase":1,"sequence":27,"prices":[171,169,186,165,163,167,220,148,187,165],"times":[668,596,412,654,865,599,965,1888],"next_num":8,"trial_type":"ticket-choose","trial_index":100,"time_elapsed":1229784,"internal_node_id":"0.0-100.0"},{"result":154,"points":3,"place":0,"phase":1,"sequence":28,"prices":[187,201,165,172,196,174,178,154,172,180],"times":[860,441,486,513,485,546,492,1897],"next_num":8,"trial_type":"ticket-choose","trial_index":101,"time_elapsed":1238782,"internal_node_id":"0.0-101.0"},{"result":151,"points":3,"place":0,"phase":1,"sequence":29,"prices":[199,193,169,165,202,182,151,164,176,171],"times":[1377,377,440,972,544,557,3484],"next_num":7,"trial_type":"ticket-choose","trial_index":102,"time_elapsed":1249873,"internal_node_id":"0.0-102.0"},{"result":153,"points":3,"place":0,"phase":1,"sequence":30,"prices":[178,175,186,212,167,179,187,169,209,153],"times":[1156,443,492,547,893,501,654,1434,758,1193],"next_num":10,"trial_type":"ticket-choose","trial_index":103,"time_elapsed":1261762,"internal_node_id":"0.0-103.0"},{"result":158,"points":2,"place":1,"phase":1,"sequence":31,"prices":[177,176,187,225,158,181,187,165,208,153],"times":[1814,549,469,594,2361],"next_num":5,"trial_type":"ticket-choose","trial_index":104,"time_elapsed":1270347,"internal_node_id":"0.0-104.0"},{"result":157,"points":3,"place":0,"phase":1,"sequence":32,"prices":[191,170,182,165,175,182,203,157,195,200],"times":[405,387,637,804,544,583,605,2335],"next_num":8,"trial_type":"ticket-choose","trial_index":105,"time_elapsed":1279924,"internal_node_id":"0.0-105.0"},{"result":153,"points":3,"place":0,"phase":1,"sequence":33,"prices":[165,175,186,214,177,179,187,166,153,208],"times":[1013,474,494,499,501,860,644,1912,1410],"next_num":9,"trial_type":"ticket-choose","trial_index":106,"time_elapsed":1291321,"internal_node_id":"0.0-106.0"},{"result":153,"points":3,"place":0,"phase":1,"sequence":34,"prices":[177,175,186,210,165,179,187,166,153,208],"times":[743,504,677,477,718,511,526,995,1748],"next_num":9,"trial_type":"ticket-choose","trial_index":107,"time_elapsed":1301657,"internal_node_id":"0.0-107.0"},{"result":186,"points":1,"place":4,"phase":1,"sequence":35,"prices":[220,173,201,197,169,205,198,183,178,186],"times":[2560,522,523,474,807,477,567,795,1173,1280],"next_num":10,"trial_type":"ticket-choose","trial_index":108,"time_elapsed":1320051,"internal_node_id":"0.0-108.0"},{"result":156,"points":3,"place":0,"phase":1,"sequence":36,"prices":[167,175,185,224,178,181,186,168,208,156],"times":[905,490,457,501,461,493,529,6958,617,1147],"next_num":10,"trial_type":"ticket-choose","trial_index":109,"time_elapsed":1336439,"internal_node_id":"0.0-109.0"},{"result":171,"points":1,"place":3,"phase":1,"sequence":37,"prices":[189,167,180,197,165,168,172,213,178,171],"times":[548,456,498,505,1299,844,764,599,596,1370],"next_num":10,"trial_type":"ticket-choose","trial_index":110,"time_elapsed":1347572,"internal_node_id":"0.0-110.0"},{"result":158,"points":3,"place":0,"phase":1,"sequence":38,"prices":[214,184,226,192,215,158,199,175,176,208],"times":[632,581,470,686,826,1818],"next_num":6,"trial_type":"ticket-choose","trial_index":111,"time_elapsed":1355498,"internal_node_id":"0.0-111.0"},{"result":184,"points":1,"place":4,"phase":1,"sequence":39,"prices":[193,181,175,181,185,165,224,199,218,184],"times":[647,453,563,495,486,1097,487,454,506,1592],"next_num":10,"trial_type":"ticket-choose","trial_index":112,"time_elapsed":1365928,"internal_node_id":"0.0-112.0"},{"result":156,"points":2,"place":1,"phase":1,"sequence":40,"prices":[180,156,149,160,168,186,172,198,176,195],"times":[818,2155],"next_num":2,"trial_type":"ticket-choose","trial_index":113,"time_elapsed":1371036,"internal_node_id":"0.0-113.0"},{"result":159,"points":3,"place":0,"phase":1,"sequence":41,"prices":[183,179,188,165,168,173,205,159,187,191],"times":[494,396,490,806,483,584,629,1971],"next_num":8,"trial_type":"ticket-choose","trial_index":114,"time_elapsed":1380488,"internal_node_id":"0.0-114.0"},{"result":154,"points":3,"place":0,"phase":1,"sequence":42,"prices":[176,187,179,209,163,180,188,165,154,208],"times":[757,431,392,478,469,477,473,897,1433],"next_num":9,"trial_type":"ticket-choose","trial_index":115,"time_elapsed":1389829,"internal_node_id":"0.0-115.0"},{"result":170,"points":1,"place":2,"phase":1,"sequence":43,"prices":[199,191,188,174,167,193,189,164,176,170],"times":[740,389,481,489,493,458,481,1625,555,1644],"next_num":10,"trial_type":"ticket-choose","trial_index":116,"time_elapsed":1400822,"internal_node_id":"0.0-116.0"},{"result":150,"points":3,"place":0,"phase":1,"sequence":44,"prices":[185,179,191,165,161,173,199,150,188,168],"times":[1126,369,488,782,677,597,461,1458],"next_num":8,"trial_type":"ticket-choose","trial_index":117,"time_elapsed":1410045,"internal_node_id":"0.0-117.0"},{"result":153,"points":3,"place":0,"phase":1,"sequence":45,"prices":[177,174,186,217,165,181,187,166,153,209],"times":[375,319,376,399,518,442,485,648,1533],"next_num":9,"trial_type":"ticket-choose","trial_index":118,"time_elapsed":1418558,"internal_node_id":"0.0-118.0"},{"result":153,"points":3,"place":0,"phase":1,"sequence":46,"prices":[163,175,186,214,176,179,187,166,153,208],"times":[1088,408,479,484,462,515,577,1880,1265],"next_num":9,"trial_type":"ticket-choose","trial_index":119,"time_elapsed":1429475,"internal_node_id":"0.0-119.0"},{"result":153,"points":3,"place":0,"phase":1,"sequence":47,"prices":[158,176,187,210,177,181,187,165,208,153],"times":[3002,449,407,506,738,791,554,1236,555,1004],"next_num":10,"trial_type":"ticket-choose","trial_index":120,"time_elapsed":1442399,"internal_node_id":"0.0-120.0"},{"result":154,"points":3,"place":0,"phase":1,"sequence":48,"prices":[165,175,187,209,177,180,188,167,154,208],"times":[1468,323,371,374,370,422,438,489,1607],"next_num":9,"trial_type":"ticket-choose","trial_index":121,"time_elapsed":1451704,"internal_node_id":"0.0-121.0"},{"result":156,"points":3,"place":0,"phase":1,"sequence":49,"prices":[178,174,186,217,167,181,188,168,208,156],"times":[642,413,380,467,392,438,449,474,460,1710],"next_num":10,"trial_type":"ticket-choose","trial_index":122,"time_elapsed":1461416,"internal_node_id":"0.0-122.0"},{"responses":[{"value":0,"offby":-1,"category":"$115 - $130","category_index":0},{"value":5,"offby":0,"category":"$131 - $145","category_index":1},{"value":15,"offby":3,"category":"$146 - $160","category_index":2},{"value":30,"offby":8,"category":"$161 - $175","category_index":3},{"value":35,"offby":1,"category":"$176 - $190","category_index":4},{"value":10,"offby":-5,"category":"$191 - $205","category_index":5},{"value":5,"offby":-6,"category":"$206 - $220","category_index":6}],"phase":1,"number":1,"trial_type":"bar-choose","trial_index":123,"time_elapsed":1582174,"internal_node_id":"0.0-123.0"},{"special_comment":"A lot of the time the best ticket came near the end.","trial_type":"special_sequence","trial_index":124,"time_elapsed":1596134,"internal_node_id":"0.0-124.0"},{"during":"Nothing","bonus":292,"trial_type":"final","trial_index":125,"time_elapsed":1623288,"internal_node_id":"0.0-125.0"}],"bonus":292}