{"start_time":"2017-05-24 12:02:35","end_time":"2017-05-24 12:26:59","points_phase0":111,"points_phase1":122,"phase_order":1,"age":33,"gender":"m","tries":1,"during":"Nothing","worker_id":"A1QA5EWFMNKGTA","assignment_id":"3MYYFCXHJ407IA3UZ3PWVKTLFRMG41","data":[{"rt":10304,"url":"\/christiane\/tickets\/utils\/consent.html","trial_type":"html","trial_index":0,"time_elapsed":10377,"internal_node_id":"0.0-0.0"},{"age":33,"gender":"m","trial_type":"age","trial_index":1,"time_elapsed":16363,"internal_node_id":"0.0-1.0"},{"worker_id":"A1QA5EWFMNKGTA","trial_type":"workerid","trial_index":2,"time_elapsed":26223,"internal_node_id":"0.0-2.0"},{"tries":1,"trial_type":"instructions_check","trial_index":3,"time_elapsed":59462,"internal_node_id":"0.0-3.0"},{"rt":4746,"url":"\/christiane\/tickets\/utils\/start.html","trial_type":"html","trial_index":4,"time_elapsed":65312,"internal_node_id":"0.0-4.0"},{"trial_type":"number-animation","trial_index":5,"time_elapsed":85143,"internal_node_id":"0.0-5.0"},{"phase":0,"sequence":0,"avg":181,"response":182,"trial_type":"training_avg","trial_index":6,"time_elapsed":99149,"internal_node_id":"0.0-6.0"},{"trial_type":"number-animation","trial_index":7,"time_elapsed":115604,"internal_node_id":"0.0-7.0"},{"phase":0,"sequence":1,"avg":188,"response":176,"trial_type":"training_avg","trial_index":8,"time_elapsed":125384,"internal_node_id":"0.0-8.0"},{"trial_type":"number-animation","trial_index":9,"time_elapsed":137804,"internal_node_id":"0.0-9.0"},{"phase":0,"sequence":2,"avg":188,"response":191,"trial_type":"training_avg","trial_index":10,"time_elapsed":144298,"internal_node_id":"0.0-10.0"},{"trial_type":"number-animation","trial_index":11,"time_elapsed":157501,"internal_node_id":"0.0-11.0"},{"phase":0,"sequence":3,"avg":177,"response":160,"trial_type":"training_avg","trial_index":12,"time_elapsed":166812,"internal_node_id":"0.0-12.0"},{"trial_type":"number-animation","trial_index":13,"time_elapsed":179715,"internal_node_id":"0.0-13.0"},{"phase":0,"sequence":4,"avg":182,"response":180,"trial_type":"training_avg","trial_index":14,"time_elapsed":185320,"internal_node_id":"0.0-14.0"},{"responses":[{"value":2,"offby":1,"category":"$115 - $130","category_index":0},{"value":5,"offby":0,"category":"$131 - $145","category_index":1},{"value":8,"offby":-4,"category":"$146 - $160","category_index":2},{"value":20,"offby":-2,"category":"$161 - $175","category_index":3},{"value":50,"offby":16,"category":"$176 - $190","category_index":4},{"value":10,"offby":-5,"category":"$191 - $205","category_index":5},{"value":5,"offby":-6,"category":"$206 - $220","category_index":6}],"phase":0,"number":0,"trial_type":"bar-choose","trial_index":15,"time_elapsed":306725,"internal_node_id":"0.0-15.0"},{"rt":21502,"url":"\/christiane\/tickets\/utils\/testing.html","trial_type":"html","trial_index":16,"time_elapsed":329310,"internal_node_id":"0.0-16.0"},{"phase":0,"order":[26,0,43,37,15,6,32,30,47,17,27,34,40,3,31,14,49,22,44,4,21,41,23,2,35,10,12,5,9,1,39,7,25,42,46,8,20,45,36,13,24,11,19,33,48,18,38,16,29,28],"trial_type":"store_order","trial_index":17,"time_elapsed":330312,"internal_node_id":"0.0-17.0"},{"result":146,"points":3,"place":0,"phase":0,"sequence":-1,"prices":[184,180,224,165,181,199,185,193,218,146],"times":[2553,845,750,1495,689,805,1523,1017,804,1391],"next_num":10,"trial_type":"ticket-choose","trial_index":18,"time_elapsed":346891,"internal_node_id":"0.0-18.0"},{"rt":9889,"url":"\/christiane\/tickets\/utils\/testing_after.html","trial_type":"html","trial_index":19,"time_elapsed":357854,"internal_node_id":"0.0-19.0"},{"result":156,"points":2,"place":1,"phase":0,"sequence":0,"prices":[180,156,149,160,168,186,172,198,176,195],"times":[1941,1082],"next_num":2,"trial_type":"ticket-choose","trial_index":20,"time_elapsed":363860,"internal_node_id":"0.0-20.0"},{"result":166,"points":1,"place":2,"phase":0,"sequence":1,"prices":[165,174,186,212,177,181,187,166,153,209],"times":[1368,643,705,689,697,848,676,2381],"next_num":8,"trial_type":"ticket-choose","trial_index":21,"time_elapsed":375511,"internal_node_id":"0.0-21.0"},{"result":186,"points":1,"place":4,"phase":0,"sequence":2,"prices":[220,173,201,197,169,205,198,183,178,186],"times":[1301,650,568,550,961,626,678,710,735,1038],"next_num":10,"trial_type":"ticket-choose","trial_index":22,"time_elapsed":387201,"internal_node_id":"0.0-22.0"},{"result":156,"points":3,"place":0,"phase":0,"sequence":3,"prices":[167,174,186,211,178,181,188,168,208,156],"times":[1488,617,542,596,596,601,669,1952,531,902],"next_num":10,"trial_type":"ticket-choose","trial_index":23,"time_elapsed":399689,"internal_node_id":"0.0-23.0"},{"result":168,"points":1,"place":2,"phase":0,"sequence":4,"prices":[167,175,185,224,178,181,186,168,208,156],"times":[1744,548,535,531,615,637,777,2237],"next_num":8,"trial_type":"ticket-choose","trial_index":24,"time_elapsed":410807,"internal_node_id":"0.0-24.0"},{"result":157,"points":3,"place":0,"phase":0,"sequence":5,"prices":[191,170,182,165,175,182,203,157,195,200],"times":[1115,540,601,1645,563,594,566,1067],"next_num":8,"trial_type":"ticket-choose","trial_index":25,"time_elapsed":420981,"internal_node_id":"0.0-25.0"},{"result":163,"points":1,"place":2,"phase":0,"sequence":6,"prices":[173,163,185,181,166,148,160,185,176,184],"times":[1074,1647],"next_num":2,"trial_type":"ticket-choose","trial_index":26,"time_elapsed":425939,"internal_node_id":"0.0-26.0"},{"result":163,"points":2,"place":1,"phase":0,"sequence":7,"prices":[176,186,178,217,163,181,187,166,153,209],"times":[839,483,540,638,1179],"next_num":5,"trial_type":"ticket-choose","trial_index":27,"time_elapsed":432427,"internal_node_id":"0.0-27.0"},{"result":150,"points":3,"place":0,"phase":0,"sequence":8,"prices":[190,150,175,161,188,207,157,194,178,199],"times":[908,1017],"next_num":2,"trial_type":"ticket-choose","trial_index":28,"time_elapsed":436555,"internal_node_id":"0.0-28.0"},{"result":154,"points":3,"place":0,"phase":0,"sequence":9,"prices":[187,201,165,172,196,174,178,154,172,180],"times":[5026,591,970,492,589,742,569,1018],"next_num":8,"trial_type":"ticket-choose","trial_index":29,"time_elapsed":449890,"internal_node_id":"0.0-29.0"},{"result":165,"points":2,"place":1,"phase":0,"sequence":10,"prices":[177,175,187,209,165,180,188,165,154,208],"times":[1954,785,1232,621,1191,563,659,1124],"next_num":8,"trial_type":"ticket-choose","trial_index":30,"time_elapsed":461371,"internal_node_id":"0.0-30.0"},{"result":156,"points":3,"place":0,"phase":0,"sequence":11,"prices":[178,175,185,215,167,181,186,168,208,156],"times":[1019,447,536,573,1059,576,651,1352,542,905],"next_num":10,"trial_type":"ticket-choose","trial_index":31,"time_elapsed":472803,"internal_node_id":"0.0-31.0"},{"result":153,"points":3,"place":0,"phase":0,"sequence":12,"prices":[177,174,186,217,165,181,187,166,153,209],"times":[950,550,560,577,1907,620,560,2182,952],"next_num":9,"trial_type":"ticket-choose","trial_index":32,"time_elapsed":485197,"internal_node_id":"0.0-32.0"},{"result":163,"points":2,"place":1,"phase":0,"sequence":13,"prices":[171,169,186,165,163,167,220,148,187,165],"times":[844,712,514,1689,1783],"next_num":5,"trial_type":"ticket-choose","trial_index":33,"time_elapsed":493346,"internal_node_id":"0.0-33.0"},{"result":158,"points":2,"place":1,"phase":0,"sequence":14,"prices":[158,176,187,210,177,181,187,165,208,153],"times":[1658],"next_num":1,"trial_type":"ticket-choose","trial_index":34,"time_elapsed":496809,"internal_node_id":"0.0-34.0"},{"result":158,"points":2,"place":1,"phase":0,"sequence":15,"prices":[177,176,187,225,158,181,187,165,208,153],"times":[973,579,575,606,1422],"next_num":5,"trial_type":"ticket-choose","trial_index":35,"time_elapsed":503677,"internal_node_id":"0.0-35.0"},{"result":153,"points":3,"place":0,"phase":0,"sequence":16,"prices":[176,175,186,210,163,179,187,166,153,208],"times":[891,498,510,559,1276,470,702,1663,1100],"next_num":9,"trial_type":"ticket-choose","trial_index":36,"time_elapsed":514878,"internal_node_id":"0.0-36.0"},{"result":152,"points":3,"place":0,"phase":0,"sequence":17,"prices":[200,173,182,169,207,165,152,202,161,204],"times":[1248,503,638,947,627,969,1190],"next_num":7,"trial_type":"ticket-choose","trial_index":37,"time_elapsed":524249,"internal_node_id":"0.0-37.0"},{"result":147,"points":3,"place":0,"phase":0,"sequence":18,"prices":[181,214,169,147,182,193,178,184,176,179],"times":[1209,402,1053,1064],"next_num":4,"trial_type":"ticket-choose","trial_index":38,"time_elapsed":530452,"internal_node_id":"0.0-38.0"},{"result":202,"points":0,"place":8,"phase":0,"sequence":19,"prices":[196,171,170,184,187,165,211,169,201,202],"times":[912,505,542,566,520,1439,511,1327,636,1423],"next_num":10,"trial_type":"ticket-choose","trial_index":39,"time_elapsed":542643,"internal_node_id":"0.0-39.0"},{"result":152,"points":3,"place":0,"phase":0,"sequence":20,"prices":[200,180,203,152,175,170,160,154,176,191],"times":[934,664,561,992],"next_num":4,"trial_type":"ticket-choose","trial_index":40,"time_elapsed":548088,"internal_node_id":"0.0-40.0"},{"result":155,"points":2,"place":1,"phase":0,"sequence":21,"prices":[200,207,155,158,156,168,167,135,178,177],"times":[826,493,1016],"next_num":3,"trial_type":"ticket-choose","trial_index":41,"time_elapsed":552882,"internal_node_id":"0.0-41.0"},{"result":151,"points":3,"place":0,"phase":0,"sequence":22,"prices":[199,193,169,165,202,182,151,164,176,171],"times":[653,467,822,588,598,561,1046],"next_num":7,"trial_type":"ticket-choose","trial_index":42,"time_elapsed":560531,"internal_node_id":"0.0-42.0"},{"result":153,"points":3,"place":0,"phase":0,"sequence":23,"prices":[177,175,186,210,165,179,187,166,153,208],"times":[803,614,685,910,941,581,797,1674,999],"next_num":9,"trial_type":"ticket-choose","trial_index":43,"time_elapsed":572097,"internal_node_id":"0.0-43.0"},{"result":158,"points":2,"place":1,"phase":0,"sequence":24,"prices":[158,175,186,211,177,180,187,166,209,153],"times":[3081],"next_num":1,"trial_type":"ticket-choose","trial_index":44,"time_elapsed":577012,"internal_node_id":"0.0-44.0"},{"result":195,"points":0,"place":7,"phase":0,"sequence":25,"prices":[193,174,224,165,187,190,224,161,194,195],"times":[740,345,558,718,563,621,654,1809,514,844],"next_num":10,"trial_type":"ticket-choose","trial_index":45,"time_elapsed":587989,"internal_node_id":"0.0-45.0"},{"result":153,"points":3,"place":0,"phase":0,"sequence":26,"prices":[163,174,186,212,176,181,187,166,153,209],"times":[1187,509,549,585,546,644,592,2532,812],"next_num":9,"trial_type":"ticket-choose","trial_index":46,"time_elapsed":599296,"internal_node_id":"0.0-46.0"},{"result":197,"points":0,"place":8,"phase":0,"sequence":27,"prices":[192,172,171,178,188,165,217,168,195,197],"times":[1212,511,547,571,615,1238,641,1525,599,1164],"next_num":10,"trial_type":"ticket-choose","trial_index":47,"time_elapsed":611670,"internal_node_id":"0.0-47.0"},{"result":153,"points":2,"place":1,"phase":0,"sequence":28,"prices":[167,153,172,185,195,143,184,211,177,227],"times":[1074,947],"next_num":2,"trial_type":"ticket-choose","trial_index":48,"time_elapsed":615617,"internal_node_id":"0.0-48.0"},{"result":153,"points":3,"place":0,"phase":0,"sequence":29,"prices":[165,175,186,214,177,179,187,166,153,208],"times":[753,520,847,542,614,635,562,1239,1003],"next_num":9,"trial_type":"ticket-choose","trial_index":49,"time_elapsed":625667,"internal_node_id":"0.0-49.0"},{"result":158,"points":2,"place":1,"phase":0,"sequence":30,"prices":[177,175,186,221,158,180,187,166,209,153],"times":[790,1088,527,557,1136],"next_num":5,"trial_type":"ticket-choose","trial_index":50,"time_elapsed":632855,"internal_node_id":"0.0-50.0"},{"result":153,"points":3,"place":0,"phase":0,"sequence":31,"prices":[163,175,186,214,176,179,187,166,153,208],"times":[1106,472,544,689,568,561,974,1426,969],"next_num":9,"trial_type":"ticket-choose","trial_index":51,"time_elapsed":643467,"internal_node_id":"0.0-51.0"},{"result":154,"points":3,"place":0,"phase":0,"sequence":32,"prices":[165,175,187,209,177,180,188,167,154,208],"times":[1152,520,571,775,540,778,613,1214,1056],"next_num":9,"trial_type":"ticket-choose","trial_index":52,"time_elapsed":654161,"internal_node_id":"0.0-52.0"},{"result":159,"points":3,"place":0,"phase":0,"sequence":33,"prices":[183,179,188,165,168,173,205,159,187,191],"times":[973,488,636,2606,821,685,684,1618],"next_num":8,"trial_type":"ticket-choose","trial_index":53,"time_elapsed":665801,"internal_node_id":"0.0-53.0"},{"result":164,"points":3,"place":0,"phase":0,"sequence":34,"prices":[199,191,188,174,167,193,189,164,176,170],"times":[827,487,639,1601,726,609,705,2826],"next_num":8,"trial_type":"ticket-choose","trial_index":54,"time_elapsed":677495,"internal_node_id":"0.0-54.0"},{"result":156,"points":3,"place":0,"phase":0,"sequence":35,"prices":[201,204,179,166,185,165,214,156,202,165],"times":[969,358,564,685,669,1859,527,961],"next_num":8,"trial_type":"ticket-choose","trial_index":55,"time_elapsed":687210,"internal_node_id":"0.0-55.0"},{"result":156,"points":3,"place":0,"phase":0,"sequence":36,"prices":[178,174,186,217,167,181,188,168,208,156],"times":[1052,466,576,651,1205,648,669,855,598,825],"next_num":10,"trial_type":"ticket-choose","trial_index":56,"time_elapsed":699250,"internal_node_id":"0.0-56.0"},{"result":166,"points":1,"place":2,"phase":0,"sequence":37,"prices":[163,199,196,199,185,195,227,163,177,166],"times":[1023,519,534,555,507,771,698,1935,548,862],"next_num":10,"trial_type":"ticket-choose","trial_index":57,"time_elapsed":710777,"internal_node_id":"0.0-57.0"},{"result":158,"points":2,"place":1,"phase":0,"sequence":38,"prices":[177,175,186,209,158,181,188,167,208,154],"times":[972,486,2982,635,1121],"next_num":5,"trial_type":"ticket-choose","trial_index":58,"time_elapsed":719521,"internal_node_id":"0.0-58.0"},{"result":171,"points":1,"place":3,"phase":0,"sequence":39,"prices":[189,167,180,197,165,168,172,213,178,171],"times":[679,441,496,602,990,1338,644,619,618,1388],"next_num":10,"trial_type":"ticket-choose","trial_index":59,"time_elapsed":731135,"internal_node_id":"0.0-59.0"},{"result":165,"points":1,"place":2,"phase":0,"sequence":40,"prices":[176,187,179,209,163,180,188,165,154,208],"times":[2015,802,597,676,763,712,632,1043],"next_num":8,"trial_type":"ticket-choose","trial_index":60,"time_elapsed":741510,"internal_node_id":"0.0-60.0"},{"result":153,"points":3,"place":0,"phase":0,"sequence":41,"prices":[167,175,186,225,178,179,187,169,209,153],"times":[1233,427,578,579,814,1553,1178,1028,617,948],"next_num":10,"trial_type":"ticket-choose","trial_index":61,"time_elapsed":754533,"internal_node_id":"0.0-61.0"},{"result":158,"points":2,"place":1,"phase":0,"sequence":42,"prices":[158,175,186,209,177,181,188,167,208,154],"times":[1462],"next_num":1,"trial_type":"ticket-choose","trial_index":62,"time_elapsed":757896,"internal_node_id":"0.0-62.0"},{"result":154,"points":3,"place":0,"phase":0,"sequence":43,"prices":[163,175,187,209,176,180,188,165,154,208],"times":[974,440,733,596,736,624,551,1431,1000],"next_num":9,"trial_type":"ticket-choose","trial_index":63,"time_elapsed":768726,"internal_node_id":"0.0-63.0"},{"result":158,"points":3,"place":0,"phase":0,"sequence":44,"prices":[214,184,226,192,215,158,199,175,176,208],"times":[1227,373,663,670,672,1251],"next_num":6,"trial_type":"ticket-choose","trial_index":64,"time_elapsed":776501,"internal_node_id":"0.0-64.0"},{"result":153,"points":3,"place":0,"phase":0,"sequence":45,"prices":[178,175,186,212,167,179,187,169,209,153],"times":[1155,564,651,675,1064,612,773,777,574,922],"next_num":10,"trial_type":"ticket-choose","trial_index":65,"time_elapsed":788090,"internal_node_id":"0.0-65.0"},{"result":157,"points":3,"place":0,"phase":0,"sequence":46,"prices":[201,187,157,184,198,179,188,185,178,170],"times":[3953,723,1896],"next_num":3,"trial_type":"ticket-choose","trial_index":66,"time_elapsed":797464,"internal_node_id":"0.0-66.0"},{"result":184,"points":1,"place":4,"phase":0,"sequence":47,"prices":[193,181,175,181,185,165,224,199,218,184],"times":[1265,1137,645,720,738,634,605,589,1362,856],"next_num":10,"trial_type":"ticket-choose","trial_index":67,"time_elapsed":809751,"internal_node_id":"0.0-67.0"},{"result":159,"points":1,"place":2,"phase":0,"sequence":48,"prices":[181,159,149,175,185,151,163,174,178,207],"times":[944,2308],"next_num":2,"trial_type":"ticket-choose","trial_index":68,"time_elapsed":815028,"internal_node_id":"0.0-68.0"},{"result":150,"points":3,"place":0,"phase":0,"sequence":49,"prices":[185,179,191,165,161,173,199,150,188,168],"times":[664,474,510,527,556,589,677,957],"next_num":8,"trial_type":"ticket-choose","trial_index":69,"time_elapsed":823264,"internal_node_id":"0.0-69.0"},{"responses":[{"value":1,"offby":0,"category":"$115 - $130","category_index":0},{"value":2,"offby":-3,"category":"$131 - $145","category_index":1},{"value":7,"offby":-5,"category":"$146 - $160","category_index":2},{"value":25,"offby":3,"category":"$161 - $175","category_index":3},{"value":45,"offby":11,"category":"$176 - $190","category_index":4},{"value":15,"offby":0,"category":"$191 - $205","category_index":5},{"value":5,"offby":-6,"category":"$206 - $220","category_index":6}],"phase":1,"number":1,"trial_type":"bar-choose","trial_index":70,"time_elapsed":884675,"internal_node_id":"0.0-70.0"},{"rt":9471,"url":"\/christiane\/tickets\/utils\/testing2.html","trial_type":"point_update","trial_index":71,"time_elapsed":895323,"internal_node_id":"0.0-71.0"},{"phase":1,"order":[34,8,42,0,1,30,49,17,40,36,10,4,11,31,20,23,15,26,48,28,47,41,37,9,18,32,14,27,35,6,21,12,7,33,45,25,3,38,22,39,16,2,19,13,46,5,43,24,44,29],"trial_type":"store_order","trial_index":72,"time_elapsed":896326,"internal_node_id":"0.0-72.0"},{"result":161,"points":3,"place":0,"phase":1,"sequence":0,"prices":[200,165,165,173,182,207,161,202,204,180],"times":[987,446,495,554,516,726,860],"next_num":7,"trial_type":"ticket-choose","trial_index":73,"time_elapsed":903939,"internal_node_id":"0.0-73.0"},{"result":156,"points":3,"place":0,"phase":1,"sequence":1,"prices":[174,186,167,211,181,188,178,168,208,156],"times":[812,312,732,573,542,755,545,1493,540,754],"next_num":10,"trial_type":"ticket-choose","trial_index":74,"time_elapsed":914919,"internal_node_id":"0.0-74.0"},{"result":157,"points":3,"place":0,"phase":1,"sequence":2,"prices":[201,187,157,184,198,179,188,185,178,170],"times":[665,281,1208],"next_num":3,"trial_type":"ticket-choose","trial_index":75,"time_elapsed":919291,"internal_node_id":"0.0-75.0"},{"result":163,"points":2,"place":1,"phase":1,"sequence":3,"prices":[198,193,169,163,202,182,152,164,177,171],"times":[602,426,459,979],"next_num":4,"trial_type":"ticket-choose","trial_index":76,"time_elapsed":924110,"internal_node_id":"0.0-76.0"},{"result":163,"points":2,"place":1,"phase":1,"sequence":4,"prices":[175,186,176,210,179,187,163,166,153,208],"times":[589,479,576,520,552,653,1057],"next_num":7,"trial_type":"ticket-choose","trial_index":77,"time_elapsed":931416,"internal_node_id":"0.0-77.0"},{"result":153,"points":3,"place":0,"phase":1,"sequence":5,"prices":[175,186,165,214,179,187,177,166,153,208],"times":[657,460,946,568,602,542,545,1117,869],"next_num":9,"trial_type":"ticket-choose","trial_index":78,"time_elapsed":941009,"internal_node_id":"0.0-78.0"},{"result":165,"points":3,"place":0,"phase":1,"sequence":6,"prices":[193,169,171,187,190,224,174,194,165,188],"times":[879,708,507,715,625,650,565,572,898],"next_num":9,"trial_type":"ticket-choose","trial_index":79,"time_elapsed":950463,"internal_node_id":"0.0-79.0"},{"result":165,"points":3,"place":0,"phase":1,"sequence":7,"prices":[191,172,169,175,182,203,170,195,165,176],"times":[2089,638,572,955,1209,613,602,721,1085],"next_num":9,"trial_type":"ticket-choose","trial_index":80,"time_elapsed":962283,"internal_node_id":"0.0-80.0"},{"result":152,"points":3,"place":0,"phase":1,"sequence":8,"prices":[200,181,203,152,175,171,160,154,176,191],"times":[700,2114,1143,1068],"next_num":4,"trial_type":"ticket-choose","trial_index":81,"time_elapsed":969780,"internal_node_id":"0.0-81.0"},{"result":163,"points":2,"place":1,"phase":1,"sequence":9,"prices":[174,186,176,217,181,187,163,166,153,209],"times":[641,473,534,545,619,581,1603],"next_num":7,"trial_type":"ticket-choose","trial_index":82,"time_elapsed":977814,"internal_node_id":"0.0-82.0"},{"result":186,"points":1,"place":4,"phase":1,"sequence":10,"prices":[192,165,171,178,188,217,172,195,197,186],"times":[9460,3931,460,496,515,586,510,556,518,866],"next_num":10,"trial_type":"ticket-choose","trial_index":83,"time_elapsed":1006223,"internal_node_id":"0.0-83.0"},{"result":148,"points":3,"place":0,"phase":1,"sequence":11,"prices":[181,155,148,161,168,187,172,199,176,194],"times":[2565,480,1487],"next_num":3,"trial_type":"ticket-choose","trial_index":84,"time_elapsed":1013258,"internal_node_id":"0.0-84.0"},{"result":150,"points":3,"place":0,"phase":1,"sequence":12,"prices":[189,150,175,160,188,207,158,194,178,199],"times":[1161,987],"next_num":2,"trial_type":"ticket-choose","trial_index":85,"time_elapsed":1017376,"internal_node_id":"0.0-85.0"},{"result":156,"points":3,"place":0,"phase":1,"sequence":13,"prices":[174,186,178,217,181,188,167,168,208,156],"times":[725,459,524,2918,606,545,944,525,772,727],"next_num":10,"trial_type":"ticket-choose","trial_index":86,"time_elapsed":1029727,"internal_node_id":"0.0-86.0"},{"result":165,"points":3,"place":0,"phase":1,"sequence":14,"prices":[171,203,175,170,167,220,192,186,165,165],"times":[1528,745,722,583,1095,612,652,602,960],"next_num":9,"trial_type":"ticket-choose","trial_index":87,"time_elapsed":1040655,"internal_node_id":"0.0-87.0"},{"result":163,"points":2,"place":1,"phase":1,"sequence":15,"prices":[174,186,163,212,181,187,176,166,153,209],"times":[1122,473,1152],"next_num":3,"trial_type":"ticket-choose","trial_index":88,"time_elapsed":1045599,"internal_node_id":"0.0-88.0"},{"result":148,"points":3,"place":0,"phase":1,"sequence":16,"prices":[183,163,185,180,166,148,160,186,176,184],"times":[797,356,569,586,885,939],"next_num":6,"trial_type":"ticket-choose","trial_index":89,"time_elapsed":1052547,"internal_node_id":"0.0-89.0"},{"result":154,"points":3,"place":0,"phase":1,"sequence":17,"prices":[175,186,177,209,181,188,158,167,208,154],"times":[1022,654,510,1236,567,555,550,1598,537,687],"next_num":10,"trial_type":"ticket-choose","trial_index":90,"time_elapsed":1064221,"internal_node_id":"0.0-90.0"},{"result":141,"points":3,"place":0,"phase":1,"sequence":18,"prices":[180,159,149,175,185,141,163,174,178,207],"times":[1048,726,440,648,765,932],"next_num":6,"trial_type":"ticket-choose","trial_index":91,"time_elapsed":1071878,"internal_node_id":"0.0-91.0"},{"result":156,"points":3,"place":0,"phase":1,"sequence":19,"prices":[175,185,178,215,181,186,167,168,208,156],"times":[779,571,652,609,564,511,634,766,567,853],"next_num":10,"trial_type":"ticket-choose","trial_index":92,"time_elapsed":1082257,"internal_node_id":"0.0-92.0"},{"result":158,"points":2,"place":1,"phase":1,"sequence":20,"prices":[175,186,177,221,180,187,158,166,209,153],"times":[1496,644,590,619,573,556,1088],"next_num":7,"trial_type":"ticket-choose","trial_index":93,"time_elapsed":1090758,"internal_node_id":"0.0-93.0"},{"result":155,"points":2,"place":1,"phase":1,"sequence":21,"prices":[201,207,155,158,156,165,167,135,178,177],"times":[946,558,1145],"next_num":3,"trial_type":"ticket-choose","trial_index":94,"time_elapsed":1095412,"internal_node_id":"0.0-94.0"},{"result":158,"points":2,"place":1,"phase":1,"sequence":22,"prices":[176,187,177,225,181,187,158,165,208,153],"times":[561,491,516,556,553,539,1217],"next_num":7,"trial_type":"ticket-choose","trial_index":95,"time_elapsed":1102736,"internal_node_id":"0.0-95.0"},{"result":153,"points":3,"place":0,"phase":1,"sequence":23,"prices":[175,186,167,225,179,187,178,169,209,153],"times":[715,399,522,588,608,548,664,681,569,719],"next_num":10,"trial_type":"ticket-choose","trial_index":96,"time_elapsed":1112262,"internal_node_id":"0.0-96.0"},{"result":154,"points":2,"place":1,"phase":1,"sequence":24,"prices":[168,154,172,185,195,144,184,211,177,227],"times":[1660,844],"next_num":2,"trial_type":"ticket-choose","trial_index":97,"time_elapsed":1116767,"internal_node_id":"0.0-97.0"},{"result":154,"points":3,"place":0,"phase":1,"sequence":25,"prices":[175,187,177,209,180,188,165,165,154,208],"times":[705,380,497,624,538,588,1691,1391,997],"next_num":9,"trial_type":"ticket-choose","trial_index":98,"time_elapsed":1127525,"internal_node_id":"0.0-98.0"},{"result":153,"points":3,"place":0,"phase":1,"sequence":26,"prices":[175,186,163,214,179,187,176,166,153,208],"times":[1240,471,487,846,602,606,707,1233,814],"next_num":9,"trial_type":"ticket-choose","trial_index":99,"time_elapsed":1138028,"internal_node_id":"0.0-99.0"},{"result":153,"points":3,"place":0,"phase":1,"sequence":27,"prices":[175,186,178,212,179,187,167,169,209,153],"times":[900,297,718,682,544,554,979,723,609,671],"next_num":10,"trial_type":"ticket-choose","trial_index":100,"time_elapsed":1148515,"internal_node_id":"0.0-100.0"},{"result":153,"points":3,"place":0,"phase":1,"sequence":28,"prices":[175,186,177,210,179,187,165,166,153,208],"times":[680,336,599,613,536,618,1112,690,1069],"next_num":9,"trial_type":"ticket-choose","trial_index":101,"time_elapsed":1158138,"internal_node_id":"0.0-101.0"},{"result":156,"points":3,"place":0,"phase":1,"sequence":29,"prices":[175,185,167,224,181,186,178,168,208,156],"times":[741,366,680,576,626,559,735,1263,580,889],"next_num":10,"trial_type":"ticket-choose","trial_index":102,"time_elapsed":1168659,"internal_node_id":"0.0-102.0"},{"result":171,"points":1,"place":3,"phase":1,"sequence":30,"prices":[189,167,180,197,165,168,172,213,178,171],"times":[698,400,619,655,1096,620,661,653,574,1349],"next_num":10,"trial_type":"ticket-choose","trial_index":103,"time_elapsed":1179610,"internal_node_id":"0.0-103.0"},{"result":154,"points":3,"place":0,"phase":1,"sequence":31,"prices":[175,187,165,209,180,188,177,166,154,208],"times":[745,561,1314,542,696,676,739,1216,971],"next_num":9,"trial_type":"ticket-choose","trial_index":104,"time_elapsed":1190612,"internal_node_id":"0.0-104.0"},{"result":179,"points":1,"place":4,"phase":1,"sequence":32,"prices":[201,165,162,166,185,214,165,202,204,179],"times":[937,964,477,829,965,675,945,576,695,894],"next_num":10,"trial_type":"ticket-choose","trial_index":105,"time_elapsed":1202196,"internal_node_id":"0.0-105.0"},{"result":143,"points":3,"place":0,"phase":1,"sequence":33,"prices":[222,173,202,197,143,205,198,183,178,186],"times":[1176,635,585,568,1054],"next_num":5,"trial_type":"ticket-choose","trial_index":106,"time_elapsed":1210860,"internal_node_id":"0.0-106.0"},{"result":158,"points":3,"place":0,"phase":1,"sequence":34,"prices":[210,184,226,193,215,158,199,175,176,208],"times":[983,814,868,667,627,990],"next_num":6,"trial_type":"ticket-choose","trial_index":107,"time_elapsed":1218482,"internal_node_id":"0.0-107.0"},{"result":153,"points":3,"place":0,"phase":1,"sequence":35,"prices":[174,186,165,212,181,187,177,167,153,209],"times":[797,600,969,670,744,552,710,801,984],"next_num":9,"trial_type":"ticket-choose","trial_index":108,"time_elapsed":1228585,"internal_node_id":"0.0-108.0"},{"result":158,"points":2,"place":1,"phase":1,"sequence":36,"prices":[176,187,158,210,181,187,177,165,208,153],"times":[843,327,1152],"next_num":3,"trial_type":"ticket-choose","trial_index":109,"time_elapsed":1233232,"internal_node_id":"0.0-109.0"},{"result":170,"points":1,"place":2,"phase":1,"sequence":37,"prices":[212,192,188,184,167,193,189,164,176,170],"times":[708,666,539,510,786,626,621,743,598,1140],"next_num":10,"trial_type":"ticket-choose","trial_index":110,"time_elapsed":1243945,"internal_node_id":"0.0-110.0"},{"result":180,"points":0,"place":6,"phase":1,"sequence":38,"prices":[188,200,165,172,198,174,177,154,177,180],"times":[1032,542,814,578,546,633,607,532,1423,691],"next_num":10,"trial_type":"ticket-choose","trial_index":111,"time_elapsed":1255103,"internal_node_id":"0.0-111.0"},{"result":154,"points":3,"place":0,"phase":1,"sequence":39,"prices":[175,187,163,209,180,188,176,165,154,208],"times":[825,494,861,487,625,540,603,1147,927],"next_num":9,"trial_type":"ticket-choose","trial_index":112,"time_elapsed":1264903,"internal_node_id":"0.0-112.0"},{"result":184,"points":1,"place":4,"phase":1,"sequence":40,"prices":[193,165,175,181,185,224,180,199,218,184],"times":[946,964,546,645,567,651,608,603,547,781],"next_num":10,"trial_type":"ticket-choose","trial_index":113,"time_elapsed":1275267,"internal_node_id":"0.0-113.0"},{"result":153,"points":3,"place":0,"phase":1,"sequence":41,"prices":[174,186,177,217,181,187,165,166,153,209],"times":[949,639,590,677,556,593,1222,889,977],"next_num":9,"trial_type":"ticket-choose","trial_index":114,"time_elapsed":1286100,"internal_node_id":"0.0-114.0"},{"result":158,"points":2,"place":1,"phase":1,"sequence":42,"prices":[175,186,158,209,181,188,177,167,208,154],"times":[1011,474,1058],"next_num":3,"trial_type":"ticket-choose","trial_index":115,"time_elapsed":1290649,"internal_node_id":"0.0-115.0"},{"result":170,"points":1,"place":3,"phase":1,"sequence":43,"prices":[183,182,192,168,173,205,167,187,165,170],"times":[506,355,591,725,563,599,698,666,2303,539],"next_num":10,"trial_type":"ticket-choose","trial_index":116,"time_elapsed":1301708,"internal_node_id":"0.0-116.0"},{"result":147,"points":3,"place":0,"phase":1,"sequence":44,"prices":[181,215,169,147,182,193,177,184,176,179],"times":[858,584,1248,985],"next_num":4,"trial_type":"ticket-choose","trial_index":117,"time_elapsed":1308039,"internal_node_id":"0.0-117.0"},{"result":158,"points":2,"place":1,"phase":1,"sequence":45,"prices":[175,186,158,211,180,187,177,166,209,153],"times":[1802,771,2438],"next_num":3,"trial_type":"ticket-choose","trial_index":118,"time_elapsed":1315267,"internal_node_id":"0.0-118.0"},{"result":163,"points":3,"place":0,"phase":1,"sequence":46,"prices":[168,199,196,198,185,195,227,163,177,166],"times":[764,419,522,593,638,654,1183,1199],"next_num":8,"trial_type":"ticket-choose","trial_index":119,"time_elapsed":1324478,"internal_node_id":"0.0-119.0"},{"result":154,"points":3,"place":0,"phase":1,"sequence":47,"prices":[175,187,176,209,180,188,163,165,154,208],"times":[770,589,616,604,713,666,1010,464,657],"next_num":9,"trial_type":"ticket-choose","trial_index":120,"time_elapsed":1334072,"internal_node_id":"0.0-120.0"},{"result":165,"points":3,"place":0,"phase":1,"sequence":48,"prices":[185,170,182,201,173,199,171,188,165,168],"times":[1157,1017,847,871,650,512,501,532,1830],"next_num":9,"trial_type":"ticket-choose","trial_index":121,"time_elapsed":1345285,"internal_node_id":"0.0-121.0"},{"result":185,"points":1,"place":4,"phase":1,"sequence":49,"prices":[196,165,170,184,187,211,171,201,202,185],"times":[1049,324,530,562,537,580,638,579,521,682],"next_num":10,"trial_type":"ticket-choose","trial_index":122,"time_elapsed":1355044,"internal_node_id":"0.0-122.0"},{"responses":[{"value":0,"offby":-1,"category":"$115 - $130","category_index":0},{"value":5,"offby":0,"category":"$131 - $145","category_index":1},{"value":9,"offby":-3,"category":"$146 - $160","category_index":2},{"value":25,"offby":3,"category":"$161 - $175","category_index":3},{"value":40,"offby":6,"category":"$176 - $190","category_index":4},{"value":20,"offby":5,"category":"$191 - $205","category_index":5},{"value":1,"offby":-10,"category":"$206 - $220","category_index":6}],"phase":1,"number":1,"trial_type":"bar-choose","trial_index":123,"time_elapsed":1416277,"internal_node_id":"0.0-123.0"},{"special_comment":"No.","trial_type":"special_sequence","trial_index":124,"time_elapsed":1424173,"internal_node_id":"0.0-124.0"},{"during":"Nothing","bonus":312,"trial_type":"final","trial_index":125,"time_elapsed":1461410,"internal_node_id":"0.0-125.0"}],"bonus":312}