{"start_time":"2017-05-24 16:00:11","end_time":"2017-05-24 16:20:19","points_phase0":102,"points_phase1":100,"phase_order":0,"age":21,"gender":"f","tries":1,"during":"Nothing","worker_id":"A1QP4NP83WGF17","assignment_id":"3KB8R4ZV1F0R39O3EIZJ3YZRPKKBGL","data":[{"rt":3098,"url":"\/christiane\/tickets\/utils\/consent.html","trial_type":"html","trial_index":0,"time_elapsed":3266,"internal_node_id":"0.0-0.0"},{"age":21,"gender":"f","trial_type":"age","trial_index":1,"time_elapsed":7945,"internal_node_id":"0.0-1.0"},{"worker_id":"A1QP4NP83WGF17","trial_type":"workerid","trial_index":2,"time_elapsed":27859,"internal_node_id":"0.0-2.0"},{"tries":1,"trial_type":"instructions_check","trial_index":3,"time_elapsed":35107,"internal_node_id":"0.0-3.0"},{"rt":5655,"url":"\/christiane\/tickets\/utils\/start.html","trial_type":"html","trial_index":4,"time_elapsed":42001,"internal_node_id":"0.0-4.0"},{"trial_type":"number-animation","trial_index":5,"time_elapsed":60890,"internal_node_id":"0.0-5.0"},{"phase":0,"sequence":0,"avg":181,"response":170,"trial_type":"training_avg","trial_index":6,"time_elapsed":69299,"internal_node_id":"0.0-6.0"},{"trial_type":"number-animation","trial_index":7,"time_elapsed":79916,"internal_node_id":"0.0-7.0"},{"phase":0,"sequence":1,"avg":188,"response":179,"trial_type":"training_avg","trial_index":8,"time_elapsed":86497,"internal_node_id":"0.0-8.0"},{"trial_type":"number-animation","trial_index":9,"time_elapsed":95710,"internal_node_id":"0.0-9.0"},{"phase":0,"sequence":2,"avg":188,"response":190,"trial_type":"training_avg","trial_index":10,"time_elapsed":102969,"internal_node_id":"0.0-10.0"},{"trial_type":"number-animation","trial_index":11,"time_elapsed":112318,"internal_node_id":"0.0-11.0"},{"phase":0,"sequence":3,"avg":177,"response":178,"trial_type":"training_avg","trial_index":12,"time_elapsed":120124,"internal_node_id":"0.0-12.0"},{"trial_type":"number-animation","trial_index":13,"time_elapsed":130769,"internal_node_id":"0.0-13.0"},{"phase":0,"sequence":4,"avg":182,"response":185,"trial_type":"training_avg","trial_index":14,"time_elapsed":136999,"internal_node_id":"0.0-14.0"},{"responses":[{"value":10,"offby":9,"category":"$115 - $130","category_index":0},{"value":10,"offby":5,"category":"$131 - $145","category_index":1},{"value":10,"offby":-2,"category":"$146 - $160","category_index":2},{"value":10,"offby":-12,"category":"$161 - $175","category_index":3},{"value":40,"offby":6,"category":"$176 - $190","category_index":4},{"value":10,"offby":-5,"category":"$191 - $205","category_index":5},{"value":10,"offby":-1,"category":"$206 - $220","category_index":6}],"phase":0,"number":0,"trial_type":"bar-choose","trial_index":15,"time_elapsed":171245,"internal_node_id":"0.0-15.0"},{"rt":69843,"url":"\/christiane\/tickets\/utils\/testing.html","trial_type":"html","trial_index":16,"time_elapsed":243085,"internal_node_id":"0.0-16.0"},{"phase":0,"order":[6,29,42,19,18,47,44,21,23,46,32,49,10,5,38,35,37,2,39,14,4,40,13,33,0,22,34,1,9,26,28,11,30,17,36,27,43,3,41,25,16,20,12,31,8,7,15,24,45,48],"trial_type":"store_order","trial_index":17,"time_elapsed":244092,"internal_node_id":"0.0-17.0"},{"result":165,"points":2,"place":1,"phase":0,"sequence":-1,"prices":[184,180,224,165,181,199,185,193,218,146],"times":[2682,981,863,1839],"next_num":4,"trial_type":"ticket-choose","trial_index":18,"time_elapsed":254072,"internal_node_id":"0.0-18.0"},{"rt":7991,"url":"\/christiane\/tickets\/utils\/testing_after.html","trial_type":"html","trial_index":19,"time_elapsed":263423,"internal_node_id":"0.0-19.0"},{"result":165,"points":2,"place":1,"phase":0,"sequence":0,"prices":[175,186,165,214,179,187,177,166,153,208],"times":[3307,904,1745],"next_num":3,"trial_type":"ticket-choose","trial_index":20,"time_elapsed":272662,"internal_node_id":"0.0-20.0"},{"result":165,"points":3,"place":0,"phase":0,"sequence":1,"prices":[185,170,182,201,173,199,171,188,165,168],"times":[1030,2946,798,876,1027,760,701,683,3602],"next_num":9,"trial_type":"ticket-choose","trial_index":21,"time_elapsed":289768,"internal_node_id":"0.0-21.0"},{"result":143,"points":3,"place":0,"phase":0,"sequence":2,"prices":[222,173,202,197,143,205,198,183,178,186],"times":[1014,1179,813,3619,1184],"next_num":5,"trial_type":"ticket-choose","trial_index":22,"time_elapsed":301190,"internal_node_id":"0.0-22.0"},{"result":158,"points":2,"place":1,"phase":0,"sequence":3,"prices":[175,186,158,209,181,188,177,167,208,154],"times":[1498,1120,3805],"next_num":3,"trial_type":"ticket-choose","trial_index":23,"time_elapsed":310595,"internal_node_id":"0.0-23.0"},{"result":158,"points":2,"place":1,"phase":0,"sequence":4,"prices":[175,186,158,211,180,187,177,166,209,153],"times":[783,651,1206],"next_num":3,"trial_type":"ticket-choose","trial_index":24,"time_elapsed":315700,"internal_node_id":"0.0-24.0"},{"result":152,"points":3,"place":0,"phase":0,"sequence":5,"prices":[200,181,203,152,175,171,160,154,176,191],"times":[965,744,770,1308],"next_num":4,"trial_type":"ticket-choose","trial_index":25,"time_elapsed":325831,"internal_node_id":"0.0-25.0"},{"result":159,"points":1,"place":2,"phase":0,"sequence":6,"prices":[180,159,149,175,185,141,163,174,178,207],"times":[3323,1707],"next_num":2,"trial_type":"ticket-choose","trial_index":26,"time_elapsed":333446,"internal_node_id":"0.0-26.0"},{"result":158,"points":2,"place":1,"phase":0,"sequence":7,"prices":[175,186,177,221,180,187,158,166,209,153],"times":[850,717,783,3441,754,969,1195],"next_num":7,"trial_type":"ticket-choose","trial_index":27,"time_elapsed":345830,"internal_node_id":"0.0-27.0"},{"result":158,"points":2,"place":1,"phase":0,"sequence":8,"prices":[176,187,177,225,181,187,158,165,208,153],"times":[1722,3446,1500,1180,1116,874,1043],"next_num":7,"trial_type":"ticket-choose","trial_index":28,"time_elapsed":367223,"internal_node_id":"0.0-28.0"},{"result":158,"points":3,"place":0,"phase":0,"sequence":9,"prices":[210,184,226,193,215,158,199,175,176,208],"times":[1301,4411,5236,2257,975,1111],"next_num":6,"trial_type":"ticket-choose","trial_index":29,"time_elapsed":389328,"internal_node_id":"0.0-29.0"},{"result":165,"points":3,"place":0,"phase":0,"sequence":10,"prices":[193,169,171,187,190,224,174,194,165,188],"times":[1251,705,758,4168,926,853,1038,835,1023],"next_num":9,"trial_type":"ticket-choose","trial_index":30,"time_elapsed":405020,"internal_node_id":"0.0-30.0"},{"result":163,"points":1,"place":2,"phase":0,"sequence":11,"prices":[183,163,185,180,166,148,160,186,176,184],"times":[1735,1234],"next_num":2,"trial_type":"ticket-choose","trial_index":31,"time_elapsed":413447,"internal_node_id":"0.0-31.0"},{"result":165,"points":2,"place":1,"phase":0,"sequence":12,"prices":[175,187,177,209,180,188,165,165,154,208],"times":[831,3839,1002,936,1094,856,1042],"next_num":7,"trial_type":"ticket-choose","trial_index":32,"time_elapsed":430165,"internal_node_id":"0.0-32.0"},{"result":167,"points":2,"place":1,"phase":0,"sequence":13,"prices":[175,186,178,212,179,187,167,169,209,153],"times":[960,716,766,738,667,4313,1084],"next_num":7,"trial_type":"ticket-choose","trial_index":33,"time_elapsed":444190,"internal_node_id":"0.0-33.0"},{"result":163,"points":3,"place":0,"phase":0,"sequence":14,"prices":[168,199,196,198,185,195,227,163,177,166],"times":[915,640,679,959,1099,823,747,1242],"next_num":8,"trial_type":"ticket-choose","trial_index":34,"time_elapsed":462697,"internal_node_id":"0.0-34.0"},{"result":168,"points":1,"place":2,"phase":0,"sequence":15,"prices":[168,154,172,185,195,144,184,211,177,227],"times":[1356],"next_num":1,"trial_type":"ticket-choose","trial_index":35,"time_elapsed":466571,"internal_node_id":"0.0-35.0"},{"result":169,"points":1,"place":3,"phase":0,"sequence":16,"prices":[198,193,169,163,202,182,152,164,177,171],"times":[7200,1065,1471],"next_num":3,"trial_type":"ticket-choose","trial_index":36,"time_elapsed":480683,"internal_node_id":"0.0-36.0"},{"result":167,"points":2,"place":1,"phase":0,"sequence":17,"prices":[175,186,167,225,179,187,178,169,209,153],"times":[1268,629,1042],"next_num":3,"trial_type":"ticket-choose","trial_index":37,"time_elapsed":486175,"internal_node_id":"0.0-37.0"},{"result":167,"points":2,"place":1,"phase":0,"sequence":18,"prices":[189,167,180,197,165,168,172,213,178,171],"times":[972,1121],"next_num":2,"trial_type":"ticket-choose","trial_index":38,"time_elapsed":490786,"internal_node_id":"0.0-38.0"},{"result":163,"points":2,"place":1,"phase":0,"sequence":19,"prices":[174,186,163,212,181,187,176,166,153,209],"times":[1106,691,1005],"next_num":3,"trial_type":"ticket-choose","trial_index":39,"time_elapsed":496042,"internal_node_id":"0.0-39.0"},{"result":167,"points":2,"place":1,"phase":0,"sequence":20,"prices":[175,185,178,215,181,186,167,168,208,156],"times":[932,699,729,681,804,669,1236],"next_num":7,"trial_type":"ticket-choose","trial_index":40,"time_elapsed":505182,"internal_node_id":"0.0-40.0"},{"result":150,"points":3,"place":0,"phase":0,"sequence":21,"prices":[189,150,175,160,188,207,158,194,178,199],"times":[929,1018],"next_num":2,"trial_type":"ticket-choose","trial_index":41,"time_elapsed":509503,"internal_node_id":"0.0-41.0"},{"result":163,"points":2,"place":1,"phase":0,"sequence":22,"prices":[175,187,163,209,180,188,176,165,154,208],"times":[860,591,2924],"next_num":3,"trial_type":"ticket-choose","trial_index":42,"time_elapsed":516363,"internal_node_id":"0.0-42.0"},{"result":168,"points":1,"place":2,"phase":0,"sequence":23,"prices":[183,182,192,168,173,205,167,187,165,170],"times":[796,619,715,1080],"next_num":4,"trial_type":"ticket-choose","trial_index":43,"time_elapsed":522434,"internal_node_id":"0.0-43.0"},{"result":168,"points":1,"place":2,"phase":0,"sequence":24,"prices":[174,186,167,211,181,188,178,168,208,156],"times":[916,571,733,630,684,582,611,965],"next_num":8,"trial_type":"ticket-choose","trial_index":44,"time_elapsed":532214,"internal_node_id":"0.0-44.0"},{"result":158,"points":2,"place":1,"phase":0,"sequence":25,"prices":[175,186,177,209,181,188,158,167,208,154],"times":[1017,630,1018,609,669,593,985],"next_num":7,"trial_type":"ticket-choose","trial_index":45,"time_elapsed":540877,"internal_node_id":"0.0-45.0"},{"result":155,"points":2,"place":1,"phase":0,"sequence":26,"prices":[181,155,148,161,168,187,172,199,176,194],"times":[713,947],"next_num":2,"trial_type":"ticket-choose","trial_index":46,"time_elapsed":544825,"internal_node_id":"0.0-46.0"},{"result":167,"points":2,"place":1,"phase":0,"sequence":27,"prices":[175,185,167,224,181,186,178,168,208,156],"times":[749,776,2082],"next_num":3,"trial_type":"ticket-choose","trial_index":47,"time_elapsed":551056,"internal_node_id":"0.0-47.0"},{"result":165,"points":2,"place":1,"phase":0,"sequence":28,"prices":[175,186,177,210,179,187,165,166,153,208],"times":[480,554,648,679,634,591,1566],"next_num":7,"trial_type":"ticket-choose","trial_index":48,"time_elapsed":559790,"internal_node_id":"0.0-48.0"},{"result":165,"points":2,"place":1,"phase":0,"sequence":29,"prices":[200,165,165,173,182,207,161,202,204,180],"times":[1101,1234],"next_num":2,"trial_type":"ticket-choose","trial_index":49,"time_elapsed":564317,"internal_node_id":"0.0-49.0"},{"result":165,"points":3,"place":0,"phase":0,"sequence":30,"prices":[196,165,170,184,187,211,171,201,202,185],"times":[730,963],"next_num":2,"trial_type":"ticket-choose","trial_index":50,"time_elapsed":568797,"internal_node_id":"0.0-50.0"},{"result":165,"points":2,"place":1,"phase":0,"sequence":31,"prices":[174,186,177,217,181,187,165,166,153,209],"times":[926,645,621,623,695,702,1068],"next_num":7,"trial_type":"ticket-choose","trial_index":51,"time_elapsed":577394,"internal_node_id":"0.0-51.0"},{"result":169,"points":2,"place":1,"phase":0,"sequence":32,"prices":[191,172,169,175,182,203,170,195,165,176],"times":[645,851,1066],"next_num":3,"trial_type":"ticket-choose","trial_index":52,"time_elapsed":582406,"internal_node_id":"0.0-52.0"},{"result":163,"points":2,"place":1,"phase":0,"sequence":33,"prices":[174,186,176,217,181,187,163,166,153,209],"times":[729,19564,663,586,905,674,1092],"next_num":7,"trial_type":"ticket-choose","trial_index":53,"time_elapsed":610371,"internal_node_id":"0.0-53.0"},{"result":165,"points":2,"place":1,"phase":0,"sequence":34,"prices":[188,200,165,172,198,174,177,154,177,180],"times":[892,680,1282],"next_num":3,"trial_type":"ticket-choose","trial_index":54,"time_elapsed":615607,"internal_node_id":"0.0-54.0"},{"result":165,"points":3,"place":0,"phase":0,"sequence":35,"prices":[192,165,171,178,188,217,172,195,197,186],"times":[774,985],"next_num":2,"trial_type":"ticket-choose","trial_index":55,"time_elapsed":619856,"internal_node_id":"0.0-55.0"},{"result":157,"points":3,"place":0,"phase":0,"sequence":36,"prices":[201,187,157,184,198,179,188,185,178,170],"times":[1417,672,1108],"next_num":3,"trial_type":"ticket-choose","trial_index":56,"time_elapsed":625280,"internal_node_id":"0.0-56.0"},{"result":168,"points":1,"place":2,"phase":0,"sequence":37,"prices":[174,186,178,217,181,188,167,168,208,156],"times":[1083,583,565,1066,691,810,652,1027],"next_num":8,"trial_type":"ticket-choose","trial_index":57,"time_elapsed":635548,"internal_node_id":"0.0-57.0"},{"result":155,"points":2,"place":1,"phase":0,"sequence":38,"prices":[201,207,155,158,156,165,167,135,178,177],"times":[1004,588,1041],"next_num":3,"trial_type":"ticket-choose","trial_index":58,"time_elapsed":641387,"internal_node_id":"0.0-58.0"},{"result":165,"points":2,"place":1,"phase":0,"sequence":39,"prices":[201,165,162,166,185,214,165,202,204,179],"times":[776,1385],"next_num":2,"trial_type":"ticket-choose","trial_index":59,"time_elapsed":646180,"internal_node_id":"0.0-59.0"},{"result":163,"points":2,"place":1,"phase":0,"sequence":40,"prices":[175,187,176,209,180,188,163,165,154,208],"times":[6437,1098,761,623,652,604,938],"next_num":7,"trial_type":"ticket-choose","trial_index":60,"time_elapsed":661203,"internal_node_id":"0.0-60.0"},{"result":158,"points":2,"place":1,"phase":0,"sequence":41,"prices":[176,187,158,210,181,187,177,165,208,153],"times":[709,617,1172],"next_num":3,"trial_type":"ticket-choose","trial_index":61,"time_elapsed":666229,"internal_node_id":"0.0-61.0"},{"result":163,"points":2,"place":1,"phase":0,"sequence":42,"prices":[175,186,163,214,179,187,176,166,153,208],"times":[2221,974,979],"next_num":3,"trial_type":"ticket-choose","trial_index":62,"time_elapsed":673358,"internal_node_id":"0.0-62.0"},{"result":167,"points":1,"place":2,"phase":0,"sequence":43,"prices":[171,203,175,170,167,220,192,186,165,165],"times":[629,650,1743,708,986],"next_num":5,"trial_type":"ticket-choose","trial_index":63,"time_elapsed":681057,"internal_node_id":"0.0-63.0"},{"result":165,"points":2,"place":1,"phase":0,"sequence":44,"prices":[174,186,165,212,181,187,177,167,153,209],"times":[727,664,1766],"next_num":3,"trial_type":"ticket-choose","trial_index":64,"time_elapsed":686757,"internal_node_id":"0.0-64.0"},{"result":166,"points":1,"place":2,"phase":0,"sequence":45,"prices":[175,187,165,209,180,188,177,166,154,208],"times":[941,623,765,679,613,897,1069,1122],"next_num":8,"trial_type":"ticket-choose","trial_index":65,"time_elapsed":698480,"internal_node_id":"0.0-65.0"},{"result":163,"points":2,"place":1,"phase":0,"sequence":46,"prices":[175,186,176,210,179,187,163,166,153,208],"times":[729,751,2120,636,683,647,1037],"next_num":7,"trial_type":"ticket-choose","trial_index":66,"time_elapsed":708625,"internal_node_id":"0.0-66.0"},{"result":165,"points":3,"place":0,"phase":0,"sequence":47,"prices":[193,165,175,181,185,224,180,199,218,184],"times":[3547,1355],"next_num":2,"trial_type":"ticket-choose","trial_index":67,"time_elapsed":716233,"internal_node_id":"0.0-67.0"},{"result":167,"points":2,"place":1,"phase":0,"sequence":48,"prices":[212,192,188,184,167,193,189,164,176,170],"times":[779,639,715,590,954],"next_num":5,"trial_type":"ticket-choose","trial_index":68,"time_elapsed":724414,"internal_node_id":"0.0-68.0"},{"result":169,"points":2,"place":1,"phase":0,"sequence":49,"prices":[181,215,169,147,182,193,177,184,176,179],"times":[723,753,1883],"next_num":3,"trial_type":"ticket-choose","trial_index":69,"time_elapsed":730808,"internal_node_id":"0.0-69.0"},{"responses":[{"value":5,"offby":4,"category":"$115 - $130","category_index":0},{"value":10,"offby":5,"category":"$131 - $145","category_index":1},{"value":20,"offby":8,"category":"$146 - $160","category_index":2},{"value":30,"offby":8,"category":"$161 - $175","category_index":3},{"value":15,"offby":-19,"category":"$176 - $190","category_index":4},{"value":10,"offby":-5,"category":"$191 - $205","category_index":5},{"value":10,"offby":-1,"category":"$206 - $220","category_index":6}],"phase":1,"number":1,"trial_type":"bar-choose","trial_index":70,"time_elapsed":770329,"internal_node_id":"0.0-70.0"},{"rt":21477,"url":"\/christiane\/tickets\/utils\/testing2.html","trial_type":"point_update","trial_index":71,"time_elapsed":793386,"internal_node_id":"0.0-71.0"},{"phase":1,"order":[28,35,32,17,19,6,30,38,37,1,7,12,48,8,20,0,18,21,31,43,4,13,49,26,34,42,39,36,44,9,29,22,23,5,10,15,47,2,11,40,14,3,45,33,16,25,41,46,24,27],"trial_type":"store_order","trial_index":72,"time_elapsed":794404,"internal_node_id":"0.0-72.0"},{"result":165,"points":3,"place":0,"phase":1,"sequence":0,"prices":[196,171,170,184,187,165,211,169,201,202],"times":[1669,7337,664,602,656,3416],"next_num":6,"trial_type":"ticket-choose","trial_index":73,"time_elapsed":811896,"internal_node_id":"0.0-73.0"},{"result":167,"points":1,"place":2,"phase":1,"sequence":1,"prices":[167,153,172,185,195,143,184,211,177,227],"times":[1129],"next_num":1,"trial_type":"ticket-choose","trial_index":74,"time_elapsed":815195,"internal_node_id":"0.0-74.0"},{"result":165,"points":2,"place":1,"phase":1,"sequence":2,"prices":[193,174,224,165,187,190,224,161,194,195],"times":[2748,679,592,886],"next_num":4,"trial_type":"ticket-choose","trial_index":75,"time_elapsed":822715,"internal_node_id":"0.0-75.0"},{"result":163,"points":2,"place":1,"phase":1,"sequence":3,"prices":[176,186,178,217,163,181,187,166,153,209],"times":[704,682,2988,1047,1055],"next_num":5,"trial_type":"ticket-choose","trial_index":76,"time_elapsed":832366,"internal_node_id":"0.0-76.0"},{"result":158,"points":2,"place":1,"phase":1,"sequence":4,"prices":[158,175,186,209,177,181,188,167,208,154],"times":[1295],"next_num":1,"trial_type":"ticket-choose","trial_index":77,"time_elapsed":835669,"internal_node_id":"0.0-77.0"},{"result":165,"points":2,"place":1,"phase":1,"sequence":5,"prices":[165,175,186,214,177,179,187,166,153,208],"times":[1389],"next_num":1,"trial_type":"ticket-choose","trial_index":78,"time_elapsed":841256,"internal_node_id":"0.0-78.0"},{"result":165,"points":2,"place":1,"phase":1,"sequence":6,"prices":[191,170,182,165,175,182,203,157,195,200],"times":[2655,1111,805,995],"next_num":4,"trial_type":"ticket-choose","trial_index":79,"time_elapsed":852335,"internal_node_id":"0.0-79.0"},{"result":163,"points":3,"place":0,"phase":1,"sequence":7,"prices":[163,199,196,199,185,195,227,163,177,166],"times":[1305],"next_num":1,"trial_type":"ticket-choose","trial_index":80,"time_elapsed":858140,"internal_node_id":"0.0-80.0"},{"result":169,"points":1,"place":3,"phase":1,"sequence":8,"prices":[199,193,169,165,202,182,151,164,176,171],"times":[1196,941,1083],"next_num":3,"trial_type":"ticket-choose","trial_index":81,"time_elapsed":864228,"internal_node_id":"0.0-81.0"},{"result":167,"points":2,"place":1,"phase":1,"sequence":9,"prices":[167,175,185,224,178,181,186,168,208,156],"times":[3928],"next_num":1,"trial_type":"ticket-choose","trial_index":82,"time_elapsed":870199,"internal_node_id":"0.0-82.0"},{"result":165,"points":2,"place":1,"phase":1,"sequence":10,"prices":[165,175,187,209,177,180,188,167,154,208],"times":[992],"next_num":1,"trial_type":"ticket-choose","trial_index":83,"time_elapsed":873413,"internal_node_id":"0.0-83.0"},{"result":163,"points":2,"place":1,"phase":1,"sequence":11,"prices":[163,175,186,214,176,179,187,166,153,208],"times":[1120],"next_num":1,"trial_type":"ticket-choose","trial_index":84,"time_elapsed":876608,"internal_node_id":"0.0-84.0"},{"result":169,"points":2,"place":1,"phase":1,"sequence":12,"prices":[181,214,169,147,182,193,178,184,176,179],"times":[970,656,1089],"next_num":3,"trial_type":"ticket-choose","trial_index":85,"time_elapsed":884417,"internal_node_id":"0.0-85.0"},{"result":165,"points":2,"place":1,"phase":1,"sequence":13,"prices":[165,174,186,212,177,181,187,166,153,209],"times":[1038],"next_num":1,"trial_type":"ticket-choose","trial_index":86,"time_elapsed":890662,"internal_node_id":"0.0-86.0"},{"result":158,"points":2,"place":1,"phase":1,"sequence":14,"prices":[158,176,187,210,177,181,187,165,208,153],"times":[1074],"next_num":1,"trial_type":"ticket-choose","trial_index":87,"time_elapsed":894156,"internal_node_id":"0.0-87.0"},{"result":167,"points":2,"place":1,"phase":1,"sequence":15,"prices":[167,174,186,211,178,181,188,168,208,156],"times":[1899],"next_num":1,"trial_type":"ticket-choose","trial_index":88,"time_elapsed":900580,"internal_node_id":"0.0-88.0"},{"result":158,"points":2,"place":1,"phase":1,"sequence":16,"prices":[158,175,186,211,177,180,187,166,209,153],"times":[1465],"next_num":1,"trial_type":"ticket-choose","trial_index":89,"time_elapsed":904127,"internal_node_id":"0.0-89.0"},{"result":158,"points":2,"place":1,"phase":1,"sequence":17,"prices":[177,175,186,221,158,180,187,166,209,153],"times":[1394,652,3949,762,1241],"next_num":5,"trial_type":"ticket-choose","trial_index":90,"time_elapsed":915211,"internal_node_id":"0.0-90.0"},{"result":169,"points":0,"place":5,"phase":1,"sequence":18,"prices":[171,169,186,165,163,167,220,148,187,165],"times":[1082,1254],"next_num":2,"trial_type":"ticket-choose","trial_index":91,"time_elapsed":922460,"internal_node_id":"0.0-91.0"},{"result":157,"points":3,"place":0,"phase":1,"sequence":19,"prices":[201,187,157,184,198,179,188,185,178,170],"times":[735,850,1250],"next_num":3,"trial_type":"ticket-choose","trial_index":92,"time_elapsed":928075,"internal_node_id":"0.0-92.0"},{"result":167,"points":2,"place":1,"phase":1,"sequence":20,"prices":[178,175,185,215,167,181,186,168,208,156],"times":[825,3561,650,625,1230],"next_num":5,"trial_type":"ticket-choose","trial_index":93,"time_elapsed":937982,"internal_node_id":"0.0-93.0"},{"result":163,"points":2,"place":1,"phase":1,"sequence":21,"prices":[163,175,187,209,176,180,188,165,154,208],"times":[1139],"next_num":1,"trial_type":"ticket-choose","trial_index":94,"time_elapsed":944114,"internal_node_id":"0.0-94.0"},{"result":163,"points":1,"place":2,"phase":1,"sequence":22,"prices":[173,163,185,181,166,148,160,185,176,184],"times":[1091,1032],"next_num":2,"trial_type":"ticket-choose","trial_index":95,"time_elapsed":948827,"internal_node_id":"0.0-95.0"},{"result":169,"points":1,"place":3,"phase":1,"sequence":23,"prices":[200,173,182,169,207,165,152,202,161,204],"times":[937,1415,662,960],"next_num":4,"trial_type":"ticket-choose","trial_index":96,"time_elapsed":959000,"internal_node_id":"0.0-96.0"},{"result":156,"points":2,"place":1,"phase":1,"sequence":24,"prices":[180,156,149,160,168,186,172,198,176,195],"times":[876,4214],"next_num":2,"trial_type":"ticket-choose","trial_index":97,"time_elapsed":966340,"internal_node_id":"0.0-97.0"},{"result":169,"points":3,"place":0,"phase":1,"sequence":25,"prices":[220,173,201,197,169,205,198,183,178,186],"times":[645,649,705,760,910],"next_num":5,"trial_type":"ticket-choose","trial_index":98,"time_elapsed":976282,"internal_node_id":"0.0-98.0"},{"result":167,"points":2,"place":1,"phase":1,"sequence":26,"prices":[189,167,180,197,165,168,172,213,178,171],"times":[4086,1159],"next_num":2,"trial_type":"ticket-choose","trial_index":99,"time_elapsed":987124,"internal_node_id":"0.0-99.0"},{"result":165,"points":2,"place":1,"phase":1,"sequence":27,"prices":[187,201,165,172,196,174,178,154,172,180],"times":[1049,641,960],"next_num":3,"trial_type":"ticket-choose","trial_index":100,"time_elapsed":992647,"internal_node_id":"0.0-100.0"},{"result":159,"points":1,"place":2,"phase":1,"sequence":28,"prices":[181,159,149,175,185,151,163,174,178,207],"times":[4075,1584],"next_num":2,"trial_type":"ticket-choose","trial_index":101,"time_elapsed":1001273,"internal_node_id":"0.0-101.0"},{"result":165,"points":2,"place":1,"phase":1,"sequence":29,"prices":[177,175,186,210,165,179,187,166,153,208],"times":[702,590,673,6045,1041],"next_num":5,"trial_type":"ticket-choose","trial_index":102,"time_elapsed":1013393,"internal_node_id":"0.0-102.0"},{"result":165,"points":1,"place":2,"phase":1,"sequence":30,"prices":[185,179,191,165,161,173,199,150,188,168],"times":[990,660,4151,1219],"next_num":4,"trial_type":"ticket-choose","trial_index":103,"time_elapsed":1023104,"internal_node_id":"0.0-103.0"},{"result":158,"points":2,"place":1,"phase":1,"sequence":31,"prices":[177,175,186,209,158,181,188,167,208,154],"times":[978,654,611,4168,1119],"next_num":5,"trial_type":"ticket-choose","trial_index":104,"time_elapsed":1033504,"internal_node_id":"0.0-104.0"},{"result":158,"points":2,"place":1,"phase":1,"sequence":32,"prices":[177,176,187,225,158,181,187,165,208,153],"times":[705,702,639,657,4490],"next_num":5,"trial_type":"ticket-choose","trial_index":105,"time_elapsed":1043707,"internal_node_id":"0.0-105.0"},{"result":167,"points":2,"place":1,"phase":1,"sequence":33,"prices":[178,175,186,212,167,179,187,169,209,153],"times":[916,649,713,740,1003],"next_num":5,"trial_type":"ticket-choose","trial_index":106,"time_elapsed":1054541,"internal_node_id":"0.0-106.0"},{"result":165,"points":2,"place":1,"phase":1,"sequence":34,"prices":[177,175,187,209,165,180,188,165,154,208],"times":[1692,649,584,598,947],"next_num":5,"trial_type":"ticket-choose","trial_index":107,"time_elapsed":1062625,"internal_node_id":"0.0-107.0"},{"result":163,"points":2,"place":1,"phase":1,"sequence":35,"prices":[176,175,186,210,163,179,187,166,153,208],"times":[986,554,590,635,1013],"next_num":5,"trial_type":"ticket-choose","trial_index":108,"time_elapsed":1069439,"internal_node_id":"0.0-108.0"},{"result":152,"points":3,"place":0,"phase":1,"sequence":36,"prices":[200,180,203,152,175,170,160,154,176,191],"times":[3532,638,572,926],"next_num":4,"trial_type":"ticket-choose","trial_index":109,"time_elapsed":1078009,"internal_node_id":"0.0-109.0"},{"result":167,"points":2,"place":1,"phase":1,"sequence":37,"prices":[167,175,186,225,178,179,187,169,209,153],"times":[1224],"next_num":1,"trial_type":"ticket-choose","trial_index":110,"time_elapsed":1081287,"internal_node_id":"0.0-110.0"},{"result":165,"points":2,"place":1,"phase":1,"sequence":38,"prices":[177,174,186,217,165,181,187,166,153,209],"times":[965,589,605,583,880],"next_num":5,"trial_type":"ticket-choose","trial_index":111,"time_elapsed":1087612,"internal_node_id":"0.0-111.0"},{"result":150,"points":3,"place":0,"phase":1,"sequence":39,"prices":[190,150,175,161,188,207,157,194,178,199],"times":[1044,958],"next_num":2,"trial_type":"ticket-choose","trial_index":112,"time_elapsed":1092222,"internal_node_id":"0.0-112.0"},{"result":163,"points":2,"place":1,"phase":1,"sequence":40,"prices":[163,174,186,212,176,181,187,166,153,209],"times":[1153],"next_num":1,"trial_type":"ticket-choose","trial_index":113,"time_elapsed":1095518,"internal_node_id":"0.0-113.0"},{"result":167,"points":2,"place":1,"phase":1,"sequence":41,"prices":[178,174,186,217,167,181,188,168,208,156],"times":[744,538,623,566,1447],"next_num":5,"trial_type":"ticket-choose","trial_index":114,"time_elapsed":1102326,"internal_node_id":"0.0-114.0"},{"result":167,"points":2,"place":1,"phase":1,"sequence":42,"prices":[199,191,188,174,167,193,189,164,176,170],"times":[784,543,604,773,957],"next_num":5,"trial_type":"ticket-choose","trial_index":115,"time_elapsed":1109054,"internal_node_id":"0.0-115.0"},{"result":165,"points":2,"place":1,"phase":1,"sequence":43,"prices":[183,179,188,165,168,173,205,159,187,191],"times":[801,689,525,886],"next_num":4,"trial_type":"ticket-choose","trial_index":116,"time_elapsed":1114652,"internal_node_id":"0.0-116.0"},{"result":163,"points":2,"place":1,"phase":1,"sequence":44,"prices":[176,187,179,209,163,180,188,165,154,208],"times":[746,570,671,592,1006],"next_num":5,"trial_type":"ticket-choose","trial_index":117,"time_elapsed":1121244,"internal_node_id":"0.0-117.0"},{"result":166,"points":1,"place":3,"phase":1,"sequence":45,"prices":[201,204,179,166,185,165,214,156,202,165],"times":[744,573,707,847],"next_num":4,"trial_type":"ticket-choose","trial_index":118,"time_elapsed":1126957,"internal_node_id":"0.0-118.0"},{"result":155,"points":2,"place":1,"phase":1,"sequence":46,"prices":[200,207,155,158,156,168,167,135,178,177],"times":[588,566,878],"next_num":3,"trial_type":"ticket-choose","trial_index":119,"time_elapsed":1131293,"internal_node_id":"0.0-119.0"},{"result":158,"points":3,"place":0,"phase":1,"sequence":47,"prices":[214,184,226,192,215,158,199,175,176,208],"times":[1007,700,555,660,677,1028],"next_num":6,"trial_type":"ticket-choose","trial_index":120,"time_elapsed":1139441,"internal_node_id":"0.0-120.0"},{"result":165,"points":3,"place":0,"phase":1,"sequence":48,"prices":[193,181,175,181,185,165,224,199,218,184],"times":[705,564,639,566,573,949],"next_num":6,"trial_type":"ticket-choose","trial_index":121,"time_elapsed":1146563,"internal_node_id":"0.0-121.0"},{"result":165,"points":3,"place":0,"phase":1,"sequence":49,"prices":[192,172,171,178,188,165,217,168,195,197],"times":[1065,580,544,558,878,1164],"next_num":6,"trial_type":"ticket-choose","trial_index":122,"time_elapsed":1154657,"internal_node_id":"0.0-122.0"},{"responses":[{"value":10,"offby":9,"category":"$115 - $130","category_index":0},{"value":10,"offby":5,"category":"$131 - $145","category_index":1},{"value":30,"offby":18,"category":"$146 - $160","category_index":2},{"value":10,"offby":-12,"category":"$161 - $175","category_index":3},{"value":10,"offby":-24,"category":"$176 - $190","category_index":4},{"value":20,"offby":5,"category":"$191 - $205","category_index":5},{"value":10,"offby":-1,"category":"$206 - $220","category_index":6}],"phase":1,"number":1,"trial_type":"bar-choose","trial_index":123,"time_elapsed":1184053,"internal_node_id":"0.0-123.0"},{"special_comment":"No","trial_type":"special_sequence","trial_index":124,"time_elapsed":1188738,"internal_node_id":"0.0-124.0"},{"during":"Nothing","bonus":268,"trial_type":"final","trial_index":125,"time_elapsed":1205721,"internal_node_id":"0.0-125.0"}],"bonus":268}