{"start_time":"2017-05-24 12:02:54","end_time":"2017-05-24 12:34:46","points_phase0":110,"points_phase1":113,"phase_order":0,"age":41,"gender":"m","tries":1,"during":"Nothing","worker_id":"A1TMZLYXQAK8Q0","assignment_id":"3RRCEFRB7N5BRTVJJHXIU92OZEU4B8","data":[{"rt":58317,"url":"\/christiane\/tickets\/utils\/consent.html","trial_type":"html","trial_index":0,"time_elapsed":58649,"internal_node_id":"0.0-0.0"},{"age":41,"gender":"m","trial_type":"age","trial_index":1,"time_elapsed":66397,"internal_node_id":"0.0-1.0"},{"worker_id":"A1TMZLYXQAK8Q0","trial_type":"workerid","trial_index":2,"time_elapsed":74294,"internal_node_id":"0.0-2.0"},{"tries":1,"trial_type":"instructions_check","trial_index":3,"time_elapsed":122046,"internal_node_id":"0.0-3.0"},{"rt":24976,"url":"\/christiane\/tickets\/utils\/start.html","trial_type":"html","trial_index":4,"time_elapsed":148212,"internal_node_id":"0.0-4.0"},{"trial_type":"number-animation","trial_index":5,"time_elapsed":192072,"internal_node_id":"0.0-5.0"},{"phase":0,"sequence":0,"avg":181,"response":180,"trial_type":"training_avg","trial_index":6,"time_elapsed":216213,"internal_node_id":"0.0-6.0"},{"trial_type":"number-animation","trial_index":7,"time_elapsed":252753,"internal_node_id":"0.0-7.0"},{"phase":0,"sequence":1,"avg":188,"response":185,"trial_type":"training_avg","trial_index":8,"time_elapsed":264121,"internal_node_id":"0.0-8.0"},{"trial_type":"number-animation","trial_index":9,"time_elapsed":293329,"internal_node_id":"0.0-9.0"},{"phase":0,"sequence":2,"avg":188,"response":192,"trial_type":"training_avg","trial_index":10,"time_elapsed":305989,"internal_node_id":"0.0-10.0"},{"trial_type":"number-animation","trial_index":11,"time_elapsed":330579,"internal_node_id":"0.0-11.0"},{"phase":0,"sequence":3,"avg":177,"response":165,"trial_type":"training_avg","trial_index":12,"time_elapsed":337731,"internal_node_id":"0.0-12.0"},{"trial_type":"number-animation","trial_index":13,"time_elapsed":361809,"internal_node_id":"0.0-13.0"},{"phase":0,"sequence":4,"avg":182,"response":178,"trial_type":"training_avg","trial_index":14,"time_elapsed":370094,"internal_node_id":"0.0-14.0"},{"responses":[{"value":1,"offby":0,"category":"$115 - $130","category_index":0},{"value":4,"offby":-1,"category":"$131 - $145","category_index":1},{"value":15,"offby":3,"category":"$146 - $160","category_index":2},{"value":29,"offby":7,"category":"$161 - $175","category_index":3},{"value":32,"offby":-2,"category":"$176 - $190","category_index":4},{"value":15,"offby":0,"category":"$191 - $205","category_index":5},{"value":4,"offby":-7,"category":"$206 - $220","category_index":6}],"phase":0,"number":0,"trial_type":"bar-choose","trial_index":15,"time_elapsed":497339,"internal_node_id":"0.0-15.0"},{"rt":25960,"url":"\/christiane\/tickets\/utils\/testing.html","trial_type":"html","trial_index":16,"time_elapsed":524481,"internal_node_id":"0.0-16.0"},{"phase":0,"order":[16,48,34,19,41,36,49,23,7,25,3,39,45,33,14,8,37,29,2,9,1,6,46,15,5,11,38,26,32,24,21,31,10,27,44,0,20,28,22,13,47,40,18,43,35,30,17,4,12,42],"trial_type":"store_order","trial_index":17,"time_elapsed":525483,"internal_node_id":"0.0-17.0"},{"result":165,"points":2,"place":1,"phase":0,"sequence":-1,"prices":[184,180,224,165,181,199,185,193,218,146],"times":[3385,1346,960,1867],"next_num":4,"trial_type":"ticket-choose","trial_index":18,"time_elapsed":536908,"internal_node_id":"0.0-18.0"},{"rt":30011,"url":"\/christiane\/tickets\/utils\/testing_after.html","trial_type":"html","trial_index":19,"time_elapsed":568100,"internal_node_id":"0.0-19.0"},{"result":163,"points":2,"place":1,"phase":0,"sequence":0,"prices":[175,187,176,209,180,188,163,165,154,208],"times":[2456,867,997,878,895,938,1317],"next_num":7,"trial_type":"ticket-choose","trial_index":20,"time_elapsed":580898,"internal_node_id":"0.0-20.0"},{"result":169,"points":2,"place":1,"phase":0,"sequence":1,"prices":[181,215,169,147,182,193,177,184,176,179],"times":[1449,826,2846],"next_num":3,"trial_type":"ticket-choose","trial_index":21,"time_elapsed":589380,"internal_node_id":"0.0-21.0"},{"result":155,"points":2,"place":1,"phase":0,"sequence":2,"prices":[181,155,148,161,168,187,172,199,176,194],"times":[21919,1376],"next_num":2,"trial_type":"ticket-choose","trial_index":22,"time_elapsed":615842,"internal_node_id":"0.0-22.0"},{"result":158,"points":2,"place":1,"phase":0,"sequence":3,"prices":[175,186,158,209,181,188,177,167,208,154],"times":[1508,789,1465],"next_num":3,"trial_type":"ticket-choose","trial_index":23,"time_elapsed":622721,"internal_node_id":"0.0-23.0"},{"result":155,"points":2,"place":1,"phase":0,"sequence":4,"prices":[201,207,155,158,156,165,167,135,178,177],"times":[1377,882,1450],"next_num":3,"trial_type":"ticket-choose","trial_index":24,"time_elapsed":629574,"internal_node_id":"0.0-24.0"},{"result":154,"points":3,"place":0,"phase":0,"sequence":5,"prices":[188,200,165,172,198,174,177,154,177,180],"times":[1252,879,1336,762,809,825,842,1357],"next_num":8,"trial_type":"ticket-choose","trial_index":25,"time_elapsed":642356,"internal_node_id":"0.0-25.0"},{"result":148,"points":3,"place":0,"phase":0,"sequence":6,"prices":[183,163,185,180,166,148,160,186,176,184],"times":[1343,1528,761,776,1194,1389],"next_num":6,"trial_type":"ticket-choose","trial_index":26,"time_elapsed":653318,"internal_node_id":"0.0-26.0"},{"result":158,"points":2,"place":1,"phase":0,"sequence":7,"prices":[176,187,177,225,181,187,158,165,208,153],"times":[1525,775,781,871,822,813,1203],"next_num":7,"trial_type":"ticket-choose","trial_index":27,"time_elapsed":663995,"internal_node_id":"0.0-27.0"},{"result":166,"points":1,"place":2,"phase":0,"sequence":8,"prices":[175,187,165,209,180,188,177,166,154,208],"times":[1984,728,1349,750,1029,801,809,1680],"next_num":8,"trial_type":"ticket-choose","trial_index":28,"time_elapsed":677076,"internal_node_id":"0.0-28.0"},{"result":179,"points":1,"place":4,"phase":0,"sequence":9,"prices":[201,165,162,166,185,214,165,202,204,179],"times":[1340,1025,808,1333,944,969,1331,1327,989,1941],"next_num":10,"trial_type":"ticket-choose","trial_index":29,"time_elapsed":693802,"internal_node_id":"0.0-29.0"},{"result":156,"points":3,"place":0,"phase":0,"sequence":10,"prices":[174,186,178,217,181,188,167,168,208,156],"times":[1507,871,797,827,1300,801,2134,1743,929,1173],"next_num":10,"trial_type":"ticket-choose","trial_index":30,"time_elapsed":710965,"internal_node_id":"0.0-30.0"},{"result":171,"points":1,"place":3,"phase":0,"sequence":11,"prices":[189,167,180,197,165,168,172,213,178,171],"times":[1284,757,942,758,1640,1034,863,900,1532,991],"next_num":10,"trial_type":"ticket-choose","trial_index":31,"time_elapsed":726034,"internal_node_id":"0.0-31.0"},{"result":167,"points":2,"place":1,"phase":0,"sequence":12,"prices":[212,192,188,184,167,193,189,164,176,170],"times":[1344,802,742,821,3959],"next_num":5,"trial_type":"ticket-choose","trial_index":32,"time_elapsed":737146,"internal_node_id":"0.0-32.0"},{"result":167,"points":2,"place":1,"phase":0,"sequence":13,"prices":[183,182,192,168,173,205,167,187,165,170],"times":[1282,811,811,1529,1026,833,1632],"next_num":7,"trial_type":"ticket-choose","trial_index":33,"time_elapsed":748748,"internal_node_id":"0.0-33.0"},{"result":163,"points":2,"place":1,"phase":0,"sequence":14,"prices":[174,186,163,212,181,187,176,166,153,209],"times":[1582,771,3330],"next_num":3,"trial_type":"ticket-choose","trial_index":34,"time_elapsed":757337,"internal_node_id":"0.0-34.0"},{"result":153,"points":3,"place":0,"phase":0,"sequence":15,"prices":[174,186,165,212,181,187,177,167,153,209],"times":[1369,997,1309,838,788,777,816,2618,1306],"next_num":9,"trial_type":"ticket-choose","trial_index":35,"time_elapsed":772829,"internal_node_id":"0.0-35.0"},{"result":163,"points":2,"place":1,"phase":0,"sequence":16,"prices":[198,193,169,163,202,182,152,164,177,171],"times":[1627,737,1098,2160],"next_num":4,"trial_type":"ticket-choose","trial_index":36,"time_elapsed":781727,"internal_node_id":"0.0-36.0"},{"result":171,"points":1,"place":3,"phase":0,"sequence":17,"prices":[185,170,182,201,173,199,171,188,165,168],"times":[1376,1054,813,862,781,911,2337],"next_num":7,"trial_type":"ticket-choose","trial_index":37,"time_elapsed":793790,"internal_node_id":"0.0-37.0"},{"result":153,"points":3,"place":0,"phase":0,"sequence":18,"prices":[175,186,167,225,179,187,178,169,209,153],"times":[2084,825,994,790,778,809,963,1205,957,1051],"next_num":10,"trial_type":"ticket-choose","trial_index":38,"time_elapsed":809461,"internal_node_id":"0.0-38.0"},{"result":165,"points":2,"place":1,"phase":0,"sequence":19,"prices":[175,186,177,210,179,187,165,166,153,208],"times":[1498,752,893,856,868,904,2187],"next_num":7,"trial_type":"ticket-choose","trial_index":39,"time_elapsed":821197,"internal_node_id":"0.0-39.0"},{"result":156,"points":3,"place":0,"phase":0,"sequence":20,"prices":[175,185,167,224,181,186,178,168,208,156],"times":[2230,663,770,861,737,777,850,2540,920,888],"next_num":10,"trial_type":"ticket-choose","trial_index":40,"time_elapsed":837325,"internal_node_id":"0.0-40.0"},{"result":153,"points":3,"place":0,"phase":0,"sequence":21,"prices":[175,186,165,214,179,187,177,166,153,208],"times":[1297,790,1117,767,782,764,1014,1379,1391],"next_num":9,"trial_type":"ticket-choose","trial_index":41,"time_elapsed":850956,"internal_node_id":"0.0-41.0"},{"result":158,"points":3,"place":0,"phase":0,"sequence":22,"prices":[210,184,226,193,215,158,199,175,176,208],"times":[1647,692,759,828,801,1412],"next_num":6,"trial_type":"ticket-choose","trial_index":42,"time_elapsed":860793,"internal_node_id":"0.0-42.0"},{"result":153,"points":3,"place":0,"phase":0,"sequence":23,"prices":[175,186,176,210,179,187,163,166,153,208],"times":[1434,796,836,815,750,789,1699,1381,1213],"next_num":9,"trial_type":"ticket-choose","trial_index":43,"time_elapsed":874748,"internal_node_id":"0.0-43.0"},{"result":153,"points":3,"place":0,"phase":0,"sequence":24,"prices":[175,186,178,212,179,187,167,169,209,153],"times":[1402,760,723,828,882,784,1607,1413,952,917],"next_num":10,"trial_type":"ticket-choose","trial_index":44,"time_elapsed":889628,"internal_node_id":"0.0-44.0"},{"result":165,"points":2,"place":1,"phase":0,"sequence":25,"prices":[174,186,177,217,181,187,165,166,153,209],"times":[1207,737,727,821,869,726,3050],"next_num":7,"trial_type":"ticket-choose","trial_index":45,"time_elapsed":901556,"internal_node_id":"0.0-45.0"},{"result":163,"points":3,"place":0,"phase":0,"sequence":26,"prices":[168,199,196,198,185,195,227,163,177,166],"times":[1482,768,714,727,889,776,977,1762],"next_num":8,"trial_type":"ticket-choose","trial_index":46,"time_elapsed":913774,"internal_node_id":"0.0-46.0"},{"result":161,"points":3,"place":0,"phase":0,"sequence":27,"prices":[200,165,165,173,182,207,161,202,204,180],"times":[1549,683,1660,813,812,853,1535],"next_num":7,"trial_type":"ticket-choose","trial_index":47,"time_elapsed":925434,"internal_node_id":"0.0-47.0"},{"result":188,"points":0,"place":5,"phase":0,"sequence":28,"prices":[193,169,171,187,190,224,174,194,165,188],"times":[1455,876,770,710,810,801,795,879,1273,950],"next_num":10,"trial_type":"ticket-choose","trial_index":48,"time_elapsed":939143,"internal_node_id":"0.0-48.0"},{"result":184,"points":1,"place":4,"phase":0,"sequence":29,"prices":[193,165,175,181,185,224,180,199,218,184],"times":[1391,1118,774,807,800,798,827,819,833,963],"next_num":10,"trial_type":"ticket-choose","trial_index":49,"time_elapsed":952623,"internal_node_id":"0.0-49.0"},{"result":158,"points":2,"place":1,"phase":0,"sequence":30,"prices":[175,186,177,221,180,187,158,166,209,153],"times":[1223,831,801,870,826,779,1371],"next_num":7,"trial_type":"ticket-choose","trial_index":50,"time_elapsed":963093,"internal_node_id":"0.0-50.0"},{"result":165,"points":3,"place":0,"phase":0,"sequence":31,"prices":[171,203,175,170,167,220,192,186,165,165],"times":[1533,742,720,764,1255,837,727,825,1327],"next_num":9,"trial_type":"ticket-choose","trial_index":51,"time_elapsed":976152,"internal_node_id":"0.0-51.0"},{"result":165,"points":2,"place":1,"phase":0,"sequence":32,"prices":[175,187,177,209,180,188,165,165,154,208],"times":[1330,930,722,765,736,766,2411],"next_num":7,"trial_type":"ticket-choose","trial_index":52,"time_elapsed":987458,"internal_node_id":"0.0-52.0"},{"result":186,"points":1,"place":4,"phase":0,"sequence":33,"prices":[192,165,171,178,188,217,172,195,197,186],"times":[1570,1332,758,711,618,795,807,891,759,937],"next_num":10,"trial_type":"ticket-choose","trial_index":53,"time_elapsed":1000807,"internal_node_id":"0.0-53.0"},{"result":159,"points":1,"place":2,"phase":0,"sequence":34,"prices":[180,159,149,175,185,141,163,174,178,207],"times":[1018,1396],"next_num":2,"trial_type":"ticket-choose","trial_index":54,"time_elapsed":1005899,"internal_node_id":"0.0-54.0"},{"result":156,"points":3,"place":0,"phase":0,"sequence":35,"prices":[174,186,167,211,181,188,178,168,208,156],"times":[1479,920,1253,784,771,761,846,1774,925,776],"next_num":10,"trial_type":"ticket-choose","trial_index":55,"time_elapsed":1020816,"internal_node_id":"0.0-55.0"},{"result":153,"points":3,"place":0,"phase":0,"sequence":36,"prices":[176,187,158,210,181,187,177,165,208,153],"times":[1758,712,718,1972,768,762,756,1156,793,761],"next_num":10,"trial_type":"ticket-choose","trial_index":56,"time_elapsed":1035925,"internal_node_id":"0.0-56.0"},{"result":185,"points":1,"place":4,"phase":0,"sequence":37,"prices":[196,165,170,184,187,211,171,201,202,185],"times":[1653,4147,770,768,740,726,749,817,1951,1064],"next_num":11,"trial_type":"ticket-choose","trial_index":57,"time_elapsed":1054295,"internal_node_id":"0.0-57.0"},{"result":158,"points":2,"place":1,"phase":0,"sequence":38,"prices":[175,186,177,209,181,188,158,167,208,154],"times":[2590,806,774,789,860,872,1349],"next_num":7,"trial_type":"ticket-choose","trial_index":58,"time_elapsed":1065958,"internal_node_id":"0.0-58.0"},{"result":163,"points":2,"place":1,"phase":0,"sequence":39,"prices":[175,187,163,209,180,188,176,165,154,208],"times":[2841,754,1753],"next_num":3,"trial_type":"ticket-choose","trial_index":59,"time_elapsed":1074091,"internal_node_id":"0.0-59.0"},{"result":152,"points":3,"place":0,"phase":0,"sequence":40,"prices":[200,181,203,152,175,171,160,154,176,191],"times":[1679,833,824,1441],"next_num":4,"trial_type":"ticket-choose","trial_index":60,"time_elapsed":1082345,"internal_node_id":"0.0-60.0"},{"result":150,"points":3,"place":0,"phase":0,"sequence":41,"prices":[189,150,175,160,188,207,158,194,178,199],"times":[2095,1278],"next_num":2,"trial_type":"ticket-choose","trial_index":61,"time_elapsed":1089026,"internal_node_id":"0.0-61.0"},{"result":158,"points":2,"place":1,"phase":0,"sequence":42,"prices":[175,186,158,211,180,187,177,166,209,153],"times":[1275,798,1298],"next_num":3,"trial_type":"ticket-choose","trial_index":62,"time_elapsed":1095204,"internal_node_id":"0.0-62.0"},{"result":157,"points":3,"place":0,"phase":0,"sequence":43,"prices":[201,187,157,184,198,179,188,185,178,170],"times":[1108,773,1739],"next_num":3,"trial_type":"ticket-choose","trial_index":63,"time_elapsed":1101740,"internal_node_id":"0.0-63.0"},{"result":154,"points":2,"place":1,"phase":0,"sequence":44,"prices":[168,154,172,185,195,144,184,211,177,227],"times":[17352,1311],"next_num":2,"trial_type":"ticket-choose","trial_index":64,"time_elapsed":1123238,"internal_node_id":"0.0-64.0"},{"result":165,"points":3,"place":0,"phase":0,"sequence":45,"prices":[191,172,169,175,182,203,170,195,165,176],"times":[1498,1169,928,933,771,841,827,869,2563],"next_num":9,"trial_type":"ticket-choose","trial_index":65,"time_elapsed":1139052,"internal_node_id":"0.0-65.0"},{"result":163,"points":2,"place":1,"phase":0,"sequence":46,"prices":[174,186,176,217,181,187,163,166,153,209],"times":[1678,799,984,801,920,827,1361],"next_num":7,"trial_type":"ticket-choose","trial_index":66,"time_elapsed":1150141,"internal_node_id":"0.0-66.0"},{"result":167,"points":2,"place":1,"phase":0,"sequence":47,"prices":[175,185,178,215,181,186,167,168,208,156],"times":[1422,743,805,1027,857,830,1260],"next_num":7,"trial_type":"ticket-choose","trial_index":67,"time_elapsed":1160705,"internal_node_id":"0.0-67.0"},{"result":163,"points":2,"place":1,"phase":0,"sequence":48,"prices":[175,186,163,214,179,187,176,166,153,208],"times":[1622,937,1286],"next_num":3,"trial_type":"ticket-choose","trial_index":68,"time_elapsed":1167460,"internal_node_id":"0.0-68.0"},{"result":143,"points":3,"place":0,"phase":0,"sequence":49,"prices":[222,173,202,197,143,205,198,183,178,186],"times":[1319,1198,770,760,1301],"next_num":5,"trial_type":"ticket-choose","trial_index":69,"time_elapsed":1181947,"internal_node_id":"0.0-69.0"},{"responses":[{"value":0,"offby":-1,"category":"$115 - $130","category_index":0},{"value":3,"offby":-2,"category":"$131 - $145","category_index":1},{"value":10,"offby":-2,"category":"$146 - $160","category_index":2},{"value":35,"offby":13,"category":"$161 - $175","category_index":3},{"value":34,"offby":0,"category":"$176 - $190","category_index":4},{"value":13,"offby":-2,"category":"$191 - $205","category_index":5},{"value":5,"offby":-6,"category":"$206 - $220","category_index":6}],"phase":1,"number":1,"trial_type":"bar-choose","trial_index":70,"time_elapsed":1276191,"internal_node_id":"0.0-70.0"},{"rt":28513,"url":"\/christiane\/tickets\/utils\/testing2.html","trial_type":"point_update","trial_index":71,"time_elapsed":1306064,"internal_node_id":"0.0-71.0"},{"phase":1,"order":[6,32,19,27,40,7,23,9,5,42,26,15,35,20,49,28,37,43,47,21,39,25,30,29,10,45,4,2,44,11,14,13,31,33,1,46,17,16,24,12,38,22,0,8,48,36,34,3,41,18],"trial_type":"store_order","trial_index":72,"time_elapsed":1307066,"internal_node_id":"0.0-72.0"},{"result":165,"points":2,"place":1,"phase":1,"sequence":0,"prices":[165,175,186,214,177,179,187,166,153,208],"times":[6527],"next_num":1,"trial_type":"ticket-choose","trial_index":73,"time_elapsed":1316155,"internal_node_id":"0.0-73.0"},{"result":165,"points":2,"place":1,"phase":1,"sequence":1,"prices":[193,174,224,165,187,190,224,161,194,195],"times":[1251,888,770,1437],"next_num":4,"trial_type":"ticket-choose","trial_index":74,"time_elapsed":1323548,"internal_node_id":"0.0-74.0"},{"result":158,"points":2,"place":1,"phase":1,"sequence":2,"prices":[158,175,186,209,177,181,188,167,208,154],"times":[1864],"next_num":1,"trial_type":"ticket-choose","trial_index":75,"time_elapsed":1327805,"internal_node_id":"0.0-75.0"},{"result":165,"points":3,"place":0,"phase":1,"sequence":3,"prices":[192,172,171,178,188,165,217,168,195,197],"times":[1211,768,736,750,786,1221],"next_num":6,"trial_type":"ticket-choose","trial_index":76,"time_elapsed":1336747,"internal_node_id":"0.0-76.0"},{"result":150,"points":3,"place":0,"phase":1,"sequence":4,"prices":[190,150,175,161,188,207,157,194,178,199],"times":[1262,1327],"next_num":2,"trial_type":"ticket-choose","trial_index":77,"time_elapsed":1341938,"internal_node_id":"0.0-77.0"},{"result":154,"points":3,"place":0,"phase":1,"sequence":5,"prices":[165,175,187,209,177,180,188,167,154,208],"times":[1481,770,757,772,784,861,778,1530,1255],"next_num":9,"trial_type":"ticket-choose","trial_index":78,"time_elapsed":1355090,"internal_node_id":"0.0-78.0"},{"result":158,"points":2,"place":1,"phase":1,"sequence":6,"prices":[177,176,187,225,158,181,187,165,208,153],"times":[1648,789,738,889,1333],"next_num":5,"trial_type":"ticket-choose","trial_index":79,"time_elapsed":1363700,"internal_node_id":"0.0-79.0"},{"result":165,"points":2,"place":1,"phase":1,"sequence":7,"prices":[177,175,186,210,165,179,187,166,153,208],"times":[1107,750,814,1020,1250],"next_num":5,"trial_type":"ticket-choose","trial_index":80,"time_elapsed":1371735,"internal_node_id":"0.0-80.0"},{"result":153,"points":3,"place":0,"phase":1,"sequence":8,"prices":[178,175,186,212,167,179,187,169,209,153],"times":[1233,773,733,862,1129,784,770,1035,809,854],"next_num":10,"trial_type":"ticket-choose","trial_index":81,"time_elapsed":1385769,"internal_node_id":"0.0-81.0"},{"result":186,"points":1,"place":4,"phase":1,"sequence":9,"prices":[220,173,201,197,169,205,198,183,178,186],"times":[1251,764,769,843,1002,754,820,803,1202,888],"next_num":10,"trial_type":"ticket-choose","trial_index":82,"time_elapsed":1399841,"internal_node_id":"0.0-82.0"},{"result":165,"points":1,"place":2,"phase":1,"sequence":10,"prices":[200,173,182,169,207,165,152,202,161,204],"times":[1126,726,791,1266,774,1345],"next_num":6,"trial_type":"ticket-choose","trial_index":83,"time_elapsed":1409321,"internal_node_id":"0.0-83.0"},{"result":163,"points":2,"place":1,"phase":1,"sequence":11,"prices":[176,175,186,210,163,179,187,166,153,208],"times":[1077,822,783,746,1724],"next_num":5,"trial_type":"ticket-choose","trial_index":84,"time_elapsed":1417551,"internal_node_id":"0.0-84.0"},{"result":153,"points":2,"place":1,"phase":1,"sequence":12,"prices":[167,153,172,185,195,143,184,211,177,227],"times":[2333,1312],"next_num":2,"trial_type":"ticket-choose","trial_index":85,"time_elapsed":1423796,"internal_node_id":"0.0-85.0"},{"result":158,"points":2,"place":1,"phase":1,"sequence":13,"prices":[158,176,187,210,177,181,187,165,208,153],"times":[1597],"next_num":1,"trial_type":"ticket-choose","trial_index":86,"time_elapsed":1427774,"internal_node_id":"0.0-86.0"},{"result":163,"points":1,"place":2,"phase":1,"sequence":14,"prices":[173,163,185,181,166,148,160,185,176,184],"times":[1656,1263],"next_num":2,"trial_type":"ticket-choose","trial_index":87,"time_elapsed":1433185,"internal_node_id":"0.0-87.0"},{"result":202,"points":0,"place":8,"phase":1,"sequence":15,"prices":[196,171,170,184,187,165,211,169,201,202],"times":[1169,956,745,774,738,987,879,1010,808,802],"next_num":10,"trial_type":"ticket-choose","trial_index":88,"time_elapsed":1446227,"internal_node_id":"0.0-88.0"},{"result":151,"points":3,"place":0,"phase":1,"sequence":16,"prices":[199,193,169,165,202,182,151,164,176,171],"times":[1285,852,965,1127,770,764,1238],"next_num":7,"trial_type":"ticket-choose","trial_index":89,"time_elapsed":1456935,"internal_node_id":"0.0-89.0"},{"result":170,"points":2,"place":1,"phase":1,"sequence":17,"prices":[201,187,157,184,198,179,188,185,178,170],"times":[1376,754,747,812,799,756,788,788,749,754],"next_num":10,"trial_type":"ticket-choose","trial_index":90,"time_elapsed":1469498,"internal_node_id":"0.0-90.0"},{"result":152,"points":3,"place":0,"phase":1,"sequence":18,"prices":[200,180,203,152,175,170,160,154,176,191],"times":[1126,784,804,1308],"next_num":4,"trial_type":"ticket-choose","trial_index":91,"time_elapsed":1476599,"internal_node_id":"0.0-91.0"},{"result":158,"points":2,"place":1,"phase":1,"sequence":19,"prices":[177,175,186,221,158,180,187,166,209,153],"times":[2377,751,770,765,1293],"next_num":5,"trial_type":"ticket-choose","trial_index":92,"time_elapsed":1485672,"internal_node_id":"0.0-92.0"},{"result":165,"points":3,"place":0,"phase":1,"sequence":20,"prices":[189,167,180,197,165,168,172,213,178,171],"times":[1177,702,820,764,1282],"next_num":5,"trial_type":"ticket-choose","trial_index":93,"time_elapsed":1493622,"internal_node_id":"0.0-93.0"},{"result":165,"points":2,"place":1,"phase":1,"sequence":21,"prices":[201,204,179,166,185,165,214,156,202,165],"times":[1099,748,875,1149,814,1473],"next_num":6,"trial_type":"ticket-choose","trial_index":94,"time_elapsed":1503108,"internal_node_id":"0.0-94.0"},{"result":157,"points":3,"place":0,"phase":1,"sequence":22,"prices":[191,170,182,165,175,182,203,157,195,200],"times":[1401,1083,793,2611,749,770,847,1358],"next_num":8,"trial_type":"ticket-choose","trial_index":95,"time_elapsed":1516641,"internal_node_id":"0.0-95.0"},{"result":161,"points":2,"place":1,"phase":1,"sequence":23,"prices":[185,179,191,165,161,173,199,150,188,168],"times":[1327,884,836,1458,1271],"next_num":5,"trial_type":"ticket-choose","trial_index":96,"time_elapsed":1525589,"internal_node_id":"0.0-96.0"},{"result":165,"points":2,"place":1,"phase":1,"sequence":24,"prices":[177,175,187,209,165,180,188,165,154,208],"times":[1294,787,748,846,1413],"next_num":5,"trial_type":"ticket-choose","trial_index":97,"time_elapsed":1533871,"internal_node_id":"0.0-97.0"},{"result":164,"points":3,"place":0,"phase":1,"sequence":25,"prices":[199,191,188,174,167,193,189,164,176,170],"times":[1524,975,1043,969,1402,814,774,1237],"next_num":8,"trial_type":"ticket-choose","trial_index":98,"time_elapsed":1546528,"internal_node_id":"0.0-98.0"},{"result":156,"points":3,"place":0,"phase":1,"sequence":26,"prices":[178,175,185,215,167,181,186,168,208,156],"times":[1341,910,773,824,1365,779,858,1541,791,750],"next_num":10,"trial_type":"ticket-choose","trial_index":99,"time_elapsed":1561150,"internal_node_id":"0.0-99.0"},{"result":153,"points":3,"place":0,"phase":1,"sequence":27,"prices":[167,175,186,225,178,179,187,169,209,153],"times":[1542,782,763,828,780,809,778,1337,809,754],"next_num":10,"trial_type":"ticket-choose","trial_index":100,"time_elapsed":1574540,"internal_node_id":"0.0-100.0"},{"result":159,"points":1,"place":2,"phase":1,"sequence":28,"prices":[181,159,149,175,185,151,163,174,178,207],"times":[1193,1236],"next_num":2,"trial_type":"ticket-choose","trial_index":101,"time_elapsed":1579506,"internal_node_id":"0.0-101.0"},{"result":153,"points":3,"place":0,"phase":1,"sequence":29,"prices":[177,174,186,217,165,181,187,166,153,209],"times":[1059,766,801,848,2052,752,756,1180,1337],"next_num":9,"trial_type":"ticket-choose","trial_index":102,"time_elapsed":1593092,"internal_node_id":"0.0-102.0"},{"result":163,"points":2,"place":1,"phase":1,"sequence":30,"prices":[163,174,186,212,176,181,187,166,153,209],"times":[1591],"next_num":1,"trial_type":"ticket-choose","trial_index":103,"time_elapsed":1596956,"internal_node_id":"0.0-103.0"},{"result":163,"points":2,"place":1,"phase":1,"sequence":31,"prices":[163,175,187,209,176,180,188,165,154,208],"times":[1373],"next_num":1,"trial_type":"ticket-choose","trial_index":104,"time_elapsed":1600660,"internal_node_id":"0.0-104.0"},{"result":163,"points":2,"place":1,"phase":1,"sequence":32,"prices":[171,169,186,165,163,167,220,148,187,165],"times":[1295,954,760,1166,1318],"next_num":5,"trial_type":"ticket-choose","trial_index":105,"time_elapsed":1609321,"internal_node_id":"0.0-105.0"},{"result":159,"points":3,"place":0,"phase":1,"sequence":33,"prices":[183,179,188,165,168,173,205,159,187,191],"times":[1709,771,735,1168,733,768,795,1524],"next_num":8,"trial_type":"ticket-choose","trial_index":106,"time_elapsed":1621575,"internal_node_id":"0.0-106.0"},{"result":168,"points":1,"place":2,"phase":1,"sequence":34,"prices":[167,175,185,224,178,181,186,168,208,156],"times":[1494,765,1264,1261,803,838,799,1240],"next_num":8,"trial_type":"ticket-choose","trial_index":107,"time_elapsed":1633827,"internal_node_id":"0.0-107.0"},{"result":158,"points":3,"place":0,"phase":1,"sequence":35,"prices":[214,184,226,192,215,158,199,175,176,208],"times":[1412,1079,814,787,825,1279],"next_num":6,"trial_type":"ticket-choose","trial_index":108,"time_elapsed":1643424,"internal_node_id":"0.0-108.0"},{"result":163,"points":2,"place":1,"phase":1,"sequence":36,"prices":[176,186,178,217,163,181,187,166,153,209],"times":[1561,768,795,827,1963],"next_num":5,"trial_type":"ticket-choose","trial_index":109,"time_elapsed":1652412,"internal_node_id":"0.0-109.0"},{"result":163,"points":2,"place":1,"phase":1,"sequence":37,"prices":[176,187,179,209,163,180,188,165,154,208],"times":[1780,790,903,835,2190],"next_num":5,"trial_type":"ticket-choose","trial_index":110,"time_elapsed":1662028,"internal_node_id":"0.0-110.0"},{"result":165,"points":3,"place":0,"phase":1,"sequence":38,"prices":[193,181,175,181,185,165,224,199,218,184],"times":[1511,818,729,757,798,1336],"next_num":6,"trial_type":"ticket-choose","trial_index":111,"time_elapsed":1672090,"internal_node_id":"0.0-111.0"},{"result":163,"points":2,"place":1,"phase":1,"sequence":39,"prices":[163,175,186,214,176,179,187,166,153,208],"times":[1405],"next_num":1,"trial_type":"ticket-choose","trial_index":112,"time_elapsed":1675867,"internal_node_id":"0.0-112.0"},{"result":163,"points":3,"place":0,"phase":1,"sequence":40,"prices":[163,199,196,199,185,195,227,163,177,166],"times":[1533],"next_num":1,"trial_type":"ticket-choose","trial_index":113,"time_elapsed":1679831,"internal_node_id":"0.0-113.0"},{"result":158,"points":2,"place":1,"phase":1,"sequence":41,"prices":[177,175,186,209,158,181,188,167,208,154],"times":[1345,728,756,779,1311],"next_num":5,"trial_type":"ticket-choose","trial_index":114,"time_elapsed":1687871,"internal_node_id":"0.0-114.0"},{"result":156,"points":3,"place":0,"phase":1,"sequence":42,"prices":[167,174,186,211,178,181,188,168,208,156],"times":[2051,783,790,811,791,813,742,1935,862,833],"next_num":10,"trial_type":"ticket-choose","trial_index":115,"time_elapsed":1703179,"internal_node_id":"0.0-115.0"},{"result":165,"points":2,"place":1,"phase":1,"sequence":43,"prices":[165,174,186,212,177,181,187,166,153,209],"times":[2616],"next_num":1,"trial_type":"ticket-choose","trial_index":116,"time_elapsed":1708784,"internal_node_id":"0.0-116.0"},{"result":147,"points":3,"place":0,"phase":1,"sequence":44,"prices":[181,214,169,147,182,193,178,184,176,179],"times":[1333,797,1197,1280],"next_num":4,"trial_type":"ticket-choose","trial_index":117,"time_elapsed":1717030,"internal_node_id":"0.0-117.0"},{"result":154,"points":3,"place":0,"phase":1,"sequence":45,"prices":[187,201,165,172,196,174,178,154,172,180],"times":[1504,795,1052,764,757,781,774,1267],"next_num":8,"trial_type":"ticket-choose","trial_index":118,"time_elapsed":1728811,"internal_node_id":"0.0-118.0"},{"result":156,"points":2,"place":1,"phase":1,"sequence":46,"prices":[180,156,149,160,168,186,172,198,176,195],"times":[1161,1812],"next_num":2,"trial_type":"ticket-choose","trial_index":119,"time_elapsed":1734291,"internal_node_id":"0.0-119.0"},{"result":156,"points":3,"place":0,"phase":1,"sequence":47,"prices":[178,174,186,217,167,181,188,168,208,156],"times":[1203,819,1054,811,1169,956,790,1016,805,794],"next_num":10,"trial_type":"ticket-choose","trial_index":120,"time_elapsed":1748240,"internal_node_id":"0.0-120.0"},{"result":155,"points":2,"place":1,"phase":1,"sequence":48,"prices":[200,207,155,158,156,168,167,135,178,177],"times":[1411,759,1304],"next_num":3,"trial_type":"ticket-choose","trial_index":121,"time_elapsed":1754479,"internal_node_id":"0.0-121.0"},{"result":158,"points":2,"place":1,"phase":1,"sequence":49,"prices":[158,175,186,211,177,180,187,166,209,153],"times":[1617],"next_num":1,"trial_type":"ticket-choose","trial_index":122,"time_elapsed":1758463,"internal_node_id":"0.0-122.0"},{"responses":[{"value":1,"offby":0,"category":"$115 - $130","category_index":0},{"value":7,"offby":2,"category":"$131 - $145","category_index":1},{"value":15,"offby":3,"category":"$146 - $160","category_index":2},{"value":28,"offby":6,"category":"$161 - $175","category_index":3},{"value":35,"offby":1,"category":"$176 - $190","category_index":4},{"value":9,"offby":-6,"category":"$191 - $205","category_index":5},{"value":5,"offby":-6,"category":"$206 - $220","category_index":6}],"phase":1,"number":1,"trial_type":"bar-choose","trial_index":123,"time_elapsed":1816999,"internal_node_id":"0.0-123.0"},{"special_comment":"Not really, I seemed to have a knack for picking the second best, so I may think that the second best usually came before the first best","trial_type":"special_sequence","trial_index":124,"time_elapsed":1876019,"internal_node_id":"0.0-124.0"},{"during":"Nothing","bonus":296,"trial_type":"final","trial_index":125,"time_elapsed":1910042,"internal_node_id":"0.0-125.0"}],"bonus":296}