{"start_time":"2017-05-24 15:26:51","end_time":"2017-05-24 16:07:20","points_phase0":113,"points_phase1":119,"phase_order":1,"age":25,"gender":"f","tries":1,"during":"Nothing","worker_id":"A1UHNDB2EQ8TK0","assignment_id":"3M68NM076I0CMNGMY2CNRMR6DSK6RR","data":[{"rt":41187,"url":"\/christiane\/tickets\/utils\/consent.html","trial_type":"html","trial_index":0,"time_elapsed":41799,"internal_node_id":"0.0-0.0"},{"age":25,"gender":"f","trial_type":"age","trial_index":1,"time_elapsed":49163,"internal_node_id":"0.0-1.0"},{"worker_id":"A1UHNDB2EQ8TK0","trial_type":"workerid","trial_index":2,"time_elapsed":55949,"internal_node_id":"0.0-2.0"},{"tries":1,"trial_type":"instructions_check","trial_index":3,"time_elapsed":144007,"internal_node_id":"0.0-3.0"},{"rt":25199,"url":"\/christiane\/tickets\/utils\/start.html","trial_type":"html","trial_index":4,"time_elapsed":170472,"internal_node_id":"0.0-4.0"},{"trial_type":"number-animation","trial_index":5,"time_elapsed":271873,"internal_node_id":"0.0-5.0"},{"phase":0,"sequence":0,"avg":181,"response":180,"trial_type":"training_avg","trial_index":6,"time_elapsed":299258,"internal_node_id":"0.0-6.0"},{"trial_type":"number-animation","trial_index":7,"time_elapsed":387098,"internal_node_id":"0.0-7.0"},{"phase":0,"sequence":1,"avg":188,"response":188,"trial_type":"training_avg","trial_index":8,"time_elapsed":406076,"internal_node_id":"0.0-8.0"},{"trial_type":"number-animation","trial_index":9,"time_elapsed":483981,"internal_node_id":"0.0-9.0"},{"phase":0,"sequence":2,"avg":188,"response":188,"trial_type":"training_avg","trial_index":10,"time_elapsed":496202,"internal_node_id":"0.0-10.0"},{"trial_type":"number-animation","trial_index":11,"time_elapsed":574828,"internal_node_id":"0.0-11.0"},{"phase":0,"sequence":3,"avg":177,"response":177,"trial_type":"training_avg","trial_index":12,"time_elapsed":602127,"internal_node_id":"0.0-12.0"},{"trial_type":"number-animation","trial_index":13,"time_elapsed":678848,"internal_node_id":"0.0-13.0"},{"phase":0,"sequence":4,"avg":182,"response":182,"trial_type":"training_avg","trial_index":14,"time_elapsed":686622,"internal_node_id":"0.0-14.0"},{"responses":[{"value":0,"offby":-1,"category":"$115 - $130","category_index":0},{"value":4,"offby":-1,"category":"$131 - $145","category_index":1},{"value":6,"offby":-6,"category":"$146 - $160","category_index":2},{"value":20,"offby":-2,"category":"$161 - $175","category_index":3},{"value":44,"offby":10,"category":"$176 - $190","category_index":4},{"value":20,"offby":5,"category":"$191 - $205","category_index":5},{"value":6,"offby":-5,"category":"$206 - $220","category_index":6}],"phase":0,"number":0,"trial_type":"bar-choose","trial_index":15,"time_elapsed":1142714,"internal_node_id":"0.0-15.0"},{"rt":2949,"url":"\/christiane\/tickets\/utils\/testing.html","trial_type":"html","trial_index":16,"time_elapsed":1146903,"internal_node_id":"0.0-16.0"},{"phase":0,"order":[20,32,28,41,27,29,40,5,8,4,48,45,46,9,19,21,18,47,42,11,15,35,26,43,24,17,31,44,36,34,14,7,33,2,6,0,13,39,49,38,37,12,10,22,3,30,23,1,16,25],"trial_type":"store_order","trial_index":17,"time_elapsed":1147906,"internal_node_id":"0.0-17.0"},{"result":146,"points":3,"place":0,"phase":0,"sequence":-1,"prices":[184,180,224,165,181,199,185,193,218,146],"times":[14589,2000,1082,7376,1171,1228,2531,1375,1591,1805],"next_num":10,"trial_type":"ticket-choose","trial_index":18,"time_elapsed":1188165,"internal_node_id":"0.0-18.0"},{"rt":35131,"url":"\/christiane\/tickets\/utils\/testing_after.html","trial_type":"html","trial_index":19,"time_elapsed":1224505,"internal_node_id":"0.0-19.0"},{"result":153,"points":3,"place":0,"phase":0,"sequence":0,"prices":[163,174,186,212,176,181,187,166,153,209],"times":[4570,1140,564,876,809,815,1208,1385,2033],"next_num":9,"trial_type":"ticket-choose","trial_index":20,"time_elapsed":1244050,"internal_node_id":"0.0-20.0"},{"result":153,"points":2,"place":1,"phase":0,"sequence":1,"prices":[167,153,172,185,195,143,184,211,177,227],"times":[1650,1237],"next_num":2,"trial_type":"ticket-choose","trial_index":21,"time_elapsed":1249900,"internal_node_id":"0.0-21.0"},{"result":158,"points":2,"place":1,"phase":0,"sequence":2,"prices":[177,176,187,225,158,181,187,165,208,153],"times":[1288,759,906,904,1287],"next_num":5,"trial_type":"ticket-choose","trial_index":22,"time_elapsed":1258127,"internal_node_id":"0.0-22.0"},{"result":152,"points":3,"place":0,"phase":0,"sequence":3,"prices":[200,180,203,152,175,170,160,154,176,191],"times":[2429,807,824,1516],"next_num":4,"trial_type":"ticket-choose","trial_index":23,"time_elapsed":1267503,"internal_node_id":"0.0-23.0"},{"result":202,"points":0,"place":8,"phase":0,"sequence":4,"prices":[196,171,170,184,187,165,211,169,201,202],"times":[1310,903,1099,652,836,1014,955,1103,1010,4597],"next_num":11,"trial_type":"ticket-choose","trial_index":24,"time_elapsed":1285771,"internal_node_id":"0.0-24.0"},{"result":166,"points":1,"place":2,"phase":0,"sequence":5,"prices":[177,175,186,210,165,179,187,166,153,208],"times":[2233,940,622,1121,1952,698,945,1296],"next_num":8,"trial_type":"ticket-choose","trial_index":25,"time_elapsed":1299382,"internal_node_id":"0.0-25.0"},{"result":166,"points":1,"place":2,"phase":0,"sequence":6,"prices":[165,175,186,214,177,179,187,166,153,208],"times":[2944,570,688,599,612,652,1102,1133],"next_num":8,"trial_type":"ticket-choose","trial_index":26,"time_elapsed":1311819,"internal_node_id":"0.0-26.0"},{"result":154,"points":3,"place":0,"phase":0,"sequence":7,"prices":[165,175,187,209,177,180,188,167,154,208],"times":[1530,717,573,611,625,1041,1048,1858,971],"next_num":9,"trial_type":"ticket-choose","trial_index":27,"time_elapsed":1325452,"internal_node_id":"0.0-27.0"},{"result":165,"points":1,"place":2,"phase":0,"sequence":8,"prices":[200,173,182,169,207,165,152,202,161,204],"times":[1434,1590,739,1033,661,2969],"next_num":6,"trial_type":"ticket-choose","trial_index":28,"time_elapsed":1336979,"internal_node_id":"0.0-28.0"},{"result":156,"points":3,"place":0,"phase":0,"sequence":9,"prices":[178,174,186,217,167,181,188,168,208,156],"times":[3988,540,648,649,956,665,798,2130,757,959],"next_num":10,"trial_type":"ticket-choose","trial_index":29,"time_elapsed":1353145,"internal_node_id":"0.0-29.0"},{"result":153,"points":3,"place":0,"phase":0,"sequence":10,"prices":[177,174,186,217,165,181,187,166,153,209],"times":[1886,825,886,867,2814,582,690,1454,1051],"next_num":9,"trial_type":"ticket-choose","trial_index":30,"time_elapsed":1367928,"internal_node_id":"0.0-30.0"},{"result":158,"points":3,"place":0,"phase":0,"sequence":11,"prices":[214,184,226,192,215,158,199,175,176,208],"times":[1090,551,823,632,667,1258],"next_num":6,"trial_type":"ticket-choose","trial_index":31,"time_elapsed":1375988,"internal_node_id":"0.0-31.0"},{"result":157,"points":3,"place":0,"phase":0,"sequence":12,"prices":[191,170,182,165,175,182,203,157,195,200],"times":[1110,493,688,1150,515,618,814,935],"next_num":8,"trial_type":"ticket-choose","trial_index":32,"time_elapsed":1385998,"internal_node_id":"0.0-32.0"},{"result":154,"points":3,"place":0,"phase":0,"sequence":13,"prices":[163,175,187,209,176,180,188,165,154,208],"times":[1528,519,562,562,603,630,843,1403,1024],"next_num":9,"trial_type":"ticket-choose","trial_index":33,"time_elapsed":1397398,"internal_node_id":"0.0-33.0"},{"result":163,"points":2,"place":1,"phase":0,"sequence":14,"prices":[171,169,186,165,163,167,220,148,187,165],"times":[3647,1160,650,3166,3294],"next_num":5,"trial_type":"ticket-choose","trial_index":34,"time_elapsed":1412133,"internal_node_id":"0.0-34.0"},{"result":154,"points":3,"place":0,"phase":0,"sequence":15,"prices":[177,175,187,209,165,180,188,165,154,208],"times":[1161,692,698,652,1103,578,1170,2091,985],"next_num":9,"trial_type":"ticket-choose","trial_index":35,"time_elapsed":1425019,"internal_node_id":"0.0-35.0"},{"result":157,"points":3,"place":0,"phase":0,"sequence":16,"prices":[201,187,157,184,198,179,188,185,178,170],"times":[1012,670,983],"next_num":3,"trial_type":"ticket-choose","trial_index":36,"time_elapsed":1430104,"internal_node_id":"0.0-36.0"},{"result":156,"points":3,"place":0,"phase":0,"sequence":17,"prices":[167,175,185,224,178,181,186,168,208,156],"times":[664,570,564,737,630,847,757,1857,637,736],"next_num":10,"trial_type":"ticket-choose","trial_index":37,"time_elapsed":1441888,"internal_node_id":"0.0-37.0"},{"result":156,"points":3,"place":0,"phase":0,"sequence":18,"prices":[201,204,179,166,185,165,214,156,202,165],"times":[2701,592,670,943,578,2454,571,936],"next_num":8,"trial_type":"ticket-choose","trial_index":38,"time_elapsed":1454641,"internal_node_id":"0.0-38.0"},{"result":154,"points":3,"place":0,"phase":0,"sequence":19,"prices":[176,187,179,209,163,180,188,165,154,208],"times":[1017,612,750,816,1524,531,652,1716,945],"next_num":9,"trial_type":"ticket-choose","trial_index":39,"time_elapsed":1468872,"internal_node_id":"0.0-39.0"},{"result":156,"points":2,"place":1,"phase":0,"sequence":20,"prices":[180,156,149,160,168,186,172,198,176,195],"times":[934,1022],"next_num":2,"trial_type":"ticket-choose","trial_index":40,"time_elapsed":1473398,"internal_node_id":"0.0-40.0"},{"result":158,"points":2,"place":1,"phase":0,"sequence":21,"prices":[177,175,186,209,158,181,188,167,208,154],"times":[663,573,667,667,912],"next_num":5,"trial_type":"ticket-choose","trial_index":41,"time_elapsed":1479628,"internal_node_id":"0.0-41.0"},{"result":153,"points":3,"place":0,"phase":0,"sequence":22,"prices":[167,175,186,225,178,179,187,169,209,153],"times":[1102,589,797,661,593,688,622,1702,650,887],"next_num":10,"trial_type":"ticket-choose","trial_index":42,"time_elapsed":1496360,"internal_node_id":"0.0-42.0"},{"result":158,"points":2,"place":1,"phase":0,"sequence":23,"prices":[158,176,187,210,177,181,187,165,208,153],"times":[1199],"next_num":1,"trial_type":"ticket-choose","trial_index":43,"time_elapsed":1499608,"internal_node_id":"0.0-43.0"},{"result":159,"points":3,"place":0,"phase":0,"sequence":24,"prices":[183,179,188,165,168,173,205,159,187,191],"times":[941,657,827,807,603,808,793,1005],"next_num":8,"trial_type":"ticket-choose","trial_index":44,"time_elapsed":1509443,"internal_node_id":"0.0-44.0"},{"result":153,"points":3,"place":0,"phase":0,"sequence":25,"prices":[163,175,186,214,176,179,187,166,153,208],"times":[1365,553,504,601,1405,729,646,1197,1525],"next_num":9,"trial_type":"ticket-choose","trial_index":45,"time_elapsed":1521780,"internal_node_id":"0.0-45.0"},{"result":153,"points":3,"place":0,"phase":0,"sequence":26,"prices":[176,175,186,210,163,179,187,166,153,208],"times":[788,855,572,719,593,562,888,1402,1112],"next_num":9,"trial_type":"ticket-choose","trial_index":46,"time_elapsed":1533050,"internal_node_id":"0.0-46.0"},{"result":153,"points":3,"place":0,"phase":0,"sequence":27,"prices":[176,186,178,217,163,181,187,166,153,209],"times":[711,581,551,632,1122,554,847,841,1162],"next_num":9,"trial_type":"ticket-choose","trial_index":47,"time_elapsed":1543692,"internal_node_id":"0.0-47.0"},{"result":184,"points":1,"place":4,"phase":0,"sequence":28,"prices":[193,181,175,181,185,165,224,199,218,184],"times":[993,983,513,660,701,806,669,1468,975,1786],"next_num":11,"trial_type":"ticket-choose","trial_index":48,"time_elapsed":1559741,"internal_node_id":"0.0-48.0"},{"result":158,"points":2,"place":1,"phase":0,"sequence":29,"prices":[158,175,186,211,177,180,187,166,209,153],"times":[1600],"next_num":1,"trial_type":"ticket-choose","trial_index":49,"time_elapsed":1563463,"internal_node_id":"0.0-49.0"},{"result":179,"points":1,"place":4,"phase":0,"sequence":30,"prices":[181,214,169,147,182,193,178,184,176,179],"times":[1360,999,970,577,5572,699,1180,679,750,1277],"next_num":11,"trial_type":"ticket-choose","trial_index":50,"time_elapsed":1581770,"internal_node_id":"0.0-50.0"},{"result":148,"points":3,"place":0,"phase":0,"sequence":31,"prices":[173,163,185,181,166,148,160,185,176,184],"times":[1414,2199,853,817,916,1213],"next_num":6,"trial_type":"ticket-choose","trial_index":51,"time_elapsed":1593658,"internal_node_id":"0.0-51.0"},{"result":151,"points":3,"place":0,"phase":0,"sequence":32,"prices":[199,193,169,165,202,182,151,164,176,171],"times":[1548,534,619,1823,698,665,1362],"next_num":7,"trial_type":"ticket-choose","trial_index":52,"time_elapsed":1604030,"internal_node_id":"0.0-52.0"},{"result":154,"points":3,"place":0,"phase":0,"sequence":33,"prices":[187,201,165,172,196,174,178,154,172,180],"times":[810,758,1013,740,700,1254,641,1172],"next_num":8,"trial_type":"ticket-choose","trial_index":53,"time_elapsed":1614517,"internal_node_id":"0.0-53.0"},{"result":153,"points":3,"place":0,"phase":0,"sequence":34,"prices":[178,175,186,212,167,179,187,169,209,153],"times":[3388,543,492,628,7153,650,708,729,1004,987],"next_num":10,"trial_type":"ticket-choose","trial_index":54,"time_elapsed":1634887,"internal_node_id":"0.0-54.0"},{"result":166,"points":1,"place":2,"phase":0,"sequence":35,"prices":[163,199,196,199,185,195,227,163,177,166],"times":[1030,1063,620,571,624,998,973,1083,1042,1395],"next_num":10,"trial_type":"ticket-choose","trial_index":55,"time_elapsed":1648276,"internal_node_id":"0.0-55.0"},{"result":158,"points":2,"place":1,"phase":0,"sequence":36,"prices":[158,175,186,209,177,181,188,167,208,154],"times":[2078],"next_num":1,"trial_type":"ticket-choose","trial_index":56,"time_elapsed":1652263,"internal_node_id":"0.0-56.0"},{"result":158,"points":2,"place":1,"phase":0,"sequence":37,"prices":[177,175,186,221,158,180,187,166,209,153],"times":[954,708,893,755,1035],"next_num":5,"trial_type":"ticket-choose","trial_index":57,"time_elapsed":1659265,"internal_node_id":"0.0-57.0"},{"result":195,"points":0,"place":7,"phase":0,"sequence":38,"prices":[193,174,224,165,187,190,224,161,194,195],"times":[599,580,769,631,895,690,730,1621,983,918],"next_num":10,"trial_type":"ticket-choose","trial_index":58,"time_elapsed":1671637,"internal_node_id":"0.0-58.0"},{"result":150,"points":3,"place":0,"phase":0,"sequence":39,"prices":[190,150,175,161,188,207,157,194,178,199],"times":[847,1472],"next_num":2,"trial_type":"ticket-choose","trial_index":59,"time_elapsed":1675966,"internal_node_id":"0.0-59.0"},{"result":171,"points":1,"place":3,"phase":0,"sequence":40,"prices":[189,167,180,197,165,168,172,213,178,171],"times":[595,953,583,759,1031,903,1317,887,886,1452],"next_num":11,"trial_type":"ticket-choose","trial_index":60,"time_elapsed":1689188,"internal_node_id":"0.0-60.0"},{"result":156,"points":3,"place":0,"phase":0,"sequence":41,"prices":[178,175,185,215,167,181,186,168,208,156],"times":[668,760,552,612,737,670,630,1395,720,800],"next_num":10,"trial_type":"ticket-choose","trial_index":61,"time_elapsed":1702204,"internal_node_id":"0.0-61.0"},{"result":155,"points":2,"place":1,"phase":0,"sequence":42,"prices":[200,207,155,158,156,168,167,135,178,177],"times":[990,853,1210],"next_num":3,"trial_type":"ticket-choose","trial_index":62,"time_elapsed":1707591,"internal_node_id":"0.0-62.0"},{"result":165,"points":1,"place":2,"phase":0,"sequence":43,"prices":[185,179,191,165,161,173,199,150,188,168],"times":[728,852,661,1907],"next_num":4,"trial_type":"ticket-choose","trial_index":63,"time_elapsed":1714301,"internal_node_id":"0.0-63.0"},{"result":165,"points":2,"place":1,"phase":0,"sequence":44,"prices":[165,174,186,212,177,181,187,166,153,209],"times":[1162],"next_num":1,"trial_type":"ticket-choose","trial_index":64,"time_elapsed":1717454,"internal_node_id":"0.0-64.0"},{"result":164,"points":3,"place":0,"phase":0,"sequence":45,"prices":[199,191,188,174,167,193,189,164,176,170],"times":[1163,591,660,553,1073,710,631,1250],"next_num":8,"trial_type":"ticket-choose","trial_index":65,"time_elapsed":1727554,"internal_node_id":"0.0-65.0"},{"result":156,"points":3,"place":0,"phase":0,"sequence":46,"prices":[167,174,186,211,178,181,188,168,208,156],"times":[1322,618,680,602,562,681,628,1018,1346,906],"next_num":10,"trial_type":"ticket-choose","trial_index":66,"time_elapsed":1739831,"internal_node_id":"0.0-66.0"},{"result":159,"points":1,"place":2,"phase":0,"sequence":47,"prices":[181,159,149,175,185,151,163,174,178,207],"times":[724,1054],"next_num":2,"trial_type":"ticket-choose","trial_index":67,"time_elapsed":1743768,"internal_node_id":"0.0-67.0"},{"result":186,"points":1,"place":4,"phase":0,"sequence":48,"prices":[220,173,201,197,169,205,198,183,178,186],"times":[774,621,696,544,1061,787,671,1120,1126,1719],"next_num":11,"trial_type":"ticket-choose","trial_index":68,"time_elapsed":1756950,"internal_node_id":"0.0-68.0"},{"result":165,"points":3,"place":0,"phase":0,"sequence":49,"prices":[192,172,171,178,188,165,217,168,195,197],"times":[663,573,522,542,779,1254],"next_num":6,"trial_type":"ticket-choose","trial_index":69,"time_elapsed":1764371,"internal_node_id":"0.0-69.0"},{"responses":[{"value":0,"offby":-1,"category":"$115 - $130","category_index":0},{"value":5,"offby":0,"category":"$131 - $145","category_index":1},{"value":10,"offby":-2,"category":"$146 - $160","category_index":2},{"value":30,"offby":8,"category":"$161 - $175","category_index":3},{"value":40,"offby":6,"category":"$176 - $190","category_index":4},{"value":10,"offby":-5,"category":"$191 - $205","category_index":5},{"value":5,"offby":-6,"category":"$206 - $220","category_index":6}],"phase":1,"number":1,"trial_type":"bar-choose","trial_index":70,"time_elapsed":1848053,"internal_node_id":"0.0-70.0"},{"rt":22512,"url":"\/christiane\/tickets\/utils\/testing2.html","trial_type":"point_update","trial_index":71,"time_elapsed":1872012,"internal_node_id":"0.0-71.0"},{"phase":1,"order":[14,35,23,47,28,9,6,7,26,3,11,46,30,13,31,10,43,1,25,16,34,22,2,20,33,12,15,17,24,18,48,49,37,36,5,38,19,21,32,40,39,4,41,29,8,45,0,44,42,27],"trial_type":"store_order","trial_index":72,"time_elapsed":1873021,"internal_node_id":"0.0-72.0"},{"result":158,"points":2,"place":1,"phase":1,"sequence":0,"prices":[176,187,158,210,181,187,177,165,208,153],"times":[2940,1944,1237],"next_num":3,"trial_type":"ticket-choose","trial_index":73,"time_elapsed":1881599,"internal_node_id":"0.0-73.0"},{"result":165,"points":3,"place":0,"phase":1,"sequence":1,"prices":[193,169,171,187,190,224,174,194,165,188],"times":[850,571,656,563,612,934,621,1009,1565],"next_num":9,"trial_type":"ticket-choose","trial_index":74,"time_elapsed":1892714,"internal_node_id":"0.0-74.0"},{"result":165,"points":3,"place":0,"phase":1,"sequence":2,"prices":[196,165,170,184,187,211,171,201,202,185],"times":[799,1000],"next_num":2,"trial_type":"ticket-choose","trial_index":75,"time_elapsed":1896810,"internal_node_id":"0.0-75.0"},{"result":155,"points":2,"place":1,"phase":1,"sequence":3,"prices":[201,207,155,158,156,165,167,135,178,177],"times":[1092,584,1052],"next_num":3,"trial_type":"ticket-choose","trial_index":76,"time_elapsed":1902118,"internal_node_id":"0.0-76.0"},{"result":165,"points":3,"place":0,"phase":1,"sequence":4,"prices":[192,165,171,178,188,217,172,195,197,186],"times":[726,1200],"next_num":2,"trial_type":"ticket-choose","trial_index":77,"time_elapsed":1906212,"internal_node_id":"0.0-77.0"},{"result":165,"points":3,"place":0,"phase":1,"sequence":5,"prices":[185,170,182,201,173,199,171,188,165,168],"times":[641,581,622,602,603,699,658,965,1001],"next_num":9,"trial_type":"ticket-choose","trial_index":78,"time_elapsed":1916264,"internal_node_id":"0.0-78.0"},{"result":150,"points":3,"place":0,"phase":1,"sequence":6,"prices":[189,150,175,160,188,207,158,194,178,199],"times":[1365,1113],"next_num":2,"trial_type":"ticket-choose","trial_index":79,"time_elapsed":1920848,"internal_node_id":"0.0-79.0"},{"result":153,"points":3,"place":0,"phase":1,"sequence":7,"prices":[175,186,178,212,179,187,167,169,209,153],"times":[887,571,572,535,511,551,1110,956,788,924],"next_num":10,"trial_type":"ticket-choose","trial_index":80,"time_elapsed":1932221,"internal_node_id":"0.0-80.0"},{"result":153,"points":3,"place":0,"phase":1,"sequence":8,"prices":[174,186,165,212,181,187,177,167,153,209],"times":[825,1044,523,630,624,520,578,1083,1062],"next_num":9,"trial_type":"ticket-choose","trial_index":81,"time_elapsed":1942739,"internal_node_id":"0.0-81.0"},{"result":156,"points":3,"place":0,"phase":1,"sequence":9,"prices":[175,185,178,215,181,186,167,168,208,156],"times":[761,633,669,807,847,651,1098,1062,1433,1289],"next_num":10,"trial_type":"ticket-choose","trial_index":82,"time_elapsed":1956268,"internal_node_id":"0.0-82.0"},{"result":179,"points":1,"place":4,"phase":1,"sequence":10,"prices":[181,215,169,147,182,193,177,184,176,179],"times":[1760,650,719,494,1224,825,573,669,858,1218],"next_num":11,"trial_type":"ticket-choose","trial_index":83,"time_elapsed":1969674,"internal_node_id":"0.0-83.0"},{"result":164,"points":3,"place":0,"phase":1,"sequence":11,"prices":[212,192,188,184,167,193,189,164,176,170],"times":[1394,646,564,621,1180,691,651,1188],"next_num":8,"trial_type":"ticket-choose","trial_index":84,"time_elapsed":1980024,"internal_node_id":"0.0-84.0"},{"result":158,"points":3,"place":0,"phase":1,"sequence":12,"prices":[210,184,226,193,215,158,199,175,176,208],"times":[834,719,610,710,611,1161],"next_num":6,"trial_type":"ticket-choose","trial_index":85,"time_elapsed":1987774,"internal_node_id":"0.0-85.0"},{"result":165,"points":2,"place":1,"phase":1,"sequence":13,"prices":[175,186,177,210,179,187,165,166,153,208],"times":[923,571,602,632,717,858,1313],"next_num":7,"trial_type":"ticket-choose","trial_index":86,"time_elapsed":1996604,"internal_node_id":"0.0-86.0"},{"result":158,"points":2,"place":1,"phase":1,"sequence":14,"prices":[175,186,158,209,181,188,177,167,208,154],"times":[1148,659,1044],"next_num":3,"trial_type":"ticket-choose","trial_index":87,"time_elapsed":2001755,"internal_node_id":"0.0-87.0"},{"result":158,"points":2,"place":1,"phase":1,"sequence":15,"prices":[175,186,177,221,180,187,158,166,209,153],"times":[547,612,552,513,602,592,1190],"next_num":7,"trial_type":"ticket-choose","trial_index":88,"time_elapsed":2009389,"internal_node_id":"0.0-88.0"},{"result":158,"points":2,"place":1,"phase":1,"sequence":16,"prices":[175,186,158,211,180,187,177,166,209,153],"times":[547,525,961],"next_num":3,"trial_type":"ticket-choose","trial_index":89,"time_elapsed":2013759,"internal_node_id":"0.0-89.0"},{"result":152,"points":3,"place":0,"phase":1,"sequence":17,"prices":[200,181,203,152,175,171,160,154,176,191],"times":[579,551,534,952],"next_num":4,"trial_type":"ticket-choose","trial_index":90,"time_elapsed":2018908,"internal_node_id":"0.0-90.0"},{"result":143,"points":3,"place":0,"phase":1,"sequence":18,"prices":[222,173,202,197,143,205,198,183,178,186],"times":[826,618,521,505,1056],"next_num":5,"trial_type":"ticket-choose","trial_index":91,"time_elapsed":2025089,"internal_node_id":"0.0-91.0"},{"result":165,"points":2,"place":1,"phase":1,"sequence":19,"prices":[174,186,177,217,181,187,165,166,153,209],"times":[766,515,531,532,581,581,1268],"next_num":7,"trial_type":"ticket-choose","trial_index":92,"time_elapsed":2032925,"internal_node_id":"0.0-92.0"},{"result":163,"points":2,"place":1,"phase":1,"sequence":20,"prices":[175,186,176,210,179,187,163,166,153,208],"times":[527,474,513,612,553,698,1229],"next_num":7,"trial_type":"ticket-choose","trial_index":93,"time_elapsed":2040567,"internal_node_id":"0.0-93.0"},{"result":144,"points":3,"place":0,"phase":1,"sequence":21,"prices":[168,154,172,185,195,144,184,211,177,227],"times":[503,513,1142,561,659,1172],"next_num":6,"trial_type":"ticket-choose","trial_index":94,"time_elapsed":2048079,"internal_node_id":"0.0-94.0"},{"result":180,"points":1,"place":4,"phase":1,"sequence":22,"prices":[200,165,165,173,182,207,161,202,204,180],"times":[700,540,5266,620,668,640,642,1043,964,1052],"next_num":11,"trial_type":"ticket-choose","trial_index":95,"time_elapsed":2064916,"internal_node_id":"0.0-95.0"},{"result":157,"points":3,"place":0,"phase":1,"sequence":23,"prices":[201,187,157,184,198,179,188,185,178,170],"times":[1763,700,1160],"next_num":3,"trial_type":"ticket-choose","trial_index":96,"time_elapsed":2070901,"internal_node_id":"0.0-96.0"},{"result":184,"points":1,"place":4,"phase":1,"sequence":24,"prices":[193,165,175,181,185,224,180,199,218,184],"times":[625,602,829,533,680,726,680,749,698,749],"next_num":11,"trial_type":"ticket-choose","trial_index":97,"time_elapsed":2082059,"internal_node_id":"0.0-97.0"},{"result":163,"points":2,"place":1,"phase":1,"sequence":25,"prices":[174,186,176,217,181,187,163,166,153,209],"times":[841,568,1091,602,561,526,1179],"next_num":7,"trial_type":"ticket-choose","trial_index":98,"time_elapsed":2090504,"internal_node_id":"0.0-98.0"},{"result":165,"points":3,"place":0,"phase":1,"sequence":26,"prices":[171,203,175,170,167,220,192,186,165,165],"times":[786,573,405,461,798,570,613,802,1288],"next_num":9,"trial_type":"ticket-choose","trial_index":99,"time_elapsed":2100469,"internal_node_id":"0.0-99.0"},{"result":149,"points":2,"place":1,"phase":1,"sequence":27,"prices":[180,159,149,175,185,141,163,174,178,207],"times":[1007,601,1004],"next_num":3,"trial_type":"ticket-choose","trial_index":100,"time_elapsed":2105418,"internal_node_id":"0.0-100.0"},{"result":165,"points":2,"place":1,"phase":1,"sequence":28,"prices":[188,200,165,172,198,174,177,154,177,180],"times":[1247,710,1159],"next_num":3,"trial_type":"ticket-choose","trial_index":101,"time_elapsed":2110834,"internal_node_id":"0.0-101.0"},{"result":155,"points":2,"place":1,"phase":1,"sequence":29,"prices":[181,155,148,161,168,187,172,199,176,194],"times":[859,921],"next_num":2,"trial_type":"ticket-choose","trial_index":102,"time_elapsed":2114684,"internal_node_id":"0.0-102.0"},{"result":163,"points":2,"place":1,"phase":1,"sequence":30,"prices":[174,186,163,212,181,187,176,166,153,209],"times":[758,555,1110],"next_num":3,"trial_type":"ticket-choose","trial_index":103,"time_elapsed":2119307,"internal_node_id":"0.0-103.0"},{"result":165,"points":2,"place":1,"phase":1,"sequence":31,"prices":[175,187,165,209,180,188,177,166,154,208],"times":[827,511,1162],"next_num":3,"trial_type":"ticket-choose","trial_index":104,"time_elapsed":2124089,"internal_node_id":"0.0-104.0"},{"result":165,"points":3,"place":0,"phase":1,"sequence":32,"prices":[183,182,192,168,173,205,167,187,165,170],"times":[625,601,474,700,534,532,1044,590,1157],"next_num":9,"trial_type":"ticket-choose","trial_index":105,"time_elapsed":2133987,"internal_node_id":"0.0-105.0"},{"result":153,"points":3,"place":0,"phase":1,"sequence":33,"prices":[175,186,167,225,179,187,178,169,209,153],"times":[628,495,437,533,546,596,650,717,769,1015],"next_num":10,"trial_type":"ticket-choose","trial_index":106,"time_elapsed":2144272,"internal_node_id":"0.0-106.0"},{"result":165,"points":2,"place":1,"phase":1,"sequence":34,"prices":[175,186,165,214,179,187,177,166,153,208],"times":[742,523,1050],"next_num":3,"trial_type":"ticket-choose","trial_index":107,"time_elapsed":2148781,"internal_node_id":"0.0-107.0"},{"result":156,"points":3,"place":0,"phase":1,"sequence":35,"prices":[174,186,167,211,181,188,178,168,208,156],"times":[9382,501,435,561,566,719,597,769,690,892],"next_num":10,"trial_type":"ticket-choose","trial_index":108,"time_elapsed":2167959,"internal_node_id":"0.0-108.0"},{"result":163,"points":2,"place":1,"phase":1,"sequence":36,"prices":[175,187,163,209,180,188,176,165,154,208],"times":[989,586,1117],"next_num":3,"trial_type":"ticket-choose","trial_index":109,"time_elapsed":2172934,"internal_node_id":"0.0-109.0"},{"result":165,"points":3,"place":0,"phase":1,"sequence":37,"prices":[189,167,180,197,165,168,172,213,178,171],"times":[797,455,710,533,954],"next_num":5,"trial_type":"ticket-choose","trial_index":110,"time_elapsed":2179264,"internal_node_id":"0.0-110.0"},{"result":163,"points":1,"place":2,"phase":1,"sequence":38,"prices":[183,163,185,180,166,148,160,186,176,184],"times":[721,974],"next_num":2,"trial_type":"ticket-choose","trial_index":111,"time_elapsed":2183200,"internal_node_id":"0.0-111.0"},{"result":163,"points":3,"place":0,"phase":1,"sequence":39,"prices":[168,199,196,198,185,195,227,163,177,166],"times":[4096,615,548,818,788,739,798,1176],"next_num":8,"trial_type":"ticket-choose","trial_index":112,"time_elapsed":2196136,"internal_node_id":"0.0-112.0"},{"result":163,"points":2,"place":1,"phase":1,"sequence":40,"prices":[198,193,169,163,202,182,152,164,177,171],"times":[1012,614,530,1163],"next_num":4,"trial_type":"ticket-choose","trial_index":113,"time_elapsed":2201941,"internal_node_id":"0.0-113.0"},{"result":163,"points":2,"place":1,"phase":1,"sequence":41,"prices":[175,186,163,214,179,187,176,166,153,208],"times":[672,1442,1416],"next_num":3,"trial_type":"ticket-choose","trial_index":114,"time_elapsed":2207746,"internal_node_id":"0.0-114.0"},{"result":165,"points":2,"place":1,"phase":1,"sequence":42,"prices":[175,187,177,209,180,188,165,165,154,208],"times":[690,687,552,658,611,608,1240],"next_num":7,"trial_type":"ticket-choose","trial_index":115,"time_elapsed":2215935,"internal_node_id":"0.0-115.0"},{"result":158,"points":2,"place":1,"phase":1,"sequence":43,"prices":[175,186,177,209,181,188,158,167,208,154],"times":[588,464,834,818,485,698,1458],"next_num":7,"trial_type":"ticket-choose","trial_index":116,"time_elapsed":2224538,"internal_node_id":"0.0-116.0"},{"result":156,"points":3,"place":0,"phase":1,"sequence":44,"prices":[174,186,178,217,181,188,167,168,208,156],"times":[541,475,524,485,573,612,729,964,709,789],"next_num":10,"trial_type":"ticket-choose","trial_index":117,"time_elapsed":2235256,"internal_node_id":"0.0-117.0"},{"result":165,"points":3,"place":0,"phase":1,"sequence":45,"prices":[191,172,169,175,182,203,170,195,165,176],"times":[672,543,541,582,464,562,541,728,1231],"next_num":9,"trial_type":"ticket-choose","trial_index":118,"time_elapsed":2244680,"internal_node_id":"0.0-118.0"},{"result":158,"points":2,"place":1,"phase":1,"sequence":46,"prices":[176,187,177,225,181,187,158,165,208,153],"times":[599,452,457,582,480,563,1163],"next_num":7,"trial_type":"ticket-choose","trial_index":119,"time_elapsed":2252164,"internal_node_id":"0.0-119.0"},{"result":156,"points":3,"place":0,"phase":1,"sequence":47,"prices":[175,185,167,224,181,186,178,168,208,156],"times":[513,465,364,514,523,558,670,769,904,760],"next_num":10,"trial_type":"ticket-choose","trial_index":120,"time_elapsed":2262186,"internal_node_id":"0.0-120.0"},{"result":163,"points":2,"place":1,"phase":1,"sequence":48,"prices":[175,187,176,209,180,188,163,165,154,208],"times":[664,493,494,730,543,492,1151],"next_num":7,"trial_type":"ticket-choose","trial_index":121,"time_elapsed":2270004,"internal_node_id":"0.0-121.0"},{"result":165,"points":2,"place":1,"phase":1,"sequence":49,"prices":[201,165,162,166,185,214,165,202,204,179],"times":[896,1248],"next_num":2,"trial_type":"ticket-choose","trial_index":122,"time_elapsed":2274587,"internal_node_id":"0.0-122.0"},{"responses":[{"value":0,"offby":-1,"category":"$115 - $130","category_index":0},{"value":2,"offby":-3,"category":"$131 - $145","category_index":1},{"value":10,"offby":-2,"category":"$146 - $160","category_index":2},{"value":30,"offby":8,"category":"$161 - $175","category_index":3},{"value":40,"offby":6,"category":"$176 - $190","category_index":4},{"value":10,"offby":-5,"category":"$191 - $205","category_index":5},{"value":3,"offby":-8,"category":"$206 - $220","category_index":6}],"phase":1,"number":1,"trial_type":"bar-choose","trial_index":123,"time_elapsed":2383063,"internal_node_id":"0.0-123.0"},{"special_comment":"no","trial_type":"special_sequence","trial_index":124,"time_elapsed":2389598,"internal_node_id":"0.0-124.0"},{"during":"Nothing","bonus":308,"trial_type":"final","trial_index":125,"time_elapsed":2424856,"internal_node_id":"0.0-125.0"}],"bonus":308}