{"start_time":"2017-05-24 16:33:32","end_time":"2017-05-24 16:56:49","points_phase0":95,"points_phase1":95,"phase_order":0,"age":32,"gender":"m","tries":1,"during":"Nothing","worker_id":"A1UY2W2FL9CWN","assignment_id":"3JV9LGBJWU7BM3DCIN459IZQWJ3GOU","data":[{"rt":8060,"url":"\/christiane\/tickets\/utils\/consent.html","trial_type":"html","trial_index":0,"time_elapsed":8372,"internal_node_id":"0.0-0.0"},{"age":32,"gender":"m","trial_type":"age","trial_index":1,"time_elapsed":29967,"internal_node_id":"0.0-1.0"},{"worker_id":"A1UY2W2FL9CWN","trial_type":"workerid","trial_index":2,"time_elapsed":73101,"internal_node_id":"0.0-2.0"},{"tries":1,"trial_type":"instructions_check","trial_index":3,"time_elapsed":88274,"internal_node_id":"0.0-3.0"},{"rt":8967,"url":"\/christiane\/tickets\/utils\/start.html","trial_type":"html","trial_index":4,"time_elapsed":98412,"internal_node_id":"0.0-4.0"},{"trial_type":"number-animation","trial_index":5,"time_elapsed":107264,"internal_node_id":"0.0-5.0"},{"phase":0,"sequence":0,"avg":181,"response":182,"trial_type":"training_avg","trial_index":6,"time_elapsed":116130,"internal_node_id":"0.0-6.0"},{"trial_type":"number-animation","trial_index":7,"time_elapsed":123898,"internal_node_id":"0.0-7.0"},{"phase":0,"sequence":1,"avg":188,"response":183,"trial_type":"training_avg","trial_index":8,"time_elapsed":133103,"internal_node_id":"0.0-8.0"},{"trial_type":"number-animation","trial_index":9,"time_elapsed":140214,"internal_node_id":"0.0-9.0"},{"phase":0,"sequence":2,"avg":188,"response":179,"trial_type":"training_avg","trial_index":10,"time_elapsed":146402,"internal_node_id":"0.0-10.0"},{"trial_type":"number-animation","trial_index":11,"time_elapsed":153775,"internal_node_id":"0.0-11.0"},{"phase":0,"sequence":3,"avg":177,"response":171,"trial_type":"training_avg","trial_index":12,"time_elapsed":160123,"internal_node_id":"0.0-12.0"},{"trial_type":"number-animation","trial_index":13,"time_elapsed":168859,"internal_node_id":"0.0-13.0"},{"phase":0,"sequence":4,"avg":182,"response":177,"trial_type":"training_avg","trial_index":14,"time_elapsed":175866,"internal_node_id":"0.0-14.0"},{"responses":[{"value":2,"offby":1,"category":"$115 - $130","category_index":0},{"value":6,"offby":1,"category":"$131 - $145","category_index":1},{"value":12,"offby":0,"category":"$146 - $160","category_index":2},{"value":20,"offby":-2,"category":"$161 - $175","category_index":3},{"value":40,"offby":6,"category":"$176 - $190","category_index":4},{"value":17,"offby":2,"category":"$191 - $205","category_index":5},{"value":3,"offby":-8,"category":"$206 - $220","category_index":6}],"phase":0,"number":0,"trial_type":"bar-choose","trial_index":15,"time_elapsed":227108,"internal_node_id":"0.0-15.0"},{"rt":7838,"url":"\/christiane\/tickets\/utils\/testing.html","trial_type":"html","trial_index":16,"time_elapsed":236027,"internal_node_id":"0.0-16.0"},{"phase":0,"order":[8,16,7,9,13,28,38,49,43,18,45,29,10,36,33,26,25,42,31,30,47,17,48,39,5,46,41,23,4,14,44,27,19,35,24,21,3,12,2,22,11,34,1,20,15,0,32,6,37,40],"trial_type":"store_order","trial_index":17,"time_elapsed":237031,"internal_node_id":"0.0-17.0"},{"result":165,"points":2,"place":1,"phase":0,"sequence":-1,"prices":[184,180,224,165,181,199,185,193,218,146],"times":[2009,814,933,1250],"next_num":4,"trial_type":"ticket-choose","trial_index":18,"time_elapsed":245104,"internal_node_id":"0.0-18.0"},{"rt":10737,"url":"\/christiane\/tickets\/utils\/testing_after.html","trial_type":"html","trial_index":19,"time_elapsed":256929,"internal_node_id":"0.0-19.0"},{"result":165,"points":2,"place":1,"phase":0,"sequence":0,"prices":[174,186,165,212,181,187,177,167,153,209],"times":[2130,758,1179],"next_num":3,"trial_type":"ticket-choose","trial_index":20,"time_elapsed":264247,"internal_node_id":"0.0-20.0"},{"result":163,"points":2,"place":1,"phase":0,"sequence":1,"prices":[175,187,176,209,180,188,163,165,154,208],"times":[2134,584,590,587,662,631,1047],"next_num":7,"trial_type":"ticket-choose","trial_index":21,"time_elapsed":274189,"internal_node_id":"0.0-21.0"},{"result":166,"points":1,"place":2,"phase":0,"sequence":2,"prices":[175,187,165,209,180,188,177,166,154,208],"times":[1928,633,886,619,663,707,654,1464],"next_num":8,"trial_type":"ticket-choose","trial_index":22,"time_elapsed":285980,"internal_node_id":"0.0-22.0"},{"result":165,"points":2,"place":1,"phase":0,"sequence":3,"prices":[175,186,177,210,179,187,165,166,153,208],"times":[1409,608,602,647,640,670,1258],"next_num":7,"trial_type":"ticket-choose","trial_index":23,"time_elapsed":295425,"internal_node_id":"0.0-23.0"},{"result":163,"points":2,"place":1,"phase":0,"sequence":4,"prices":[175,187,163,209,180,188,176,165,154,208],"times":[9080,1299,1118],"next_num":3,"trial_type":"ticket-choose","trial_index":24,"time_elapsed":309472,"internal_node_id":"0.0-24.0"},{"result":185,"points":1,"place":4,"phase":0,"sequence":5,"prices":[196,165,170,184,187,211,171,201,202,185],"times":[6244,469,1068,750,647,572,1271,620,708,1535],"next_num":10,"trial_type":"ticket-choose","trial_index":25,"time_elapsed":328103,"internal_node_id":"0.0-25.0"},{"result":168,"points":1,"place":2,"phase":0,"sequence":6,"prices":[168,199,196,198,185,195,227,163,177,166],"times":[1573],"next_num":1,"trial_type":"ticket-choose","trial_index":26,"time_elapsed":331922,"internal_node_id":"0.0-26.0"},{"result":163,"points":1,"place":2,"phase":0,"sequence":7,"prices":[183,163,185,180,166,148,160,186,176,184],"times":[1065,1202],"next_num":2,"trial_type":"ticket-choose","trial_index":27,"time_elapsed":336652,"internal_node_id":"0.0-27.0"},{"result":157,"points":3,"place":0,"phase":0,"sequence":8,"prices":[201,187,157,184,198,179,188,185,178,170],"times":[957,584,1504],"next_num":3,"trial_type":"ticket-choose","trial_index":28,"time_elapsed":342438,"internal_node_id":"0.0-28.0"},{"result":158,"points":2,"place":1,"phase":0,"sequence":9,"prices":[175,186,158,211,180,187,177,166,209,153],"times":[955,1562,1239],"next_num":3,"trial_type":"ticket-choose","trial_index":29,"time_elapsed":349291,"internal_node_id":"0.0-29.0"},{"result":164,"points":3,"place":0,"phase":0,"sequence":10,"prices":[212,192,188,184,167,193,189,164,176,170],"times":[1603,111867,570,539,1321,566,579,1057],"next_num":8,"trial_type":"ticket-choose","trial_index":30,"time_elapsed":471172,"internal_node_id":"0.0-30.0"},{"result":171,"points":1,"place":3,"phase":0,"sequence":11,"prices":[185,170,182,201,173,199,171,188,165,168],"times":[2817,1090,449,424,592,783,1156],"next_num":7,"trial_type":"ticket-choose","trial_index":31,"time_elapsed":482223,"internal_node_id":"0.0-31.0"},{"result":165,"points":2,"place":1,"phase":0,"sequence":12,"prices":[175,187,177,209,180,188,165,165,154,208],"times":[777,509,516,549,690,653,983],"next_num":7,"trial_type":"ticket-choose","trial_index":32,"time_elapsed":490097,"internal_node_id":"0.0-32.0"},{"result":165,"points":2,"place":1,"phase":0,"sequence":13,"prices":[188,200,165,172,198,174,177,154,177,180],"times":[1321,501,1050],"next_num":3,"trial_type":"ticket-choose","trial_index":33,"time_elapsed":495247,"internal_node_id":"0.0-33.0"},{"result":168,"points":1,"place":2,"phase":0,"sequence":14,"prices":[183,182,192,168,173,205,167,187,165,170],"times":[1258,742,599,1022],"next_num":4,"trial_type":"ticket-choose","trial_index":34,"time_elapsed":501389,"internal_node_id":"0.0-34.0"},{"result":161,"points":3,"place":0,"phase":0,"sequence":15,"prices":[200,165,165,173,182,207,161,202,204,180],"times":[1309,983,881,567,780,639,995],"next_num":7,"trial_type":"ticket-choose","trial_index":35,"time_elapsed":510637,"internal_node_id":"0.0-35.0"},{"result":165,"points":2,"place":1,"phase":0,"sequence":16,"prices":[201,165,162,166,185,214,165,202,204,179],"times":[999,1111],"next_num":2,"trial_type":"ticket-choose","trial_index":36,"time_elapsed":514891,"internal_node_id":"0.0-36.0"},{"result":143,"points":3,"place":0,"phase":0,"sequence":17,"prices":[222,173,202,197,143,205,198,183,178,186],"times":[811,580,531,582,1040],"next_num":5,"trial_type":"ticket-choose","trial_index":37,"time_elapsed":521265,"internal_node_id":"0.0-37.0"},{"result":165,"points":3,"place":0,"phase":0,"sequence":18,"prices":[171,203,175,170,167,220,192,186,165,165],"times":[1140,623,544,743,681,604,610,598,937],"next_num":9,"trial_type":"ticket-choose","trial_index":38,"time_elapsed":531327,"internal_node_id":"0.0-38.0"},{"result":165,"points":3,"place":0,"phase":0,"sequence":19,"prices":[191,172,169,175,182,203,170,195,165,176],"times":[899,550,563,512,603,593,762,648,935],"next_num":9,"trial_type":"ticket-choose","trial_index":39,"time_elapsed":540938,"internal_node_id":"0.0-39.0"},{"result":152,"points":3,"place":0,"phase":0,"sequence":20,"prices":[200,181,203,152,175,171,160,154,176,191],"times":[1039,2558,581,1158],"next_num":4,"trial_type":"ticket-choose","trial_index":40,"time_elapsed":548841,"internal_node_id":"0.0-40.0"},{"result":163,"points":2,"place":1,"phase":0,"sequence":21,"prices":[174,186,176,217,181,187,163,166,153,209],"times":[1575,688,528,615,650,562,1066],"next_num":7,"trial_type":"ticket-choose","trial_index":41,"time_elapsed":557749,"internal_node_id":"0.0-41.0"},{"result":147,"points":3,"place":0,"phase":0,"sequence":22,"prices":[181,215,169,147,182,193,177,184,176,179],"times":[1380,565,453,1067],"next_num":4,"trial_type":"ticket-choose","trial_index":42,"time_elapsed":563811,"internal_node_id":"0.0-42.0"},{"result":167,"points":2,"place":1,"phase":0,"sequence":23,"prices":[189,167,180,197,165,168,172,213,178,171],"times":[883,1348],"next_num":2,"trial_type":"ticket-choose","trial_index":43,"time_elapsed":568652,"internal_node_id":"0.0-43.0"},{"result":153,"points":3,"place":0,"phase":0,"sequence":24,"prices":[175,186,178,212,179,187,167,169,209,153],"times":[857,657,532,504,489,489,444,1197,655,861],"next_num":10,"trial_type":"ticket-choose","trial_index":44,"time_elapsed":645150,"internal_node_id":"0.0-44.0"},{"result":158,"points":3,"place":0,"phase":0,"sequence":25,"prices":[210,184,226,193,215,158,199,175,176,208],"times":[4299,591,559,502,563,1003],"next_num":6,"trial_type":"ticket-choose","trial_index":45,"time_elapsed":655618,"internal_node_id":"0.0-45.0"},{"result":158,"points":1,"place":3,"phase":0,"sequence":26,"prices":[201,207,155,158,156,165,167,135,178,177],"times":[1075,339,382,967],"next_num":4,"trial_type":"ticket-choose","trial_index":46,"time_elapsed":662271,"internal_node_id":"0.0-46.0"},{"result":158,"points":2,"place":1,"phase":0,"sequence":27,"prices":[176,187,177,225,181,187,158,165,208,153],"times":[1556,513,501,587,677,535,941],"next_num":7,"trial_type":"ticket-choose","trial_index":47,"time_elapsed":670710,"internal_node_id":"0.0-47.0"},{"result":167,"points":2,"place":1,"phase":0,"sequence":28,"prices":[175,185,178,215,181,186,167,168,208,156],"times":[902,639,757,586,620,541,1124],"next_num":7,"trial_type":"ticket-choose","trial_index":48,"time_elapsed":679030,"internal_node_id":"0.0-48.0"},{"result":163,"points":2,"place":1,"phase":0,"sequence":29,"prices":[174,186,163,212,181,187,176,166,153,209],"times":[882,504,983],"next_num":3,"trial_type":"ticket-choose","trial_index":49,"time_elapsed":684148,"internal_node_id":"0.0-49.0"},{"result":159,"points":1,"place":2,"phase":0,"sequence":30,"prices":[180,159,149,175,185,141,163,174,178,207],"times":[770,1101],"next_num":2,"trial_type":"ticket-choose","trial_index":50,"time_elapsed":688072,"internal_node_id":"0.0-50.0"},{"result":186,"points":1,"place":4,"phase":0,"sequence":31,"prices":[192,165,171,178,188,217,172,195,197,186],"times":[801,1418,502,553,590,591,558,658,606,887],"next_num":10,"trial_type":"ticket-choose","trial_index":51,"time_elapsed":699501,"internal_node_id":"0.0-51.0"},{"result":158,"points":2,"place":1,"phase":0,"sequence":32,"prices":[175,186,158,209,181,188,177,167,208,154],"times":[2039,606,1006],"next_num":3,"trial_type":"ticket-choose","trial_index":52,"time_elapsed":705464,"internal_node_id":"0.0-52.0"},{"result":154,"points":2,"place":1,"phase":0,"sequence":33,"prices":[168,154,172,185,195,144,184,211,177,227],"times":[1284,987],"next_num":2,"trial_type":"ticket-choose","trial_index":53,"time_elapsed":709940,"internal_node_id":"0.0-53.0"},{"result":184,"points":1,"place":4,"phase":0,"sequence":34,"prices":[193,165,175,181,185,224,180,199,218,184],"times":[1052,2819,678,645,653,582,607,652,583,654],"next_num":11,"trial_type":"ticket-choose","trial_index":54,"time_elapsed":724616,"internal_node_id":"0.0-54.0"},{"result":158,"points":2,"place":1,"phase":0,"sequence":35,"prices":[175,186,177,221,180,187,158,166,209,153],"times":[4754,678,622,658,606,573,907],"next_num":7,"trial_type":"ticket-choose","trial_index":55,"time_elapsed":736600,"internal_node_id":"0.0-55.0"},{"result":167,"points":2,"place":1,"phase":0,"sequence":36,"prices":[174,186,178,217,181,188,167,168,208,156],"times":[2084,701,612,511,623,614,1236],"next_num":7,"trial_type":"ticket-choose","trial_index":56,"time_elapsed":746111,"internal_node_id":"0.0-56.0"},{"result":166,"points":1,"place":2,"phase":0,"sequence":37,"prices":[175,186,163,214,179,187,176,166,153,208],"times":[1111,514,509,574,646,573,589,985],"next_num":8,"trial_type":"ticket-choose","trial_index":57,"time_elapsed":755164,"internal_node_id":"0.0-57.0"},{"result":167,"points":2,"place":1,"phase":0,"sequence":38,"prices":[175,186,167,225,179,187,178,169,209,153],"times":[1062,592,1389],"next_num":3,"trial_type":"ticket-choose","trial_index":58,"time_elapsed":760761,"internal_node_id":"0.0-58.0"},{"result":158,"points":2,"place":1,"phase":0,"sequence":39,"prices":[175,186,177,209,181,188,158,167,208,154],"times":[866,589,717,600,585,971,1074],"next_num":7,"trial_type":"ticket-choose","trial_index":59,"time_elapsed":769225,"internal_node_id":"0.0-59.0"},{"result":166,"points":1,"place":2,"phase":0,"sequence":40,"prices":[174,186,177,217,181,187,165,166,153,209],"times":[1398,623,721,623,674,646,731,1024],"next_num":8,"trial_type":"ticket-choose","trial_index":60,"time_elapsed":779134,"internal_node_id":"0.0-60.0"},{"result":155,"points":2,"place":1,"phase":0,"sequence":41,"prices":[181,155,148,161,168,187,172,199,176,194],"times":[947,1072],"next_num":2,"trial_type":"ticket-choose","trial_index":61,"time_elapsed":783272,"internal_node_id":"0.0-61.0"},{"result":168,"points":1,"place":2,"phase":0,"sequence":42,"prices":[175,185,167,224,181,186,178,168,208,156],"times":[819,859,636,503,842,777,916,1640],"next_num":8,"trial_type":"ticket-choose","trial_index":62,"time_elapsed":794005,"internal_node_id":"0.0-62.0"},{"result":158,"points":2,"place":1,"phase":0,"sequence":43,"prices":[176,187,158,210,181,187,177,165,208,153],"times":[779,553,1098],"next_num":3,"trial_type":"ticket-choose","trial_index":63,"time_elapsed":798788,"internal_node_id":"0.0-63.0"},{"result":163,"points":2,"place":1,"phase":0,"sequence":44,"prices":[175,186,176,210,179,187,163,166,153,208],"times":[940,686,641,573,623,592,2242],"next_num":7,"trial_type":"ticket-choose","trial_index":64,"time_elapsed":808292,"internal_node_id":"0.0-64.0"},{"result":168,"points":1,"place":2,"phase":0,"sequence":45,"prices":[174,186,167,211,181,188,178,168,208,156],"times":[1329,541,530,538,586,625,558,1007],"next_num":8,"trial_type":"ticket-choose","trial_index":65,"time_elapsed":817368,"internal_node_id":"0.0-65.0"},{"result":165,"points":3,"place":0,"phase":0,"sequence":46,"prices":[193,169,171,187,190,224,174,194,165,188],"times":[1134,815,758,839,642,586,682,650,1494],"next_num":9,"trial_type":"ticket-choose","trial_index":66,"time_elapsed":829683,"internal_node_id":"0.0-66.0"},{"result":165,"points":2,"place":1,"phase":0,"sequence":47,"prices":[175,186,165,214,179,187,177,166,153,208],"times":[1587,906,1430],"next_num":3,"trial_type":"ticket-choose","trial_index":67,"time_elapsed":836321,"internal_node_id":"0.0-67.0"},{"result":169,"points":1,"place":3,"phase":0,"sequence":48,"prices":[198,193,169,163,202,182,152,164,177,171],"times":[2373,610,1023],"next_num":3,"trial_type":"ticket-choose","trial_index":68,"time_elapsed":842680,"internal_node_id":"0.0-68.0"},{"result":160,"points":1,"place":2,"phase":0,"sequence":49,"prices":[189,150,175,160,188,207,158,194,178,199],"times":[764,432,612,1003],"next_num":4,"trial_type":"ticket-choose","trial_index":69,"time_elapsed":848176,"internal_node_id":"0.0-69.0"},{"responses":[{"value":2,"offby":1,"category":"$115 - $130","category_index":0},{"value":6,"offby":1,"category":"$131 - $145","category_index":1},{"value":15,"offby":3,"category":"$146 - $160","category_index":2},{"value":30,"offby":8,"category":"$161 - $175","category_index":3},{"value":20,"offby":-14,"category":"$176 - $190","category_index":4},{"value":17,"offby":2,"category":"$191 - $205","category_index":5},{"value":10,"offby":-1,"category":"$206 - $220","category_index":6}],"phase":1,"number":1,"trial_type":"bar-choose","trial_index":70,"time_elapsed":951516,"internal_node_id":"0.0-70.0"},{"rt":8730,"url":"\/christiane\/tickets\/utils\/testing2.html","trial_type":"point_update","trial_index":71,"time_elapsed":961564,"internal_node_id":"0.0-71.0"},{"phase":1,"order":[14,20,21,19,32,24,30,7,11,46,10,29,27,48,49,35,22,23,1,42,45,2,37,40,26,36,43,17,13,9,16,12,6,25,4,3,15,8,0,31,18,28,41,38,33,34,5,39,44,47],"trial_type":"store_order","trial_index":72,"time_elapsed":962568,"internal_node_id":"0.0-72.0"},{"result":163,"points":2,"place":1,"phase":1,"sequence":0,"prices":[163,174,186,212,176,181,187,166,153,209],"times":[1234],"next_num":1,"trial_type":"ticket-choose","trial_index":73,"time_elapsed":965951,"internal_node_id":"0.0-73.0"},{"result":158,"points":2,"place":1,"phase":1,"sequence":1,"prices":[158,176,187,210,177,181,187,165,208,153],"times":[1549],"next_num":1,"trial_type":"ticket-choose","trial_index":74,"time_elapsed":969432,"internal_node_id":"0.0-74.0"},{"result":158,"points":2,"place":1,"phase":1,"sequence":2,"prices":[177,175,186,221,158,180,187,166,209,153],"times":[702,423,435,428,1222],"next_num":5,"trial_type":"ticket-choose","trial_index":75,"time_elapsed":975939,"internal_node_id":"0.0-75.0"},{"result":158,"points":2,"place":1,"phase":1,"sequence":3,"prices":[158,175,186,209,177,181,188,167,208,154],"times":[1333],"next_num":1,"trial_type":"ticket-choose","trial_index":76,"time_elapsed":979490,"internal_node_id":"0.0-76.0"},{"result":161,"points":3,"place":0,"phase":1,"sequence":4,"prices":[193,174,224,165,187,190,224,161,194,195],"times":[5151,418,915,459,518,2437,555,961],"next_num":8,"trial_type":"ticket-choose","trial_index":77,"time_elapsed":994586,"internal_node_id":"0.0-77.0"},{"result":165,"points":3,"place":0,"phase":1,"sequence":5,"prices":[193,181,175,181,185,165,224,199,218,184],"times":[1033,499,825,524,598,1104],"next_num":6,"trial_type":"ticket-choose","trial_index":78,"time_elapsed":1002242,"internal_node_id":"0.0-78.0"},{"result":165,"points":2,"place":1,"phase":1,"sequence":6,"prices":[191,170,182,165,175,182,203,157,195,200],"times":[850,627,690,1095],"next_num":4,"trial_type":"ticket-choose","trial_index":79,"time_elapsed":1007945,"internal_node_id":"0.0-79.0"},{"result":167,"points":1,"place":2,"phase":1,"sequence":7,"prices":[165,175,187,209,177,180,188,167,154,208],"times":[788,778,639,631,665,613,641,1038],"next_num":8,"trial_type":"ticket-choose","trial_index":80,"time_elapsed":1017155,"internal_node_id":"0.0-80.0"},{"result":165,"points":2,"place":1,"phase":1,"sequence":8,"prices":[177,174,186,217,165,181,187,166,153,209],"times":[1071,647,646,613,1053],"next_num":5,"trial_type":"ticket-choose","trial_index":81,"time_elapsed":1023976,"internal_node_id":"0.0-81.0"},{"result":158,"points":3,"place":0,"phase":1,"sequence":9,"prices":[214,184,226,192,215,158,199,175,176,208],"times":[1623,3904,811,879,582,978],"next_num":6,"trial_type":"ticket-choose","trial_index":82,"time_elapsed":1036856,"internal_node_id":"0.0-82.0"},{"result":165,"points":2,"place":1,"phase":1,"sequence":10,"prices":[177,175,187,209,165,180,188,165,154,208],"times":[1080,1003,485,559,1000],"next_num":5,"trial_type":"ticket-choose","trial_index":83,"time_elapsed":1043729,"internal_node_id":"0.0-83.0"},{"result":161,"points":2,"place":1,"phase":1,"sequence":11,"prices":[185,179,191,165,161,173,199,150,188,168],"times":[780,432,639,417,903],"next_num":5,"trial_type":"ticket-choose","trial_index":84,"time_elapsed":1049523,"internal_node_id":"0.0-84.0"},{"result":165,"points":3,"place":0,"phase":1,"sequence":12,"prices":[192,172,171,178,188,165,217,168,195,197],"times":[883,561,537,624,674,983],"next_num":6,"trial_type":"ticket-choose","trial_index":85,"time_elapsed":1056736,"internal_node_id":"0.0-85.0"},{"result":169,"points":2,"place":1,"phase":1,"sequence":13,"prices":[181,214,169,147,182,193,178,184,176,179],"times":[775,573,981],"next_num":3,"trial_type":"ticket-choose","trial_index":86,"time_elapsed":1061396,"internal_node_id":"0.0-86.0"},{"result":163,"points":1,"place":2,"phase":1,"sequence":14,"prices":[173,163,185,181,166,148,160,185,176,184],"times":[719,986],"next_num":2,"trial_type":"ticket-choose","trial_index":87,"time_elapsed":1065329,"internal_node_id":"0.0-87.0"},{"result":167,"points":1,"place":2,"phase":1,"sequence":15,"prices":[167,153,172,185,195,143,184,211,177,227],"times":[1564],"next_num":1,"trial_type":"ticket-choose","trial_index":88,"time_elapsed":1068771,"internal_node_id":"0.0-88.0"},{"result":158,"points":2,"place":1,"phase":1,"sequence":16,"prices":[177,175,186,209,158,181,188,167,208,154],"times":[3173,2594,889,619,929],"next_num":5,"trial_type":"ticket-choose","trial_index":89,"time_elapsed":1079922,"internal_node_id":"0.0-89.0"},{"result":158,"points":2,"place":1,"phase":1,"sequence":17,"prices":[177,176,187,225,158,181,187,165,208,153],"times":[1281,767,572,590,1032],"next_num":5,"trial_type":"ticket-choose","trial_index":90,"time_elapsed":1087045,"internal_node_id":"0.0-90.0"},{"result":156,"points":3,"place":0,"phase":1,"sequence":18,"prices":[167,175,185,224,178,181,186,168,208,156],"times":[1641,658,687,549,627,905,795,1318,797,476],"next_num":10,"trial_type":"ticket-choose","trial_index":91,"time_elapsed":1099768,"internal_node_id":"0.0-91.0"},{"result":186,"points":1,"place":4,"phase":1,"sequence":19,"prices":[220,173,201,197,169,205,198,183,178,186],"times":[1189,1148,565,634,800,772,601,565,508,517],"next_num":11,"trial_type":"ticket-choose","trial_index":92,"time_elapsed":1113903,"internal_node_id":"0.0-92.0"},{"result":167,"points":2,"place":1,"phase":1,"sequence":20,"prices":[199,191,188,174,167,193,189,164,176,170],"times":[2027,561,387,363,1539],"next_num":5,"trial_type":"ticket-choose","trial_index":93,"time_elapsed":1121540,"internal_node_id":"0.0-93.0"},{"result":153,"points":3,"place":0,"phase":1,"sequence":21,"prices":[167,175,186,225,178,179,187,169,209,153],"times":[1560,535,481,499,497,507,598,1144,557,834],"next_num":10,"trial_type":"ticket-choose","trial_index":94,"time_elapsed":1134376,"internal_node_id":"0.0-94.0"},{"result":165,"points":1,"place":2,"phase":1,"sequence":22,"prices":[199,193,169,165,202,182,151,164,176,171],"times":[4184,602,422,560],"next_num":4,"trial_type":"ticket-choose","trial_index":95,"time_elapsed":1143130,"internal_node_id":"0.0-95.0"},{"result":150,"points":3,"place":0,"phase":1,"sequence":23,"prices":[190,150,175,161,188,207,157,194,178,199],"times":[780,8958],"next_num":2,"trial_type":"ticket-choose","trial_index":96,"time_elapsed":1155330,"internal_node_id":"0.0-96.0"},{"result":169,"points":1,"place":3,"phase":1,"sequence":24,"prices":[200,173,182,169,207,165,152,202,161,204],"times":[855,424,658,871],"next_num":4,"trial_type":"ticket-choose","trial_index":97,"time_elapsed":1160707,"internal_node_id":"0.0-97.0"},{"result":154,"points":3,"place":0,"phase":1,"sequence":25,"prices":[187,201,165,172,196,174,178,154,172,180],"times":[1218,567,461,665,548,550,480,943],"next_num":8,"trial_type":"ticket-choose","trial_index":98,"time_elapsed":1172931,"internal_node_id":"0.0-98.0"},{"result":184,"points":1,"place":4,"phase":1,"sequence":26,"prices":[201,187,157,184,198,179,188,185,178,170],"times":[1031,406,358,419],"next_num":4,"trial_type":"ticket-choose","trial_index":99,"time_elapsed":1178202,"internal_node_id":"0.0-99.0"},{"result":163,"points":2,"place":1,"phase":1,"sequence":27,"prices":[176,186,178,217,163,181,187,166,153,209],"times":[1024,572,606,668,840],"next_num":5,"trial_type":"ticket-choose","trial_index":100,"time_elapsed":1184640,"internal_node_id":"0.0-100.0"},{"result":165,"points":1,"place":2,"phase":1,"sequence":28,"prices":[163,175,187,209,176,180,188,165,154,208],"times":[1057,424,474,486,472,662,740,926],"next_num":8,"trial_type":"ticket-choose","trial_index":101,"time_elapsed":1193201,"internal_node_id":"0.0-101.0"},{"result":153,"points":3,"place":0,"phase":1,"sequence":29,"prices":[177,175,186,210,165,179,187,166,153,208],"times":[887,416,410,379,350,541,491,819,620],"next_num":9,"trial_type":"ticket-choose","trial_index":102,"time_elapsed":1204570,"internal_node_id":"0.0-102.0"},{"result":163,"points":2,"place":1,"phase":1,"sequence":30,"prices":[176,187,179,209,163,180,188,165,154,208],"times":[1216,459,567,529,915],"next_num":5,"trial_type":"ticket-choose","trial_index":103,"time_elapsed":1221576,"internal_node_id":"0.0-103.0"},{"result":163,"points":2,"place":1,"phase":1,"sequence":31,"prices":[163,175,186,214,176,179,187,166,153,208],"times":[1507],"next_num":1,"trial_type":"ticket-choose","trial_index":104,"time_elapsed":1225311,"internal_node_id":"0.0-104.0"},{"result":165,"points":2,"place":1,"phase":1,"sequence":32,"prices":[165,175,186,214,177,179,187,166,153,208],"times":[1391],"next_num":1,"trial_type":"ticket-choose","trial_index":105,"time_elapsed":1228663,"internal_node_id":"0.0-105.0"},{"result":165,"points":2,"place":1,"phase":1,"sequence":33,"prices":[201,204,179,166,185,165,214,156,202,165],"times":[1268,337,1171,630,831,839],"next_num":6,"trial_type":"ticket-choose","trial_index":106,"time_elapsed":1241609,"internal_node_id":"0.0-106.0"},{"result":175,"points":1,"place":3,"phase":1,"sequence":34,"prices":[178,175,185,215,167,181,186,168,208,156],"times":[1248,988],"next_num":2,"trial_type":"ticket-choose","trial_index":107,"time_elapsed":1246428,"internal_node_id":"0.0-107.0"},{"result":167,"points":2,"place":1,"phase":1,"sequence":35,"prices":[178,174,186,217,167,181,188,168,208,156],"times":[6593,653,442,349,1026],"next_num":5,"trial_type":"ticket-choose","trial_index":108,"time_elapsed":1258705,"internal_node_id":"0.0-108.0"},{"result":175,"points":1,"place":3,"phase":1,"sequence":36,"prices":[176,175,186,210,163,179,187,166,153,208],"times":[896,535],"next_num":2,"trial_type":"ticket-choose","trial_index":109,"time_elapsed":1262298,"internal_node_id":"0.0-109.0"},{"result":165,"points":2,"place":1,"phase":1,"sequence":37,"prices":[165,174,186,212,177,181,187,166,153,209],"times":[1978],"next_num":1,"trial_type":"ticket-choose","trial_index":110,"time_elapsed":1266143,"internal_node_id":"0.0-110.0"},{"result":167,"points":2,"place":1,"phase":1,"sequence":38,"prices":[167,174,186,211,178,181,188,168,208,156],"times":[961],"next_num":1,"trial_type":"ticket-choose","trial_index":111,"time_elapsed":1268950,"internal_node_id":"0.0-111.0"},{"result":169,"points":0,"place":5,"phase":1,"sequence":39,"prices":[171,169,186,165,163,167,220,148,187,165],"times":[1839,767],"next_num":2,"trial_type":"ticket-choose","trial_index":112,"time_elapsed":1273725,"internal_node_id":"0.0-112.0"},{"result":158,"points":2,"place":1,"phase":1,"sequence":40,"prices":[158,175,186,211,177,180,187,166,209,153],"times":[993],"next_num":1,"trial_type":"ticket-choose","trial_index":113,"time_elapsed":1276725,"internal_node_id":"0.0-113.0"},{"result":165,"points":3,"place":0,"phase":1,"sequence":41,"prices":[196,171,170,184,187,165,211,169,201,202],"times":[4410,673,565,597,500,1042],"next_num":6,"trial_type":"ticket-choose","trial_index":114,"time_elapsed":1287756,"internal_node_id":"0.0-114.0"},{"result":155,"points":2,"place":1,"phase":1,"sequence":42,"prices":[200,207,155,158,156,168,167,135,178,177],"times":[1086,579,887],"next_num":3,"trial_type":"ticket-choose","trial_index":115,"time_elapsed":1292609,"internal_node_id":"0.0-115.0"},{"result":163,"points":3,"place":0,"phase":1,"sequence":43,"prices":[163,199,196,199,185,195,227,163,177,166],"times":[1349],"next_num":1,"trial_type":"ticket-choose","trial_index":116,"time_elapsed":1296124,"internal_node_id":"0.0-116.0"},{"result":179,"points":1,"place":4,"phase":1,"sequence":44,"prices":[183,179,188,165,168,173,205,159,187,191],"times":[2792,906],"next_num":2,"trial_type":"ticket-choose","trial_index":117,"time_elapsed":1301961,"internal_node_id":"0.0-117.0"},{"result":149,"points":3,"place":0,"phase":1,"sequence":45,"prices":[180,156,149,160,168,186,172,198,176,195],"times":[1355,420,802],"next_num":3,"trial_type":"ticket-choose","trial_index":118,"time_elapsed":1307143,"internal_node_id":"0.0-118.0"},{"result":175,"points":1,"place":3,"phase":1,"sequence":46,"prices":[178,175,186,212,167,179,187,169,209,153],"times":[1222,847],"next_num":2,"trial_type":"ticket-choose","trial_index":119,"time_elapsed":1311369,"internal_node_id":"0.0-119.0"},{"result":167,"points":2,"place":1,"phase":1,"sequence":47,"prices":[189,167,180,197,165,168,172,213,178,171],"times":[1290,899],"next_num":2,"trial_type":"ticket-choose","trial_index":120,"time_elapsed":1315632,"internal_node_id":"0.0-120.0"},{"result":159,"points":1,"place":2,"phase":1,"sequence":48,"prices":[181,159,149,175,185,151,163,174,178,207],"times":[826,942],"next_num":2,"trial_type":"ticket-choose","trial_index":121,"time_elapsed":1319791,"internal_node_id":"0.0-121.0"},{"result":180,"points":0,"place":6,"phase":1,"sequence":49,"prices":[200,180,203,152,175,170,160,154,176,191],"times":[4125,516],"next_num":2,"trial_type":"ticket-choose","trial_index":122,"time_elapsed":1326860,"internal_node_id":"0.0-122.0"},{"responses":[{"value":0,"offby":-1,"category":"$115 - $130","category_index":0},{"value":10,"offby":5,"category":"$131 - $145","category_index":1},{"value":20,"offby":8,"category":"$146 - $160","category_index":2},{"value":20,"offby":-2,"category":"$161 - $175","category_index":3},{"value":40,"offby":6,"category":"$176 - $190","category_index":4},{"value":10,"offby":-5,"category":"$191 - $205","category_index":5},{"value":0,"offby":-11,"category":"$206 - $220","category_index":6}],"phase":1,"number":1,"trial_type":"bar-choose","trial_index":123,"time_elapsed":1354987,"internal_node_id":"0.0-123.0"},{"special_comment":"","trial_type":"special_sequence","trial_index":124,"time_elapsed":1362894,"internal_node_id":"0.0-124.0"},{"during":"Nothing","bonus":252,"trial_type":"final","trial_index":125,"time_elapsed":1387935,"internal_node_id":"0.0-125.0"}],"bonus":252}