{"start_time":"2017-05-24 15:07:25","end_time":"2017-05-24 15:41:28","points_phase0":112,"points_phase1":118,"phase_order":0,"age":50,"gender":"m","tries":1,"during":"Nothing","worker_id":"A1V1JNPU0KOA3X","assignment_id":"3PMBY0YE28WVY4T1ECP4M1JM3SBC9O","data":[{"rt":37699,"url":"\/christiane\/tickets\/utils\/consent.html","trial_type":"html","trial_index":0,"time_elapsed":37804,"internal_node_id":"0.0-0.0"},{"age":50,"gender":"m","trial_type":"age","trial_index":1,"time_elapsed":45308,"internal_node_id":"0.0-1.0"},{"worker_id":"A1V1JNPU0KOA3X","trial_type":"workerid","trial_index":2,"time_elapsed":60559,"internal_node_id":"0.0-2.0"},{"tries":1,"trial_type":"instructions_check","trial_index":3,"time_elapsed":112161,"internal_node_id":"0.0-3.0"},{"rt":17528,"url":"\/christiane\/tickets\/utils\/start.html","trial_type":"html","trial_index":4,"time_elapsed":130775,"internal_node_id":"0.0-4.0"},{"trial_type":"number-animation","trial_index":5,"time_elapsed":161644,"internal_node_id":"0.0-5.0"},{"phase":0,"sequence":0,"avg":181,"response":183,"trial_type":"training_avg","trial_index":6,"time_elapsed":180673,"internal_node_id":"0.0-6.0"},{"trial_type":"number-animation","trial_index":7,"time_elapsed":206189,"internal_node_id":"0.0-7.0"},{"phase":0,"sequence":1,"avg":188,"response":193,"trial_type":"training_avg","trial_index":8,"time_elapsed":217264,"internal_node_id":"0.0-8.0"},{"trial_type":"number-animation","trial_index":9,"time_elapsed":239920,"internal_node_id":"0.0-9.0"},{"phase":0,"sequence":2,"avg":188,"response":187,"trial_type":"training_avg","trial_index":10,"time_elapsed":252357,"internal_node_id":"0.0-10.0"},{"trial_type":"number-animation","trial_index":11,"time_elapsed":274379,"internal_node_id":"0.0-11.0"},{"phase":0,"sequence":3,"avg":177,"response":178,"trial_type":"training_avg","trial_index":12,"time_elapsed":289019,"internal_node_id":"0.0-12.0"},{"trial_type":"number-animation","trial_index":13,"time_elapsed":306291,"internal_node_id":"0.0-13.0"},{"phase":0,"sequence":4,"avg":182,"response":175,"trial_type":"training_avg","trial_index":14,"time_elapsed":317747,"internal_node_id":"0.0-14.0"},{"responses":[{"value":2,"offby":1,"category":"$115 - $130","category_index":0},{"value":5,"offby":0,"category":"$131 - $145","category_index":1},{"value":11,"offby":-1,"category":"$146 - $160","category_index":2},{"value":20,"offby":-2,"category":"$161 - $175","category_index":3},{"value":36,"offby":2,"category":"$176 - $190","category_index":4},{"value":17,"offby":2,"category":"$191 - $205","category_index":5},{"value":9,"offby":-2,"category":"$206 - $220","category_index":6}],"phase":0,"number":0,"trial_type":"bar-choose","trial_index":15,"time_elapsed":506630,"internal_node_id":"0.0-15.0"},{"rt":29707,"url":"\/christiane\/tickets\/utils\/testing.html","trial_type":"html","trial_index":16,"time_elapsed":537444,"internal_node_id":"0.0-16.0"},{"phase":0,"order":[0,27,7,45,25,48,2,28,17,43,22,36,16,11,12,40,10,34,26,44,15,3,30,4,14,37,20,1,38,42,41,49,6,35,19,33,46,31,47,5,29,23,21,24,9,13,18,8,39,32],"trial_type":"store_order","trial_index":17,"time_elapsed":538457,"internal_node_id":"0.0-17.0"},{"result":165,"points":2,"place":1,"phase":0,"sequence":-1,"prices":[184,180,224,165,181,199,185,193,218,146],"times":[8355,1388,1223,1579],"next_num":4,"trial_type":"ticket-choose","trial_index":18,"time_elapsed":554458,"internal_node_id":"0.0-18.0"},{"rt":38010,"url":"\/christiane\/tickets\/utils\/testing_after.html","trial_type":"html","trial_index":19,"time_elapsed":593551,"internal_node_id":"0.0-19.0"},{"result":168,"points":1,"place":2,"phase":0,"sequence":0,"prices":[174,186,167,211,181,188,178,168,208,156],"times":[4406,1006,1614,952,911,1892,1504,2966],"next_num":8,"trial_type":"ticket-choose","trial_index":20,"time_elapsed":613347,"internal_node_id":"0.0-20.0"},{"result":165,"points":3,"place":0,"phase":0,"sequence":1,"prices":[192,165,171,178,188,217,172,195,197,186],"times":[3761,1884],"next_num":2,"trial_type":"ticket-choose","trial_index":21,"time_elapsed":621889,"internal_node_id":"0.0-21.0"},{"result":165,"points":2,"place":1,"phase":0,"sequence":2,"prices":[175,187,165,209,180,188,177,166,154,208],"times":[3371,791,1178],"next_num":3,"trial_type":"ticket-choose","trial_index":22,"time_elapsed":630399,"internal_node_id":"0.0-22.0"},{"result":167,"points":2,"place":1,"phase":0,"sequence":3,"prices":[212,192,188,184,167,193,189,164,176,170],"times":[2524,872,919,1421,1203],"next_num":5,"trial_type":"ticket-choose","trial_index":23,"time_elapsed":640804,"internal_node_id":"0.0-23.0"},{"result":165,"points":2,"place":1,"phase":0,"sequence":4,"prices":[201,165,162,166,185,214,165,202,204,179],"times":[3502,1387],"next_num":2,"trial_type":"ticket-choose","trial_index":24,"time_elapsed":648461,"internal_node_id":"0.0-24.0"},{"result":147,"points":3,"place":0,"phase":0,"sequence":5,"prices":[181,215,169,147,182,193,177,184,176,179],"times":[2301,2018,1331,1271],"next_num":4,"trial_type":"ticket-choose","trial_index":25,"time_elapsed":659886,"internal_node_id":"0.0-25.0"},{"result":169,"points":1,"place":2,"phase":0,"sequence":6,"prices":[175,186,167,225,179,187,178,169,209,153],"times":[2683,765,1078,842,877,1128,1135,5289],"next_num":8,"trial_type":"ticket-choose","trial_index":26,"time_elapsed":678164,"internal_node_id":"0.0-26.0"},{"result":165,"points":3,"place":0,"phase":0,"sequence":7,"prices":[196,165,170,184,187,211,171,201,202,185],"times":[3082,1860],"next_num":2,"trial_type":"ticket-choose","trial_index":27,"time_elapsed":686270,"internal_node_id":"0.0-27.0"},{"result":163,"points":2,"place":1,"phase":0,"sequence":8,"prices":[174,186,176,217,181,187,163,166,153,209],"times":[1922,820,785,882,1038,1046,1250],"next_num":7,"trial_type":"ticket-choose","trial_index":28,"time_elapsed":697713,"internal_node_id":"0.0-28.0"},{"result":157,"points":3,"place":0,"phase":0,"sequence":9,"prices":[201,187,157,184,198,179,188,185,178,170],"times":[2139,787,1226],"next_num":3,"trial_type":"ticket-choose","trial_index":29,"time_elapsed":704705,"internal_node_id":"0.0-29.0"},{"result":158,"points":2,"place":1,"phase":0,"sequence":10,"prices":[175,186,177,209,181,188,158,167,208,154],"times":[5506,715,705,781,997,855,1496],"next_num":7,"trial_type":"ticket-choose","trial_index":30,"time_elapsed":719477,"internal_node_id":"0.0-30.0"},{"result":165,"points":2,"place":1,"phase":0,"sequence":11,"prices":[188,200,165,172,198,174,177,154,177,180],"times":[3239,1101,1934],"next_num":3,"trial_type":"ticket-choose","trial_index":31,"time_elapsed":728505,"internal_node_id":"0.0-31.0"},{"result":163,"points":2,"place":1,"phase":0,"sequence":12,"prices":[175,187,176,209,180,188,163,165,154,208],"times":[1882,758,717,726,919,756,1381],"next_num":7,"trial_type":"ticket-choose","trial_index":32,"time_elapsed":739261,"internal_node_id":"0.0-32.0"},{"result":165,"points":2,"place":1,"phase":0,"sequence":13,"prices":[174,186,177,217,181,187,165,166,153,209],"times":[2779,690,680,899,742,893,1460],"next_num":7,"trial_type":"ticket-choose","trial_index":33,"time_elapsed":751079,"internal_node_id":"0.0-33.0"},{"result":163,"points":2,"place":1,"phase":0,"sequence":14,"prices":[175,186,163,214,179,187,176,166,153,208],"times":[3066,814,1254],"next_num":3,"trial_type":"ticket-choose","trial_index":34,"time_elapsed":759016,"internal_node_id":"0.0-34.0"},{"result":150,"points":3,"place":0,"phase":0,"sequence":15,"prices":[189,150,175,160,188,207,158,194,178,199],"times":[2052,1661],"next_num":2,"trial_type":"ticket-choose","trial_index":35,"time_elapsed":765448,"internal_node_id":"0.0-35.0"},{"result":165,"points":2,"place":1,"phase":0,"sequence":16,"prices":[175,187,177,209,180,188,165,165,154,208],"times":[2018,713,826,924,806,896,5055,3889],"next_num":8,"trial_type":"ticket-choose","trial_index":36,"time_elapsed":784562,"internal_node_id":"0.0-36.0"},{"result":155,"points":2,"place":1,"phase":0,"sequence":17,"prices":[181,155,148,161,168,187,172,199,176,194],"times":[3096,1325],"next_num":2,"trial_type":"ticket-choose","trial_index":37,"time_elapsed":791388,"internal_node_id":"0.0-37.0"},{"result":161,"points":3,"place":0,"phase":0,"sequence":18,"prices":[200,165,165,173,182,207,161,202,204,180],"times":[2092,1357,946,873,888,881,1366],"next_num":7,"trial_type":"ticket-choose","trial_index":38,"time_elapsed":803268,"internal_node_id":"0.0-38.0"},{"result":159,"points":1,"place":2,"phase":0,"sequence":19,"prices":[180,159,149,175,185,141,163,174,178,207],"times":[2509,1159],"next_num":2,"trial_type":"ticket-choose","trial_index":39,"time_elapsed":809400,"internal_node_id":"0.0-39.0"},{"result":163,"points":2,"place":1,"phase":0,"sequence":20,"prices":[175,186,176,210,179,187,163,166,153,208],"times":[1982,748,787,803,743,884,1364],"next_num":7,"trial_type":"ticket-choose","trial_index":40,"time_elapsed":820318,"internal_node_id":"0.0-40.0"},{"result":156,"points":3,"place":0,"phase":0,"sequence":21,"prices":[174,186,178,217,181,188,167,168,208,156],"times":[2993,722,938,785,1070,1094,1581,1013,1043,1104],"next_num":10,"trial_type":"ticket-choose","trial_index":41,"time_elapsed":837043,"internal_node_id":"0.0-41.0"},{"result":191,"points":0,"place":7,"phase":0,"sequence":22,"prices":[191,172,169,175,182,203,170,195,165,176],"times":[8050],"next_num":1,"trial_type":"ticket-choose","trial_index":42,"time_elapsed":848488,"internal_node_id":"0.0-42.0"},{"result":156,"points":3,"place":0,"phase":0,"sequence":23,"prices":[175,185,178,215,181,186,167,168,208,156],"times":[2882,994,701,873,855,783,1481,2169,899,1034],"next_num":10,"trial_type":"ticket-choose","trial_index":43,"time_elapsed":865364,"internal_node_id":"0.0-43.0"},{"result":166,"points":1,"place":2,"phase":0,"sequence":24,"prices":[174,186,163,212,181,187,176,166,153,209],"times":[3648,678,1697,750,773,716,1133,2530],"next_num":8,"trial_type":"ticket-choose","trial_index":44,"time_elapsed":881107,"internal_node_id":"0.0-44.0"},{"result":163,"points":2,"place":1,"phase":0,"sequence":25,"prices":[198,193,169,163,202,182,152,164,177,171],"times":[3314,776,996,3133],"next_num":4,"trial_type":"ticket-choose","trial_index":45,"time_elapsed":892338,"internal_node_id":"0.0-45.0"},{"result":158,"points":2,"place":1,"phase":0,"sequence":26,"prices":[176,187,158,210,181,187,177,165,208,153],"times":[2196,699,1786],"next_num":3,"trial_type":"ticket-choose","trial_index":46,"time_elapsed":899784,"internal_node_id":"0.0-46.0"},{"result":156,"points":3,"place":0,"phase":0,"sequence":27,"prices":[175,185,167,224,181,186,178,168,208,156],"times":[2968,1487,917,805,796,730,794,973,765,1077],"next_num":10,"trial_type":"ticket-choose","trial_index":47,"time_elapsed":915485,"internal_node_id":"0.0-47.0"},{"result":163,"points":3,"place":0,"phase":0,"sequence":28,"prices":[168,199,196,198,185,195,227,163,177,166],"times":[4547,720,735,720,844,794,1093,1700],"next_num":8,"trial_type":"ticket-choose","trial_index":48,"time_elapsed":930581,"internal_node_id":"0.0-48.0"},{"result":143,"points":3,"place":0,"phase":0,"sequence":29,"prices":[222,173,202,197,143,205,198,183,178,186],"times":[3515,787,906,761,1295],"next_num":5,"trial_type":"ticket-choose","trial_index":49,"time_elapsed":941221,"internal_node_id":"0.0-49.0"},{"result":155,"points":2,"place":1,"phase":0,"sequence":30,"prices":[201,207,155,158,156,165,167,135,178,177],"times":[6363,703,1444],"next_num":3,"trial_type":"ticket-choose","trial_index":50,"time_elapsed":952401,"internal_node_id":"0.0-50.0"},{"result":148,"points":3,"place":0,"phase":0,"sequence":31,"prices":[183,163,185,180,166,148,160,186,176,184],"times":[1984,1332,724,664,1075,1392],"next_num":6,"trial_type":"ticket-choose","trial_index":51,"time_elapsed":962746,"internal_node_id":"0.0-51.0"},{"result":153,"points":3,"place":0,"phase":0,"sequence":32,"prices":[175,186,165,214,179,187,177,166,153,208],"times":[2268,717,903,780,715,750,947,1973,1223],"next_num":9,"trial_type":"ticket-choose","trial_index":52,"time_elapsed":976993,"internal_node_id":"0.0-52.0"},{"result":154,"points":2,"place":1,"phase":0,"sequence":33,"prices":[168,154,172,185,195,144,184,211,177,227],"times":[3077,1615],"next_num":2,"trial_type":"ticket-choose","trial_index":53,"time_elapsed":984096,"internal_node_id":"0.0-53.0"},{"result":154,"points":3,"place":0,"phase":0,"sequence":34,"prices":[175,186,158,209,181,188,177,167,208,154],"times":[2540,765,1021,700,695,914,735,1156,753,1112],"next_num":10,"trial_type":"ticket-choose","trial_index":54,"time_elapsed":998811,"internal_node_id":"0.0-54.0"},{"result":165,"points":3,"place":0,"phase":0,"sequence":35,"prices":[183,182,192,168,173,205,167,187,165,170],"times":[4247,715,700,864,838,919,1048,879,2342],"next_num":9,"trial_type":"ticket-choose","trial_index":55,"time_elapsed":1015539,"internal_node_id":"0.0-55.0"},{"result":158,"points":3,"place":0,"phase":0,"sequence":36,"prices":[210,184,226,193,215,158,199,175,176,208],"times":[3353,914,702,751,793,1322],"next_num":6,"trial_type":"ticket-choose","trial_index":56,"time_elapsed":1026850,"internal_node_id":"0.0-56.0"},{"result":165,"points":3,"place":0,"phase":0,"sequence":37,"prices":[171,203,175,170,167,220,192,186,165,165],"times":[4855,703,773,687,968,743,718,865,1396],"next_num":9,"trial_type":"ticket-choose","trial_index":57,"time_elapsed":1042592,"internal_node_id":"0.0-57.0"},{"result":152,"points":3,"place":0,"phase":0,"sequence":38,"prices":[200,181,203,152,175,171,160,154,176,191],"times":[2793,703,704,1367],"next_num":4,"trial_type":"ticket-choose","trial_index":58,"time_elapsed":1050962,"internal_node_id":"0.0-58.0"},{"result":153,"points":3,"place":0,"phase":0,"sequence":39,"prices":[175,186,178,212,179,187,167,169,209,153],"times":[2181,655,635,789,736,789,3172,1306,800,1068],"next_num":10,"trial_type":"ticket-choose","trial_index":59,"time_elapsed":1067567,"internal_node_id":"0.0-59.0"},{"result":165,"points":3,"place":0,"phase":0,"sequence":40,"prices":[185,170,182,201,173,199,171,188,165,168],"times":[4555,709,714,772,856,907,1136,920,1334],"next_num":9,"trial_type":"ticket-choose","trial_index":60,"time_elapsed":1083443,"internal_node_id":"0.0-60.0"},{"result":158,"points":2,"place":1,"phase":0,"sequence":41,"prices":[176,187,177,225,181,187,158,165,208,153],"times":[4817,725,935,868,793,881,1314],"next_num":7,"trial_type":"ticket-choose","trial_index":61,"time_elapsed":1097236,"internal_node_id":"0.0-61.0"},{"result":158,"points":2,"place":1,"phase":0,"sequence":42,"prices":[175,186,177,221,180,187,158,166,209,153],"times":[4888,761,777,1749,994,1031,1480],"next_num":7,"trial_type":"ticket-choose","trial_index":62,"time_elapsed":1112661,"internal_node_id":"0.0-62.0"},{"result":184,"points":1,"place":4,"phase":0,"sequence":43,"prices":[193,165,175,181,185,224,180,199,218,184],"times":[3527,2043,623,702,766,715,746,1083,1267,1128],"next_num":10,"trial_type":"ticket-choose","trial_index":63,"time_elapsed":1129753,"internal_node_id":"0.0-63.0"},{"result":153,"points":3,"place":0,"phase":0,"sequence":44,"prices":[175,186,177,210,179,187,165,166,153,208],"times":[3418,1061,666,645,622,797,2564,1056,1407],"next_num":9,"trial_type":"ticket-choose","trial_index":64,"time_elapsed":1146265,"internal_node_id":"0.0-64.0"},{"result":163,"points":2,"place":1,"phase":0,"sequence":45,"prices":[175,187,163,209,180,188,176,165,154,208],"times":[2388,839,3544],"next_num":3,"trial_type":"ticket-choose","trial_index":65,"time_elapsed":1155741,"internal_node_id":"0.0-65.0"},{"result":158,"points":2,"place":1,"phase":0,"sequence":46,"prices":[175,186,158,211,180,187,177,166,209,153],"times":[4097,680,1372],"next_num":3,"trial_type":"ticket-choose","trial_index":66,"time_elapsed":1164682,"internal_node_id":"0.0-66.0"},{"result":153,"points":3,"place":0,"phase":0,"sequence":47,"prices":[174,186,165,212,181,187,177,167,153,209],"times":[2096,811,800,690,738,680,854,987,1324],"next_num":9,"trial_type":"ticket-choose","trial_index":67,"time_elapsed":1177850,"internal_node_id":"0.0-67.0"},{"result":171,"points":1,"place":3,"phase":0,"sequence":48,"prices":[189,167,180,197,165,168,172,213,178,171],"times":[3178,1101,710,724,998,817,1065,854,921,1368],"next_num":10,"trial_type":"ticket-choose","trial_index":68,"time_elapsed":1194183,"internal_node_id":"0.0-68.0"},{"result":188,"points":0,"place":5,"phase":0,"sequence":49,"prices":[193,169,171,187,190,224,174,194,165,188],"times":[3214,1975,741,714,757,810,778,830,2683,1074],"next_num":10,"trial_type":"ticket-choose","trial_index":69,"time_elapsed":1212389,"internal_node_id":"0.0-69.0"},{"responses":[{"value":3,"offby":2,"category":"$115 - $130","category_index":0},{"value":5,"offby":0,"category":"$131 - $145","category_index":1},{"value":11,"offby":-1,"category":"$146 - $160","category_index":2},{"value":23,"offby":1,"category":"$161 - $175","category_index":3},{"value":29,"offby":-5,"category":"$176 - $190","category_index":4},{"value":19,"offby":4,"category":"$191 - $205","category_index":5},{"value":10,"offby":-1,"category":"$206 - $220","category_index":6}],"phase":1,"number":1,"trial_type":"bar-choose","trial_index":70,"time_elapsed":1313112,"internal_node_id":"0.0-70.0"},{"rt":45549,"url":"\/christiane\/tickets\/utils\/testing2.html","trial_type":"point_update","trial_index":71,"time_elapsed":1359852,"internal_node_id":"0.0-71.0"},{"phase":1,"order":[6,25,26,11,46,43,41,36,31,13,21,30,40,9,16,7,35,45,19,1,2,0,44,49,38,39,28,29,5,23,37,24,42,18,32,22,12,10,3,47,33,15,14,27,8,48,17,20,34,4],"trial_type":"store_order","trial_index":72,"time_elapsed":1360854,"internal_node_id":"0.0-72.0"},{"result":153,"points":3,"place":0,"phase":1,"sequence":0,"prices":[165,175,186,214,177,179,187,166,153,208],"times":[6187,696,706,741,772,1012,979,1795,1560],"next_num":9,"trial_type":"ticket-choose","trial_index":73,"time_elapsed":1379641,"internal_node_id":"0.0-73.0"},{"result":165,"points":2,"place":1,"phase":1,"sequence":1,"prices":[201,204,179,166,185,165,214,156,202,165],"times":[3299,694,771,1052,739,1342],"next_num":6,"trial_type":"ticket-choose","trial_index":74,"time_elapsed":1390906,"internal_node_id":"0.0-74.0"},{"result":152,"points":3,"place":0,"phase":1,"sequence":2,"prices":[200,173,182,169,207,165,152,202,161,204],"times":[2631,1670,719,950,711,3239,1266],"next_num":7,"trial_type":"ticket-choose","trial_index":75,"time_elapsed":1405520,"internal_node_id":"0.0-75.0"},{"result":153,"points":3,"place":0,"phase":1,"sequence":3,"prices":[177,174,186,217,165,181,187,166,153,209],"times":[2544,701,682,750,1049,777,837,1585,1298],"next_num":9,"trial_type":"ticket-choose","trial_index":76,"time_elapsed":1419761,"internal_node_id":"0.0-76.0"},{"result":158,"points":3,"place":0,"phase":1,"sequence":4,"prices":[214,184,226,192,215,158,199,175,176,208],"times":[2235,721,787,728,751,1357],"next_num":6,"trial_type":"ticket-choose","trial_index":77,"time_elapsed":1429533,"internal_node_id":"0.0-77.0"},{"result":157,"points":3,"place":0,"phase":1,"sequence":5,"prices":[201,187,157,184,198,179,188,185,178,170],"times":[2263,685,1172],"next_num":3,"trial_type":"ticket-choose","trial_index":78,"time_elapsed":1436238,"internal_node_id":"0.0-78.0"},{"result":155,"points":2,"place":1,"phase":1,"sequence":6,"prices":[200,207,155,158,156,168,167,135,178,177],"times":[1833,656,1188],"next_num":3,"trial_type":"ticket-choose","trial_index":79,"time_elapsed":1442535,"internal_node_id":"0.0-79.0"},{"result":154,"points":3,"place":0,"phase":1,"sequence":7,"prices":[187,201,165,172,196,174,178,154,172,180],"times":[1675,713,1461,1441,900,1098,781,1138],"next_num":8,"trial_type":"ticket-choose","trial_index":80,"time_elapsed":1455481,"internal_node_id":"0.0-80.0"},{"result":163,"points":2,"place":1,"phase":1,"sequence":8,"prices":[171,169,186,165,163,167,220,148,187,165],"times":[1829,1080,665,739,2059],"next_num":5,"trial_type":"ticket-choose","trial_index":81,"time_elapsed":1465116,"internal_node_id":"0.0-81.0"},{"result":163,"points":2,"place":1,"phase":1,"sequence":9,"prices":[163,175,187,209,176,180,188,165,154,208],"times":[6086],"next_num":1,"trial_type":"ticket-choose","trial_index":82,"time_elapsed":1473532,"internal_node_id":"0.0-82.0"},{"result":158,"points":2,"place":1,"phase":1,"sequence":10,"prices":[177,175,186,221,158,180,187,166,209,153],"times":[1851,818,705,689,1664],"next_num":5,"trial_type":"ticket-choose","trial_index":83,"time_elapsed":1482230,"internal_node_id":"0.0-83.0"},{"result":157,"points":3,"place":0,"phase":1,"sequence":11,"prices":[191,170,182,165,175,182,203,157,195,200],"times":[2129,776,722,775,754,781,853,1146],"next_num":8,"trial_type":"ticket-choose","trial_index":84,"time_elapsed":1493985,"internal_node_id":"0.0-84.0"},{"result":150,"points":3,"place":0,"phase":1,"sequence":12,"prices":[190,150,175,161,188,207,157,194,178,199],"times":[2260,1184],"next_num":2,"trial_type":"ticket-choose","trial_index":85,"time_elapsed":1499846,"internal_node_id":"0.0-85.0"},{"result":153,"points":3,"place":0,"phase":1,"sequence":13,"prices":[177,175,186,210,165,179,187,166,153,208],"times":[1966,680,654,791,925,663,815,1245,1248],"next_num":9,"trial_type":"ticket-choose","trial_index":86,"time_elapsed":1513206,"internal_node_id":"0.0-86.0"},{"result":154,"points":3,"place":0,"phase":1,"sequence":14,"prices":[176,187,179,209,163,180,188,165,154,208],"times":[1938,723,720,744,1116,768,839,1020,1366],"next_num":9,"trial_type":"ticket-choose","trial_index":87,"time_elapsed":1526536,"internal_node_id":"0.0-87.0"},{"result":154,"points":3,"place":0,"phase":1,"sequence":15,"prices":[165,175,187,209,177,180,188,167,154,208],"times":[2128,729,703,677,694,774,864,1218,1430],"next_num":9,"trial_type":"ticket-choose","trial_index":88,"time_elapsed":1539912,"internal_node_id":"0.0-88.0"},{"result":153,"points":2,"place":1,"phase":1,"sequence":16,"prices":[167,153,172,185,195,143,184,211,177,227],"times":[2408,1273],"next_num":2,"trial_type":"ticket-choose","trial_index":89,"time_elapsed":1546172,"internal_node_id":"0.0-89.0"},{"result":170,"points":1,"place":2,"phase":1,"sequence":17,"prices":[199,191,188,174,167,193,189,164,176,170],"times":[2505,742,727,731,837,851,886,1246,787,1077],"next_num":10,"trial_type":"ticket-choose","trial_index":90,"time_elapsed":1560566,"internal_node_id":"0.0-90.0"},{"result":158,"points":2,"place":1,"phase":1,"sequence":18,"prices":[158,175,186,209,177,181,188,167,208,154],"times":[2519],"next_num":1,"trial_type":"ticket-choose","trial_index":91,"time_elapsed":1565221,"internal_node_id":"0.0-91.0"},{"result":156,"points":3,"place":0,"phase":1,"sequence":19,"prices":[167,175,185,224,178,181,186,168,208,156],"times":[2042,705,658,668,715,797,688,771,692,1049],"next_num":10,"trial_type":"ticket-choose","trial_index":92,"time_elapsed":1578302,"internal_node_id":"0.0-92.0"},{"result":153,"points":3,"place":0,"phase":1,"sequence":20,"prices":[167,175,186,225,178,179,187,169,209,153],"times":[3001,917,727,689,737,840,847,1760,1019,1093],"next_num":10,"trial_type":"ticket-choose","trial_index":93,"time_elapsed":1593958,"internal_node_id":"0.0-93.0"},{"result":156,"points":3,"place":0,"phase":1,"sequence":21,"prices":[167,174,186,211,178,181,188,168,208,156],"times":[2394,649,766,745,710,856,1121,2609,865,761],"next_num":10,"trial_type":"ticket-choose","trial_index":94,"time_elapsed":1612106,"internal_node_id":"0.0-94.0"},{"result":159,"points":1,"place":2,"phase":1,"sequence":22,"prices":[181,159,149,175,185,151,163,174,178,207],"times":[3551,1358],"next_num":2,"trial_type":"ticket-choose","trial_index":95,"time_elapsed":1619638,"internal_node_id":"0.0-95.0"},{"result":148,"points":3,"place":0,"phase":1,"sequence":23,"prices":[173,163,185,181,166,148,160,185,176,184],"times":[2677,890,710,647,702,1346],"next_num":6,"trial_type":"ticket-choose","trial_index":96,"time_elapsed":1629699,"internal_node_id":"0.0-96.0"},{"result":163,"points":3,"place":0,"phase":1,"sequence":24,"prices":[163,199,196,199,185,195,227,163,177,166],"times":[1858,1150,693,606,764,723,772,3040],"next_num":8,"trial_type":"ticket-choose","trial_index":97,"time_elapsed":1643092,"internal_node_id":"0.0-97.0"},{"result":171,"points":1,"place":3,"phase":1,"sequence":25,"prices":[189,167,180,197,165,168,172,213,178,171],"times":[2374,1371,714,724,1052,809,852,869,818,881],"next_num":10,"trial_type":"ticket-choose","trial_index":98,"time_elapsed":1657537,"internal_node_id":"0.0-98.0"},{"result":202,"points":0,"place":8,"phase":1,"sequence":26,"prices":[196,171,170,184,187,165,211,169,201,202],"times":[3087,730,742,750,740,2386,713,804,795,964],"next_num":10,"trial_type":"ticket-choose","trial_index":99,"time_elapsed":1673259,"internal_node_id":"0.0-99.0"},{"result":165,"points":1,"place":2,"phase":1,"sequence":27,"prices":[185,179,191,165,161,173,199,150,188,168],"times":[3137,678,633,1258],"next_num":4,"trial_type":"ticket-choose","trial_index":100,"time_elapsed":1681588,"internal_node_id":"0.0-100.0"},{"result":153,"points":3,"place":0,"phase":1,"sequence":28,"prices":[178,175,186,212,167,179,187,169,209,153],"times":[1781,732,722,848,715,704,681,732,832,932],"next_num":10,"trial_type":"ticket-choose","trial_index":101,"time_elapsed":1694424,"internal_node_id":"0.0-101.0"},{"result":158,"points":2,"place":1,"phase":1,"sequence":29,"prices":[177,176,187,225,158,181,187,165,208,153],"times":[2666,686,687,941,1386],"next_num":5,"trial_type":"ticket-choose","trial_index":102,"time_elapsed":1703693,"internal_node_id":"0.0-102.0"},{"result":151,"points":3,"place":0,"phase":1,"sequence":30,"prices":[199,193,169,165,202,182,151,164,176,171],"times":[2077,655,661,788,726,729,1308],"next_num":7,"trial_type":"ticket-choose","trial_index":103,"time_elapsed":1713955,"internal_node_id":"0.0-103.0"},{"result":184,"points":1,"place":4,"phase":1,"sequence":31,"prices":[193,181,175,181,185,165,224,199,218,184],"times":[2112,681,682,727,675,1159,748,923,740,1050],"next_num":10,"trial_type":"ticket-choose","trial_index":104,"time_elapsed":1727445,"internal_node_id":"0.0-104.0"},{"result":186,"points":1,"place":4,"phase":1,"sequence":32,"prices":[220,173,201,197,169,205,198,183,178,186],"times":[2076,942,667,677,716,824,771,868,745,877],"next_num":10,"trial_type":"ticket-choose","trial_index":105,"time_elapsed":1740576,"internal_node_id":"0.0-105.0"},{"result":153,"points":3,"place":0,"phase":1,"sequence":33,"prices":[158,175,186,211,177,180,187,166,209,153],"times":[2121,651,676,701,731,704,709,1530,753,953],"next_num":10,"trial_type":"ticket-choose","trial_index":106,"time_elapsed":1754283,"internal_node_id":"0.0-106.0"},{"result":195,"points":0,"place":7,"phase":1,"sequence":34,"prices":[193,174,224,165,187,190,224,161,194,195],"times":[2715,675,633,609,592,653,704,2753,651,982],"next_num":10,"trial_type":"ticket-choose","trial_index":107,"time_elapsed":1769491,"internal_node_id":"0.0-107.0"},{"result":158,"points":2,"place":1,"phase":1,"sequence":35,"prices":[177,175,186,209,158,181,188,167,208,154],"times":[3147,633,627,712,1362],"next_num":5,"trial_type":"ticket-choose","trial_index":108,"time_elapsed":1779019,"internal_node_id":"0.0-108.0"},{"result":153,"points":3,"place":0,"phase":1,"sequence":36,"prices":[163,175,186,214,176,179,187,166,153,208],"times":[2089,635,631,631,655,647,669,657,1159],"next_num":9,"trial_type":"ticket-choose","trial_index":109,"time_elapsed":1790723,"internal_node_id":"0.0-109.0"},{"result":154,"points":3,"place":0,"phase":1,"sequence":37,"prices":[177,175,187,209,165,180,188,165,154,208],"times":[4495,703,652,619,1254,672,1220,2148,1221],"next_num":9,"trial_type":"ticket-choose","trial_index":110,"time_elapsed":1807847,"internal_node_id":"0.0-110.0"},{"result":156,"points":3,"place":0,"phase":1,"sequence":38,"prices":[178,174,186,217,167,181,188,168,208,156],"times":[3239,830,777,724,991,770,819,1035,741,976],"next_num":10,"trial_type":"ticket-choose","trial_index":111,"time_elapsed":1823069,"internal_node_id":"0.0-111.0"},{"result":152,"points":3,"place":0,"phase":1,"sequence":39,"prices":[200,180,203,152,175,170,160,154,176,191],"times":[2059,687,777,1298],"next_num":4,"trial_type":"ticket-choose","trial_index":112,"time_elapsed":1830767,"internal_node_id":"0.0-112.0"},{"result":159,"points":3,"place":0,"phase":1,"sequence":40,"prices":[183,179,188,165,168,173,205,159,187,191],"times":[2897,817,680,830,725,905,1129,1278],"next_num":8,"trial_type":"ticket-choose","trial_index":113,"time_elapsed":1843841,"internal_node_id":"0.0-113.0"},{"result":153,"points":3,"place":0,"phase":1,"sequence":41,"prices":[176,175,186,210,163,179,187,166,153,208],"times":[2412,974,830,848,1277,880,712,1610,1173],"next_num":9,"trial_type":"ticket-choose","trial_index":114,"time_elapsed":1858701,"internal_node_id":"0.0-114.0"},{"result":153,"points":3,"place":0,"phase":1,"sequence":42,"prices":[163,174,186,212,176,181,187,166,153,209],"times":[2806,734,703,690,802,885,786,1543,1153],"next_num":9,"trial_type":"ticket-choose","trial_index":115,"time_elapsed":1872960,"internal_node_id":"0.0-115.0"},{"result":197,"points":0,"place":8,"phase":1,"sequence":43,"prices":[192,172,171,178,188,165,217,168,195,197],"times":[4038,986,925,1554,738,1076,815,1239,812,1093],"next_num":10,"trial_type":"ticket-choose","trial_index":116,"time_elapsed":1890586,"internal_node_id":"0.0-116.0"},{"result":153,"points":3,"place":0,"phase":1,"sequence":44,"prices":[165,174,186,212,177,181,187,166,153,209],"times":[2782,701,661,684,657,767,777,1491,1185],"next_num":9,"trial_type":"ticket-choose","trial_index":117,"time_elapsed":1904321,"internal_node_id":"0.0-117.0"},{"result":147,"points":3,"place":0,"phase":1,"sequence":45,"prices":[181,214,169,147,182,193,178,184,176,179],"times":[2597,1009,1297,1533],"next_num":4,"trial_type":"ticket-choose","trial_index":118,"time_elapsed":1913652,"internal_node_id":"0.0-118.0"},{"result":153,"points":3,"place":0,"phase":1,"sequence":46,"prices":[176,186,178,217,163,181,187,166,153,209],"times":[2709,998,725,854,1263,760,763,1171,1202],"next_num":9,"trial_type":"ticket-choose","trial_index":119,"time_elapsed":1928053,"internal_node_id":"0.0-119.0"},{"result":158,"points":2,"place":1,"phase":1,"sequence":47,"prices":[158,176,187,210,177,181,187,165,208,153],"times":[4371],"next_num":1,"trial_type":"ticket-choose","trial_index":120,"time_elapsed":1934518,"internal_node_id":"0.0-120.0"},{"result":156,"points":2,"place":1,"phase":1,"sequence":48,"prices":[180,156,149,160,168,186,172,198,176,195],"times":[2131,2117],"next_num":2,"trial_type":"ticket-choose","trial_index":121,"time_elapsed":1941492,"internal_node_id":"0.0-121.0"},{"result":156,"points":3,"place":0,"phase":1,"sequence":49,"prices":[178,175,185,215,167,181,186,168,208,156],"times":[3716,659,605,581,586,633,637,1087,951,940],"next_num":10,"trial_type":"ticket-choose","trial_index":122,"time_elapsed":1956139,"internal_node_id":"0.0-122.0"},{"responses":[{"value":5,"offby":4,"category":"$115 - $130","category_index":0},{"value":10,"offby":5,"category":"$131 - $145","category_index":1},{"value":17,"offby":5,"category":"$146 - $160","category_index":2},{"value":19,"offby":-3,"category":"$161 - $175","category_index":3},{"value":25,"offby":-9,"category":"$176 - $190","category_index":4},{"value":17,"offby":2,"category":"$191 - $205","category_index":5},{"value":7,"offby":-4,"category":"$206 - $220","category_index":6}],"phase":1,"number":1,"trial_type":"bar-choose","trial_index":123,"time_elapsed":2015284,"internal_node_id":"0.0-123.0"},{"special_comment":"no","trial_type":"special_sequence","trial_index":124,"time_elapsed":2022325,"internal_node_id":"0.0-124.0"},{"during":"Nothing","bonus":308,"trial_type":"final","trial_index":125,"time_elapsed":2041844,"internal_node_id":"0.0-125.0"}],"bonus":308}