{"start_time":"2017-05-24 16:43:27","end_time":"2017-05-24 17:06:37","points_phase0":100,"points_phase1":97,"phase_order":0,"age":34,"gender":"f","tries":2,"during":"Nothing","worker_id":"A1WISFBL3J5Z12","assignment_id":"3IAEQB9FMFDGFSCN7JU7KR9FMTMDWT","data":[{"rt":3849,"url":"\/christiane\/tickets\/utils\/consent.html","trial_type":"html","trial_index":0,"time_elapsed":4383,"internal_node_id":"0.0-0.0"},{"age":34,"gender":"f","trial_type":"age","trial_index":1,"time_elapsed":10094,"internal_node_id":"0.0-1.0"},{"worker_id":"A1WISFBL3J5Z12","trial_type":"workerid","trial_index":2,"time_elapsed":17205,"internal_node_id":"0.0-2.0"},{"tries":2,"trial_type":"instructions_check","trial_index":3,"time_elapsed":39069,"internal_node_id":"0.0-3.0"},{"rt":11196,"url":"\/christiane\/tickets\/utils\/start.html","trial_type":"html","trial_index":4,"time_elapsed":51396,"internal_node_id":"0.0-4.0"},{"trial_type":"number-animation","trial_index":5,"time_elapsed":65483,"internal_node_id":"0.0-5.0"},{"phase":0,"sequence":0,"avg":181,"response":167,"trial_type":"training_avg","trial_index":6,"time_elapsed":75172,"internal_node_id":"0.0-6.0"},{"trial_type":"number-animation","trial_index":7,"time_elapsed":86003,"internal_node_id":"0.0-7.0"},{"phase":0,"sequence":1,"avg":188,"response":175,"trial_type":"training_avg","trial_index":8,"time_elapsed":93507,"internal_node_id":"0.0-8.0"},{"trial_type":"number-animation","trial_index":9,"time_elapsed":352438,"internal_node_id":"0.0-9.0"},{"phase":0,"sequence":2,"avg":188,"response":185,"trial_type":"training_avg","trial_index":10,"time_elapsed":361021,"internal_node_id":"0.0-10.0"},{"trial_type":"number-animation","trial_index":11,"time_elapsed":371973,"internal_node_id":"0.0-11.0"},{"phase":0,"sequence":3,"avg":177,"response":187,"trial_type":"training_avg","trial_index":12,"time_elapsed":380062,"internal_node_id":"0.0-12.0"},{"trial_type":"number-animation","trial_index":13,"time_elapsed":391236,"internal_node_id":"0.0-13.0"},{"phase":0,"sequence":4,"avg":182,"response":178,"trial_type":"training_avg","trial_index":14,"time_elapsed":402237,"internal_node_id":"0.0-14.0"},{"responses":[{"value":6,"offby":5,"category":"$115 - $130","category_index":0},{"value":14,"offby":9,"category":"$131 - $145","category_index":1},{"value":23,"offby":11,"category":"$146 - $160","category_index":2},{"value":26,"offby":4,"category":"$161 - $175","category_index":3},{"value":14,"offby":-20,"category":"$176 - $190","category_index":4},{"value":12,"offby":-3,"category":"$191 - $205","category_index":5},{"value":5,"offby":-6,"category":"$206 - $220","category_index":6}],"phase":0,"number":0,"trial_type":"bar-choose","trial_index":15,"time_elapsed":466343,"internal_node_id":"0.0-15.0"},{"rt":21348,"url":"\/christiane\/tickets\/utils\/testing.html","trial_type":"html","trial_index":16,"time_elapsed":488845,"internal_node_id":"0.0-16.0"},{"phase":0,"order":[17,49,24,19,0,14,46,25,22,35,30,31,41,44,40,13,37,26,12,16,3,39,29,27,11,7,23,47,4,2,33,1,34,43,38,5,42,32,10,6,9,28,20,45,15,21,8,36,48,18],"trial_type":"store_order","trial_index":17,"time_elapsed":489847,"internal_node_id":"0.0-17.0"},{"result":146,"points":3,"place":0,"phase":0,"sequence":-1,"prices":[184,180,224,165,181,199,185,193,218,146],"times":[1841,520,598,313,554,487,453,510,774,1740],"next_num":10,"trial_type":"ticket-choose","trial_index":18,"time_elapsed":501957,"internal_node_id":"0.0-18.0"},{"rt":33934,"url":"\/christiane\/tickets\/utils\/testing_after.html","trial_type":"html","trial_index":19,"time_elapsed":537032,"internal_node_id":"0.0-19.0"},{"result":163,"points":2,"place":1,"phase":0,"sequence":0,"prices":[174,186,176,217,181,187,163,166,153,209],"times":[1629,457,437,426,361,367,2916],"next_num":7,"trial_type":"ticket-choose","trial_index":20,"time_elapsed":547813,"internal_node_id":"0.0-20.0"},{"result":184,"points":0,"place":7,"phase":0,"sequence":1,"prices":[183,163,185,180,166,148,160,186,176,184],"times":[601,415,327,286,350,231,790,531,860,2516],"next_num":11,"trial_type":"ticket-choose","trial_index":21,"time_elapsed":558838,"internal_node_id":"0.0-21.0"},{"result":184,"points":1,"place":4,"phase":0,"sequence":2,"prices":[193,165,175,181,185,224,180,199,218,184],"times":[469,450,349,341,455,389,459,483,547,751],"next_num":10,"trial_type":"ticket-choose","trial_index":22,"time_elapsed":567696,"internal_node_id":"0.0-22.0"},{"result":154,"points":3,"place":0,"phase":0,"sequence":3,"prices":[175,186,158,209,181,188,177,167,208,154],"times":[290,408,547,389,406,369,385,370,419,954],"next_num":10,"trial_type":"ticket-choose","trial_index":23,"time_elapsed":577005,"internal_node_id":"0.0-23.0"},{"result":156,"points":3,"place":0,"phase":0,"sequence":4,"prices":[174,186,167,211,181,188,178,168,208,156],"times":[592,477,359,370,422,410,409,474,484,638],"next_num":10,"trial_type":"ticket-choose","trial_index":24,"time_elapsed":585589,"internal_node_id":"0.0-24.0"},{"result":166,"points":1,"place":2,"phase":0,"sequence":5,"prices":[174,186,163,212,181,187,176,166,153,209],"times":[402,556,871,396,491,427,637,1098],"next_num":8,"trial_type":"ticket-choose","trial_index":25,"time_elapsed":594828,"internal_node_id":"0.0-25.0"},{"result":158,"points":3,"place":0,"phase":0,"sequence":6,"prices":[210,184,226,193,215,158,199,175,176,208],"times":[342,385,257,317,361,945],"next_num":6,"trial_type":"ticket-choose","trial_index":26,"time_elapsed":600503,"internal_node_id":"0.0-26.0"},{"result":179,"points":1,"place":4,"phase":0,"sequence":7,"prices":[201,165,162,166,185,214,165,202,204,179],"times":[388,338,480,458,534,447,581,429,583,782],"next_num":10,"trial_type":"ticket-choose","trial_index":27,"time_elapsed":609524,"internal_node_id":"0.0-27.0"},{"result":158,"points":2,"place":1,"phase":0,"sequence":8,"prices":[175,186,177,209,181,188,158,167,208,154],"times":[349,775,340,447,388,427,869],"next_num":7,"trial_type":"ticket-choose","trial_index":28,"time_elapsed":616444,"internal_node_id":"0.0-28.0"},{"result":144,"points":3,"place":0,"phase":0,"sequence":9,"prices":[168,154,172,185,195,144,184,211,177,227],"times":[313,586,280,387,351,705],"next_num":6,"trial_type":"ticket-choose","trial_index":29,"time_elapsed":622668,"internal_node_id":"0.0-29.0"},{"result":165,"points":3,"place":0,"phase":0,"sequence":10,"prices":[191,172,169,175,182,203,170,195,165,176],"times":[320,438,414,434,383,409,357,398,1004],"next_num":9,"trial_type":"ticket-choose","trial_index":30,"time_elapsed":630620,"internal_node_id":"0.0-30.0"},{"result":167,"points":1,"place":2,"phase":0,"sequence":11,"prices":[171,203,175,170,167,220,192,186,165,165],"times":[335,583,679,529,2448],"next_num":5,"trial_type":"ticket-choose","trial_index":31,"time_elapsed":638271,"internal_node_id":"0.0-31.0"},{"result":155,"points":2,"place":1,"phase":0,"sequence":12,"prices":[201,207,155,158,156,165,167,135,178,177],"times":[652,464,1072],"next_num":3,"trial_type":"ticket-choose","trial_index":32,"time_elapsed":643012,"internal_node_id":"0.0-32.0"},{"result":159,"points":1,"place":2,"phase":0,"sequence":13,"prices":[180,159,149,175,185,141,163,174,178,207],"times":[479,1043],"next_num":2,"trial_type":"ticket-choose","trial_index":33,"time_elapsed":646735,"internal_node_id":"0.0-33.0"},{"result":150,"points":3,"place":0,"phase":0,"sequence":14,"prices":[189,150,175,160,188,207,158,194,178,199],"times":[589,1020],"next_num":2,"trial_type":"ticket-choose","trial_index":34,"time_elapsed":650424,"internal_node_id":"0.0-34.0"},{"result":165,"points":1,"place":2,"phase":0,"sequence":15,"prices":[175,187,163,209,180,188,176,165,154,208],"times":[430,476,1097,439,436,403,762,997],"next_num":8,"trial_type":"ticket-choose","trial_index":35,"time_elapsed":659028,"internal_node_id":"0.0-35.0"},{"result":163,"points":2,"place":1,"phase":0,"sequence":16,"prices":[198,193,169,163,202,182,152,164,177,171],"times":[498,488,566,1319],"next_num":4,"trial_type":"ticket-choose","trial_index":36,"time_elapsed":664445,"internal_node_id":"0.0-36.0"},{"result":161,"points":3,"place":0,"phase":0,"sequence":17,"prices":[200,165,165,173,182,207,161,202,204,180],"times":[616,581,1033,931,560,527,827],"next_num":7,"trial_type":"ticket-choose","trial_index":37,"time_elapsed":672604,"internal_node_id":"0.0-37.0"},{"result":166,"points":1,"place":2,"phase":0,"sequence":18,"prices":[175,186,163,214,179,187,176,166,153,208],"times":[539,449,636,465,601,460,494,795],"next_num":8,"trial_type":"ticket-choose","trial_index":38,"time_elapsed":680356,"internal_node_id":"0.0-38.0"},{"result":163,"points":2,"place":1,"phase":0,"sequence":19,"prices":[175,187,176,209,180,188,163,165,154,208],"times":[367,393,639,508,507,476,1487],"next_num":7,"trial_type":"ticket-choose","trial_index":39,"time_elapsed":687860,"internal_node_id":"0.0-39.0"},{"result":167,"points":2,"place":1,"phase":0,"sequence":20,"prices":[174,186,178,217,181,188,167,168,208,156],"times":[390,587,377,370,364,410,780],"next_num":7,"trial_type":"ticket-choose","trial_index":40,"time_elapsed":694288,"internal_node_id":"0.0-40.0"},{"result":165,"points":3,"place":0,"phase":0,"sequence":21,"prices":[189,167,180,197,165,168,172,213,178,171],"times":[371,426,367,536,1747],"next_num":5,"trial_type":"ticket-choose","trial_index":41,"time_elapsed":700598,"internal_node_id":"0.0-41.0"},{"result":165,"points":3,"place":0,"phase":0,"sequence":22,"prices":[185,170,182,201,173,199,171,188,165,168],"times":[420,570,426,315,394,403,470,432,860],"next_num":9,"trial_type":"ticket-choose","trial_index":42,"time_elapsed":708948,"internal_node_id":"0.0-42.0"},{"result":186,"points":1,"place":4,"phase":0,"sequence":23,"prices":[192,165,171,178,188,217,172,195,197,186],"times":[2491,295,363,346,334,461,368,577,1871,775],"next_num":10,"trial_type":"ticket-choose","trial_index":43,"time_elapsed":720718,"internal_node_id":"0.0-43.0"},{"result":165,"points":2,"place":1,"phase":0,"sequence":24,"prices":[174,186,177,217,181,187,165,166,153,209],"times":[589,443,11524,1236,498,378,1504],"next_num":7,"trial_type":"ticket-choose","trial_index":44,"time_elapsed":740053,"internal_node_id":"0.0-44.0"},{"result":154,"points":3,"place":0,"phase":0,"sequence":25,"prices":[175,187,165,209,180,188,177,166,154,208],"times":[370,246,274,406,330,374,425,1187,595],"next_num":9,"trial_type":"ticket-choose","trial_index":45,"time_elapsed":747869,"internal_node_id":"0.0-45.0"},{"result":158,"points":2,"place":1,"phase":0,"sequence":26,"prices":[176,187,177,225,181,187,158,165,208,153],"times":[829,522,457,425,720,405,683],"next_num":7,"trial_type":"ticket-choose","trial_index":46,"time_elapsed":755108,"internal_node_id":"0.0-46.0"},{"result":152,"points":3,"place":0,"phase":0,"sequence":27,"prices":[200,181,203,152,175,171,160,154,176,191],"times":[476,463,457,830],"next_num":4,"trial_type":"ticket-choose","trial_index":47,"time_elapsed":759845,"internal_node_id":"0.0-47.0"},{"result":167,"points":2,"place":1,"phase":0,"sequence":28,"prices":[175,185,178,215,181,186,167,168,208,156],"times":[454,412,378,432,376,764,2472],"next_num":7,"trial_type":"ticket-choose","trial_index":48,"time_elapsed":768373,"internal_node_id":"0.0-48.0"},{"result":169,"points":1,"place":2,"phase":0,"sequence":29,"prices":[175,186,167,225,179,187,178,169,209,153],"times":[29535,381,222,456,429,381,373,1314],"next_num":8,"trial_type":"ticket-choose","trial_index":49,"time_elapsed":804949,"internal_node_id":"0.0-49.0"},{"result":167,"points":2,"place":1,"phase":0,"sequence":30,"prices":[183,182,192,168,173,205,167,187,165,170],"times":[694,477,399,269,339,498,725],"next_num":7,"trial_type":"ticket-choose","trial_index":50,"time_elapsed":811516,"internal_node_id":"0.0-50.0"},{"result":167,"points":2,"place":1,"phase":0,"sequence":31,"prices":[175,185,167,224,181,186,178,168,208,156],"times":[338,417,1258],"next_num":3,"trial_type":"ticket-choose","trial_index":51,"time_elapsed":815844,"internal_node_id":"0.0-51.0"},{"result":155,"points":2,"place":1,"phase":0,"sequence":32,"prices":[181,155,148,161,168,187,172,199,176,194],"times":[487,681],"next_num":2,"trial_type":"ticket-choose","trial_index":52,"time_elapsed":819140,"internal_node_id":"0.0-52.0"},{"result":157,"points":3,"place":0,"phase":0,"sequence":33,"prices":[201,187,157,184,198,179,188,185,178,170],"times":[428,476,716],"next_num":3,"trial_type":"ticket-choose","trial_index":53,"time_elapsed":823100,"internal_node_id":"0.0-53.0"},{"result":163,"points":3,"place":0,"phase":0,"sequence":34,"prices":[168,199,196,198,185,195,227,163,177,166],"times":[815,470,432,631,429,412,634,798],"next_num":8,"trial_type":"ticket-choose","trial_index":54,"time_elapsed":831141,"internal_node_id":"0.0-54.0"},{"result":167,"points":2,"place":1,"phase":0,"sequence":35,"prices":[175,186,178,212,179,187,167,169,209,153],"times":[676,451,498,486,473,449,786],"next_num":7,"trial_type":"ticket-choose","trial_index":55,"time_elapsed":838125,"internal_node_id":"0.0-55.0"},{"result":143,"points":3,"place":0,"phase":0,"sequence":36,"prices":[222,173,202,197,143,205,198,183,178,186],"times":[459,544,419,589,853],"next_num":5,"trial_type":"ticket-choose","trial_index":56,"time_elapsed":843672,"internal_node_id":"0.0-56.0"},{"result":165,"points":3,"place":0,"phase":0,"sequence":37,"prices":[193,169,171,187,190,224,174,194,165,188],"times":[318,280,442,366,433,420,619,909,663],"next_num":9,"trial_type":"ticket-choose","trial_index":57,"time_elapsed":851605,"internal_node_id":"0.0-57.0"},{"result":165,"points":2,"place":1,"phase":0,"sequence":38,"prices":[175,187,177,209,180,188,165,165,154,208],"times":[640,447,312,508,465,396,925],"next_num":7,"trial_type":"ticket-choose","trial_index":58,"time_elapsed":858397,"internal_node_id":"0.0-58.0"},{"result":165,"points":2,"place":1,"phase":0,"sequence":39,"prices":[175,186,165,214,179,187,177,166,153,208],"times":[436,485,1328],"next_num":3,"trial_type":"ticket-choose","trial_index":59,"time_elapsed":862885,"internal_node_id":"0.0-59.0"},{"result":165,"points":2,"place":1,"phase":0,"sequence":40,"prices":[175,186,177,210,179,187,165,166,153,208],"times":[751,446,672,456,490,400,639],"next_num":7,"trial_type":"ticket-choose","trial_index":60,"time_elapsed":869821,"internal_node_id":"0.0-60.0"},{"result":185,"points":1,"place":4,"phase":0,"sequence":41,"prices":[196,165,170,184,187,211,171,201,202,185],"times":[343,1632,678,597,469,449,726,427,415,770],"next_num":10,"trial_type":"ticket-choose","trial_index":61,"time_elapsed":880613,"internal_node_id":"0.0-61.0"},{"result":165,"points":1,"place":2,"phase":0,"sequence":42,"prices":[176,187,158,210,181,187,177,165,208,153],"times":[993,589,356,775,305,443,441,872],"next_num":8,"trial_type":"ticket-choose","trial_index":62,"time_elapsed":888877,"internal_node_id":"0.0-62.0"},{"result":170,"points":1,"place":2,"phase":0,"sequence":43,"prices":[212,192,188,184,167,193,189,164,176,170],"times":[433,488,523,465,401,467,449,711,969,610],"next_num":10,"trial_type":"ticket-choose","trial_index":63,"time_elapsed":898260,"internal_node_id":"0.0-63.0"},{"result":163,"points":2,"place":1,"phase":0,"sequence":44,"prices":[175,186,176,210,179,187,163,166,153,208],"times":[498,518,449,470,575,485,854],"next_num":7,"trial_type":"ticket-choose","trial_index":64,"time_elapsed":905372,"internal_node_id":"0.0-64.0"},{"result":158,"points":2,"place":1,"phase":0,"sequence":45,"prices":[175,186,177,221,180,187,158,166,209,153],"times":[378,372,717,444,423,411,934],"next_num":7,"trial_type":"ticket-choose","trial_index":65,"time_elapsed":912220,"internal_node_id":"0.0-65.0"},{"result":165,"points":2,"place":1,"phase":0,"sequence":46,"prices":[174,186,165,212,181,187,177,167,153,209],"times":[483,454,1247],"next_num":3,"trial_type":"ticket-choose","trial_index":66,"time_elapsed":916772,"internal_node_id":"0.0-66.0"},{"result":154,"points":3,"place":0,"phase":0,"sequence":47,"prices":[188,200,165,172,198,174,177,154,177,180],"times":[356,390,860,410,502,549,420,759],"next_num":8,"trial_type":"ticket-choose","trial_index":67,"time_elapsed":924716,"internal_node_id":"0.0-67.0"},{"result":184,"points":0,"place":7,"phase":0,"sequence":48,"prices":[181,215,169,147,182,193,177,184,176,179],"times":[586,457,611,388,708,500,649,768],"next_num":8,"trial_type":"ticket-choose","trial_index":68,"time_elapsed":932948,"internal_node_id":"0.0-68.0"},{"result":158,"points":2,"place":1,"phase":0,"sequence":49,"prices":[175,186,158,211,180,187,177,166,209,153],"times":[861,582,804],"next_num":3,"trial_type":"ticket-choose","trial_index":69,"time_elapsed":937692,"internal_node_id":"0.0-69.0"},{"responses":[{"value":1,"offby":0,"category":"$115 - $130","category_index":0},{"value":6,"offby":1,"category":"$131 - $145","category_index":1},{"value":13,"offby":1,"category":"$146 - $160","category_index":2},{"value":19,"offby":-3,"category":"$161 - $175","category_index":3},{"value":32,"offby":-2,"category":"$176 - $190","category_index":4},{"value":17,"offby":2,"category":"$191 - $205","category_index":5},{"value":12,"offby":1,"category":"$206 - $220","category_index":6}],"phase":1,"number":1,"trial_type":"bar-choose","trial_index":70,"time_elapsed":996184,"internal_node_id":"0.0-70.0"},{"rt":8272,"url":"\/christiane\/tickets\/utils\/testing2.html","trial_type":"point_update","trial_index":71,"time_elapsed":1005745,"internal_node_id":"0.0-71.0"},{"phase":1,"order":[47,25,18,48,23,34,29,28,14,17,6,38,30,22,0,35,27,2,39,49,31,3,32,40,10,37,45,1,41,9,44,20,33,5,24,19,12,4,13,26,11,43,16,7,15,46,42,21,8,36],"trial_type":"store_order","trial_index":72,"time_elapsed":1006749,"internal_node_id":"0.0-72.0"},{"result":152,"points":3,"place":0,"phase":1,"sequence":0,"prices":[200,180,203,152,175,170,160,154,176,191],"times":[769,269,299,3821],"next_num":4,"trial_type":"ticket-choose","trial_index":73,"time_elapsed":1014496,"internal_node_id":"0.0-73.0"},{"result":165,"points":2,"place":1,"phase":1,"sequence":1,"prices":[201,204,179,166,185,165,214,156,202,165],"times":[429,343,250,254,415,735],"next_num":6,"trial_type":"ticket-choose","trial_index":74,"time_elapsed":1019765,"internal_node_id":"0.0-74.0"},{"result":166,"points":1,"place":2,"phase":1,"sequence":2,"prices":[158,175,186,211,177,180,187,166,209,153],"times":[347,421,388,398,359,405,403,755],"next_num":8,"trial_type":"ticket-choose","trial_index":75,"time_elapsed":1026421,"internal_node_id":"0.0-75.0"},{"result":179,"points":1,"place":4,"phase":1,"sequence":3,"prices":[181,214,169,147,182,193,178,184,176,179],"times":[500,425,377,415,364,410,1006,424,496,1082],"next_num":10,"trial_type":"ticket-choose","trial_index":76,"time_elapsed":1035856,"internal_node_id":"0.0-76.0"},{"result":158,"points":2,"place":1,"phase":1,"sequence":4,"prices":[177,176,187,225,158,181,187,165,208,153],"times":[613,507,460,359,771],"next_num":5,"trial_type":"ticket-choose","trial_index":77,"time_elapsed":1041224,"internal_node_id":"0.0-77.0"},{"result":156,"points":2,"place":1,"phase":1,"sequence":5,"prices":[180,156,149,160,168,186,172,198,176,195],"times":[945,740],"next_num":2,"trial_type":"ticket-choose","trial_index":78,"time_elapsed":1044885,"internal_node_id":"0.0-78.0"},{"result":161,"points":2,"place":1,"phase":1,"sequence":6,"prices":[185,179,191,165,161,173,199,150,188,168],"times":[385,532,375,702,697],"next_num":5,"trial_type":"ticket-choose","trial_index":79,"time_elapsed":1050238,"internal_node_id":"0.0-79.0"},{"result":165,"points":3,"place":0,"phase":1,"sequence":7,"prices":[196,171,170,184,187,165,211,169,201,202],"times":[356,518,460,533,450,667],"next_num":6,"trial_type":"ticket-choose","trial_index":80,"time_elapsed":1055972,"internal_node_id":"0.0-80.0"},{"result":166,"points":1,"place":2,"phase":1,"sequence":8,"prices":[163,174,186,212,176,181,187,166,153,209],"times":[282,524,517,458,615,437,465,1050],"next_num":8,"trial_type":"ticket-choose","trial_index":81,"time_elapsed":1063661,"internal_node_id":"0.0-81.0"},{"result":166,"points":1,"place":2,"phase":1,"sequence":9,"prices":[176,186,178,217,163,181,187,166,153,209],"times":[444,572,379,445,455,407,367,853],"next_num":8,"trial_type":"ticket-choose","trial_index":82,"time_elapsed":1070796,"internal_node_id":"0.0-82.0"},{"result":166,"points":1,"place":2,"phase":1,"sequence":10,"prices":[165,175,186,214,177,179,187,166,153,208],"times":[385,424,417,415,401,598,553,939],"next_num":8,"trial_type":"ticket-choose","trial_index":83,"time_elapsed":1078126,"internal_node_id":"0.0-83.0"},{"result":163,"points":3,"place":0,"phase":1,"sequence":11,"prices":[163,199,196,199,185,195,227,163,177,166],"times":[497,454,490,412,664,438,492,1192],"next_num":8,"trial_type":"ticket-choose","trial_index":84,"time_elapsed":1086494,"internal_node_id":"0.0-84.0"},{"result":165,"points":2,"place":1,"phase":1,"sequence":12,"prices":[191,170,182,165,175,182,203,157,195,200],"times":[531,475,541,844],"next_num":4,"trial_type":"ticket-choose","trial_index":85,"time_elapsed":1091214,"internal_node_id":"0.0-85.0"},{"result":158,"points":2,"place":1,"phase":1,"sequence":13,"prices":[177,175,186,209,158,181,188,167,208,154],"times":[350,461,1016,459,904],"next_num":5,"trial_type":"ticket-choose","trial_index":86,"time_elapsed":1097141,"internal_node_id":"0.0-86.0"},{"result":156,"points":3,"place":0,"phase":1,"sequence":14,"prices":[167,174,186,211,178,181,188,168,208,156],"times":[306,439,474,383,461,415,420,441,477,618],"next_num":10,"trial_type":"ticket-choose","trial_index":87,"time_elapsed":1105247,"internal_node_id":"0.0-87.0"},{"result":185,"points":0,"place":6,"phase":1,"sequence":15,"prices":[167,153,172,185,195,143,184,211,177,227],"times":[340,367,445,1076],"next_num":4,"trial_type":"ticket-choose","trial_index":88,"time_elapsed":1110229,"internal_node_id":"0.0-88.0"},{"result":165,"points":3,"place":0,"phase":1,"sequence":16,"prices":[192,172,171,178,188,165,217,168,195,197],"times":[1436,742,371,465,532,718],"next_num":6,"trial_type":"ticket-choose","trial_index":89,"time_elapsed":1117294,"internal_node_id":"0.0-89.0"},{"result":169,"points":1,"place":2,"phase":1,"sequence":17,"prices":[167,175,186,225,178,179,187,169,209,153],"times":[308,416,416,509,583,741,414,643],"next_num":8,"trial_type":"ticket-choose","trial_index":90,"time_elapsed":1124557,"internal_node_id":"0.0-90.0"},{"result":165,"points":3,"place":0,"phase":1,"sequence":18,"prices":[189,167,180,197,165,168,172,213,178,171],"times":[318,554,415,609,879],"next_num":5,"trial_type":"ticket-choose","trial_index":91,"time_elapsed":1129934,"internal_node_id":"0.0-91.0"},{"result":163,"points":1,"place":2,"phase":1,"sequence":19,"prices":[173,163,185,181,166,148,160,185,176,184],"times":[336,1008],"next_num":2,"trial_type":"ticket-choose","trial_index":92,"time_elapsed":1133196,"internal_node_id":"0.0-92.0"},{"result":163,"points":2,"place":1,"phase":1,"sequence":20,"prices":[171,169,186,165,163,167,220,148,187,165],"times":[406,1814,439,1309,719],"next_num":5,"trial_type":"ticket-choose","trial_index":93,"time_elapsed":1140644,"internal_node_id":"0.0-93.0"},{"result":167,"points":2,"place":1,"phase":1,"sequence":21,"prices":[178,174,186,217,167,181,188,168,208,156],"times":[376,474,401,473,1176],"next_num":5,"trial_type":"ticket-choose","trial_index":94,"time_elapsed":1146109,"internal_node_id":"0.0-94.0"},{"result":161,"points":3,"place":0,"phase":1,"sequence":22,"prices":[193,174,224,165,187,190,224,161,194,195],"times":[309,256,469,355,385,533,410,797],"next_num":8,"trial_type":"ticket-choose","trial_index":95,"time_elapsed":1152849,"internal_node_id":"0.0-95.0"},{"result":150,"points":3,"place":0,"phase":1,"sequence":23,"prices":[190,150,175,161,188,207,157,194,178,199],"times":[642,1134],"next_num":2,"trial_type":"ticket-choose","trial_index":96,"time_elapsed":1156589,"internal_node_id":"0.0-96.0"},{"result":165,"points":2,"place":1,"phase":1,"sequence":24,"prices":[177,175,187,209,165,180,188,165,154,208],"times":[419,457,432,460,449,401,422,650],"next_num":8,"trial_type":"ticket-choose","trial_index":97,"time_elapsed":1163685,"internal_node_id":"0.0-97.0"},{"result":151,"points":3,"place":0,"phase":1,"sequence":25,"prices":[199,193,169,165,202,182,151,164,176,171],"times":[465,370,390,386,438,453,752],"next_num":7,"trial_type":"ticket-choose","trial_index":98,"time_elapsed":1169920,"internal_node_id":"0.0-98.0"},{"result":164,"points":3,"place":0,"phase":1,"sequence":26,"prices":[199,191,188,174,167,193,189,164,176,170],"times":[317,417,428,436,856,458,519,1290],"next_num":8,"trial_type":"ticket-choose","trial_index":99,"time_elapsed":1177828,"internal_node_id":"0.0-99.0"},{"result":168,"points":1,"place":2,"phase":1,"sequence":27,"prices":[167,175,185,224,178,181,186,168,208,156],"times":[512,585,1615,536,454,459,461,777],"next_num":8,"trial_type":"ticket-choose","trial_index":100,"time_elapsed":1186598,"internal_node_id":"0.0-100.0"},{"result":156,"points":1,"place":2,"phase":1,"sequence":28,"prices":[200,207,155,158,156,168,167,135,178,177],"times":[674,326,335,381,617],"next_num":5,"trial_type":"ticket-choose","trial_index":101,"time_elapsed":1191516,"internal_node_id":"0.0-101.0"},{"result":165,"points":2,"place":1,"phase":1,"sequence":29,"prices":[177,175,186,210,165,179,187,166,153,208],"times":[457,475,527,478,945],"next_num":5,"trial_type":"ticket-choose","trial_index":102,"time_elapsed":1197124,"internal_node_id":"0.0-102.0"},{"result":159,"points":1,"place":2,"phase":1,"sequence":30,"prices":[181,159,149,175,185,151,163,174,178,207],"times":[445,776],"next_num":2,"trial_type":"ticket-choose","trial_index":103,"time_elapsed":1200317,"internal_node_id":"0.0-103.0"},{"result":158,"points":2,"place":1,"phase":1,"sequence":31,"prices":[158,176,187,210,177,181,187,165,208,153],"times":[801],"next_num":1,"trial_type":"ticket-choose","trial_index":104,"time_elapsed":1202948,"internal_node_id":"0.0-104.0"},{"result":159,"points":3,"place":0,"phase":1,"sequence":32,"prices":[183,179,188,165,168,173,205,159,187,191],"times":[500,406,383,588,662,974,490,802],"next_num":8,"trial_type":"ticket-choose","trial_index":105,"time_elapsed":1211013,"internal_node_id":"0.0-105.0"},{"result":167,"points":2,"place":1,"phase":1,"sequence":33,"prices":[178,175,186,212,167,179,187,169,209,153],"times":[470,413,462,413,940],"next_num":5,"trial_type":"ticket-choose","trial_index":106,"time_elapsed":1216412,"internal_node_id":"0.0-106.0"},{"result":165,"points":3,"place":0,"phase":1,"sequence":34,"prices":[193,181,175,181,185,165,224,199,218,184],"times":[383,777,477,420,403,781],"next_num":6,"trial_type":"ticket-choose","trial_index":107,"time_elapsed":1222484,"internal_node_id":"0.0-107.0"},{"result":154,"points":3,"place":0,"phase":1,"sequence":35,"prices":[158,175,186,209,177,181,188,167,208,154],"times":[390,654,529,475,441,458,468,521,486,709],"next_num":10,"trial_type":"ticket-choose","trial_index":108,"time_elapsed":1231501,"internal_node_id":"0.0-108.0"},{"result":166,"points":1,"place":2,"phase":1,"sequence":36,"prices":[163,175,186,214,176,179,187,166,153,208],"times":[1043,388,426,450,728,467,575,943],"next_num":8,"trial_type":"ticket-choose","trial_index":109,"time_elapsed":1239893,"internal_node_id":"0.0-109.0"},{"result":167,"points":2,"place":1,"phase":1,"sequence":37,"prices":[178,175,185,215,167,181,186,168,208,156],"times":[587,495,426,389,718],"next_num":5,"trial_type":"ticket-choose","trial_index":110,"time_elapsed":1245196,"internal_node_id":"0.0-110.0"},{"result":165,"points":1,"place":2,"phase":1,"sequence":38,"prices":[163,175,187,209,176,180,188,165,154,208],"times":[513,391,417,461,528,488,429,941],"next_num":8,"trial_type":"ticket-choose","trial_index":111,"time_elapsed":1252853,"internal_node_id":"0.0-111.0"},{"result":165,"points":1,"place":2,"phase":1,"sequence":39,"prices":[200,173,182,169,207,165,152,202,161,204],"times":[407,411,294,450,417,913],"next_num":6,"trial_type":"ticket-choose","trial_index":112,"time_elapsed":1258528,"internal_node_id":"0.0-112.0"},{"result":165,"points":2,"place":1,"phase":1,"sequence":40,"prices":[177,174,186,217,165,181,187,166,153,209],"times":[378,444,424,496,1034],"next_num":5,"trial_type":"ticket-choose","trial_index":113,"time_elapsed":1263941,"internal_node_id":"0.0-113.0"},{"result":157,"points":3,"place":0,"phase":1,"sequence":41,"prices":[201,187,157,184,198,179,188,185,178,170],"times":[430,503,1982],"next_num":3,"trial_type":"ticket-choose","trial_index":114,"time_elapsed":1270173,"internal_node_id":"0.0-114.0"},{"result":163,"points":2,"place":1,"phase":1,"sequence":42,"prices":[176,187,179,209,163,180,188,165,154,208],"times":[1176,378,426,441,813],"next_num":5,"trial_type":"ticket-choose","trial_index":115,"time_elapsed":1276117,"internal_node_id":"0.0-115.0"},{"result":167,"points":1,"place":2,"phase":1,"sequence":43,"prices":[165,175,187,209,177,180,188,167,154,208],"times":[463,454,397,458,432,407,554,1119],"next_num":8,"trial_type":"ticket-choose","trial_index":116,"time_elapsed":1283725,"internal_node_id":"0.0-116.0"},{"result":166,"points":1,"place":2,"phase":1,"sequence":44,"prices":[176,175,186,210,163,179,187,166,153,208],"times":[478,737,425,545,511,571,446,1495],"next_num":8,"trial_type":"ticket-choose","trial_index":117,"time_elapsed":1292165,"internal_node_id":"0.0-117.0"},{"result":158,"points":3,"place":0,"phase":1,"sequence":45,"prices":[214,184,226,192,215,158,199,175,176,208],"times":[511,283,421,468,456,877],"next_num":6,"trial_type":"ticket-choose","trial_index":118,"time_elapsed":1298085,"internal_node_id":"0.0-118.0"},{"result":186,"points":1,"place":4,"phase":1,"sequence":46,"prices":[220,173,201,197,169,205,198,183,178,186],"times":[327,305,360,513,1420,422,571,597,525,535],"next_num":11,"trial_type":"ticket-choose","trial_index":119,"time_elapsed":1308198,"internal_node_id":"0.0-119.0"},{"result":158,"points":2,"place":1,"phase":1,"sequence":47,"prices":[177,175,186,221,158,180,187,166,209,153],"times":[530,461,524,492,828],"next_num":5,"trial_type":"ticket-choose","trial_index":120,"time_elapsed":1313710,"internal_node_id":"0.0-120.0"},{"result":165,"points":2,"place":1,"phase":1,"sequence":48,"prices":[165,174,186,212,177,181,187,166,153,209],"times":[988],"next_num":1,"trial_type":"ticket-choose","trial_index":121,"time_elapsed":1316444,"internal_node_id":"0.0-121.0"},{"result":165,"points":2,"place":1,"phase":1,"sequence":49,"prices":[187,201,165,172,196,174,178,154,172,180],"times":[493,433,720],"next_num":3,"trial_type":"ticket-choose","trial_index":122,"time_elapsed":1320300,"internal_node_id":"0.0-122.0"},{"responses":[{"value":4,"offby":3,"category":"$115 - $130","category_index":0},{"value":6,"offby":1,"category":"$131 - $145","category_index":1},{"value":12,"offby":0,"category":"$146 - $160","category_index":2},{"value":25,"offby":3,"category":"$161 - $175","category_index":3},{"value":22,"offby":-12,"category":"$176 - $190","category_index":4},{"value":18,"offby":3,"category":"$191 - $205","category_index":5},{"value":13,"offby":2,"category":"$206 - $220","category_index":6}],"phase":1,"number":1,"trial_type":"bar-choose","trial_index":123,"time_elapsed":1357169,"internal_node_id":"0.0-123.0"},{"special_comment":"no","trial_type":"special_sequence","trial_index":124,"time_elapsed":1362674,"internal_node_id":"0.0-124.0"},{"during":"Nothing","bonus":264,"trial_type":"final","trial_index":125,"time_elapsed":1383690,"internal_node_id":"0.0-125.0"}],"bonus":264}