{"start_time":"2017-05-24 13:13:24","end_time":"2017-05-24 13:30:32","points_phase0":112,"points_phase1":83,"phase_order":0,"age":29,"gender":"m","tries":2,"during":"Nothing","worker_id":"A1wxpolds1y9r4","assignment_id":"3G2UL9A02E7244W7POEHM506CF976A","data":[{"rt":4658,"url":"\/christiane\/tickets\/utils\/consent.html","trial_type":"html","trial_index":0,"time_elapsed":5297,"internal_node_id":"0.0-0.0"},{"age":29,"gender":"m","trial_type":"age","trial_index":1,"time_elapsed":9949,"internal_node_id":"0.0-1.0"},{"worker_id":"A1wxpolds1y9r4","trial_type":"workerid","trial_index":2,"time_elapsed":18694,"internal_node_id":"0.0-2.0"},{"tries":2,"trial_type":"instructions_check","trial_index":3,"time_elapsed":27266,"internal_node_id":"0.0-3.0"},{"rt":960,"url":"\/christiane\/tickets\/utils\/start.html","trial_type":"html","trial_index":4,"time_elapsed":29346,"internal_node_id":"0.0-4.0"},{"trial_type":"number-animation","trial_index":5,"time_elapsed":38682,"internal_node_id":"0.0-5.0"},{"phase":0,"sequence":0,"avg":181,"response":163,"trial_type":"training_avg","trial_index":6,"time_elapsed":44387,"internal_node_id":"0.0-6.0"},{"trial_type":"number-animation","trial_index":7,"time_elapsed":51092,"internal_node_id":"0.0-7.0"},{"phase":0,"sequence":1,"avg":188,"response":179,"trial_type":"training_avg","trial_index":8,"time_elapsed":56684,"internal_node_id":"0.0-8.0"},{"trial_type":"number-animation","trial_index":9,"time_elapsed":167388,"internal_node_id":"0.0-9.0"},{"phase":0,"sequence":2,"avg":188,"response":211,"trial_type":"training_avg","trial_index":10,"time_elapsed":173586,"internal_node_id":"0.0-10.0"},{"trial_type":"number-animation","trial_index":11,"time_elapsed":187670,"internal_node_id":"0.0-11.0"},{"phase":0,"sequence":3,"avg":177,"response":164,"trial_type":"training_avg","trial_index":12,"time_elapsed":193260,"internal_node_id":"0.0-12.0"},{"trial_type":"number-animation","trial_index":13,"time_elapsed":199753,"internal_node_id":"0.0-13.0"},{"phase":0,"sequence":4,"avg":182,"response":188,"trial_type":"training_avg","trial_index":14,"time_elapsed":205134,"internal_node_id":"0.0-14.0"},{"responses":[{"value":0,"offby":-1,"category":"$115 - $130","category_index":0},{"value":0,"offby":-5,"category":"$131 - $145","category_index":1},{"value":0,"offby":-12,"category":"$146 - $160","category_index":2},{"value":45,"offby":23,"category":"$161 - $175","category_index":3},{"value":45,"offby":11,"category":"$176 - $190","category_index":4},{"value":10,"offby":-5,"category":"$191 - $205","category_index":5},{"value":0,"offby":-11,"category":"$206 - $220","category_index":6}],"phase":0,"number":0,"trial_type":"bar-choose","trial_index":15,"time_elapsed":234431,"internal_node_id":"0.0-15.0"},{"rt":1288,"url":"\/christiane\/tickets\/utils\/testing.html","trial_type":"html","trial_index":16,"time_elapsed":236841,"internal_node_id":"0.0-16.0"},{"phase":0,"order":[31,16,21,47,44,42,37,22,4,35,0,10,3,15,12,43,41,36,6,5,18,11,24,39,17,8,33,38,46,48,34,45,30,28,13,32,29,49,23,25,2,7,1,14,20,26,27,9,19,40],"trial_type":"store_order","trial_index":17,"time_elapsed":237852,"internal_node_id":"0.0-17.0"},{"result":165,"points":2,"place":1,"phase":0,"sequence":-1,"prices":[184,180,224,165,181,199,185,193,218,146],"times":[3143,476,394,1358],"next_num":4,"trial_type":"ticket-choose","trial_index":18,"time_elapsed":246084,"internal_node_id":"0.0-18.0"},{"rt":18709,"url":"\/christiane\/tickets\/utils\/testing_after.html","trial_type":"html","trial_index":19,"time_elapsed":265916,"internal_node_id":"0.0-19.0"},{"result":165,"points":3,"place":0,"phase":0,"sequence":0,"prices":[171,203,175,170,167,220,192,186,165,165],"times":[2119,620,1387,604,896,627,701,679,1170],"next_num":9,"trial_type":"ticket-choose","trial_index":20,"time_elapsed":279798,"internal_node_id":"0.0-20.0"},{"result":163,"points":2,"place":1,"phase":0,"sequence":1,"prices":[175,187,176,209,180,188,163,165,154,208],"times":[22041,565,700,607,710,591,1047],"next_num":7,"trial_type":"ticket-choose","trial_index":21,"time_elapsed":309430,"internal_node_id":"0.0-21.0"},{"result":158,"points":2,"place":1,"phase":0,"sequence":2,"prices":[175,186,177,221,180,187,158,166,209,153],"times":[1344,507,520,529,517,549,813],"next_num":7,"trial_type":"ticket-choose","trial_index":22,"time_elapsed":317456,"internal_node_id":"0.0-22.0"},{"result":152,"points":3,"place":0,"phase":0,"sequence":3,"prices":[200,181,203,152,175,171,160,154,176,191],"times":[902,613,581,938],"next_num":4,"trial_type":"ticket-choose","trial_index":23,"time_elapsed":323220,"internal_node_id":"0.0-23.0"},{"result":159,"points":1,"place":2,"phase":0,"sequence":4,"prices":[180,159,149,175,185,141,163,174,178,207],"times":[1241,887],"next_num":2,"trial_type":"ticket-choose","trial_index":24,"time_elapsed":327339,"internal_node_id":"0.0-24.0"},{"result":143,"points":3,"place":0,"phase":0,"sequence":5,"prices":[222,173,202,197,143,205,198,183,178,186],"times":[699,581,509,592,866],"next_num":5,"trial_type":"ticket-choose","trial_index":25,"time_elapsed":333238,"internal_node_id":"0.0-25.0"},{"result":152,"points":3,"place":0,"phase":0,"sequence":6,"prices":[198,193,169,163,202,182,152,164,177,171],"times":[802,722,539,601,592,572,864],"next_num":7,"trial_type":"ticket-choose","trial_index":26,"time_elapsed":341155,"internal_node_id":"0.0-26.0"},{"result":158,"points":2,"place":1,"phase":0,"sequence":7,"prices":[175,186,177,209,181,188,158,167,208,154],"times":[535,603,552,576,620,559,977],"next_num":7,"trial_type":"ticket-choose","trial_index":27,"time_elapsed":349076,"internal_node_id":"0.0-27.0"},{"result":156,"points":3,"place":0,"phase":0,"sequence":8,"prices":[175,185,178,215,181,186,167,168,208,156],"times":[539,520,543,579,549,571,1080,752,1065,593],"next_num":10,"trial_type":"ticket-choose","trial_index":28,"time_elapsed":359629,"internal_node_id":"0.0-28.0"},{"result":154,"points":2,"place":1,"phase":0,"sequence":9,"prices":[168,154,172,185,195,144,184,211,177,227],"times":[2533,1393],"next_num":2,"trial_type":"ticket-choose","trial_index":29,"time_elapsed":365697,"internal_node_id":"0.0-29.0"},{"result":156,"points":3,"place":0,"phase":0,"sequence":10,"prices":[174,186,167,211,181,188,178,168,208,156],"times":[552,490,521,553,493,526,579,832,562,577],"next_num":10,"trial_type":"ticket-choose","trial_index":30,"time_elapsed":375199,"internal_node_id":"0.0-30.0"},{"result":165,"points":2,"place":1,"phase":0,"sequence":11,"prices":[175,187,177,209,180,188,165,165,154,208],"times":[1128,605,645,521,620,536,927],"next_num":7,"trial_type":"ticket-choose","trial_index":31,"time_elapsed":383551,"internal_node_id":"0.0-31.0"},{"result":167,"points":2,"place":1,"phase":0,"sequence":12,"prices":[174,186,178,217,181,188,167,168,208,156],"times":[683,486,446,536,508,501,922],"next_num":7,"trial_type":"ticket-choose","trial_index":32,"time_elapsed":390946,"internal_node_id":"0.0-32.0"},{"result":163,"points":2,"place":1,"phase":0,"sequence":13,"prices":[175,186,176,210,179,187,163,166,153,208],"times":[652,820,391,459,488,540,1159],"next_num":7,"trial_type":"ticket-choose","trial_index":33,"time_elapsed":398619,"internal_node_id":"0.0-33.0"},{"result":163,"points":2,"place":1,"phase":0,"sequence":14,"prices":[175,186,163,214,179,187,176,166,153,208],"times":[597,432,843],"next_num":3,"trial_type":"ticket-choose","trial_index":34,"time_elapsed":402714,"internal_node_id":"0.0-34.0"},{"result":157,"points":3,"place":0,"phase":0,"sequence":15,"prices":[201,187,157,184,198,179,188,185,178,170],"times":[507,437,1208],"next_num":3,"trial_type":"ticket-choose","trial_index":35,"time_elapsed":408001,"internal_node_id":"0.0-35.0"},{"result":155,"points":2,"place":1,"phase":0,"sequence":16,"prices":[201,207,155,158,156,165,167,135,178,177],"times":[33816,388,1208],"next_num":3,"trial_type":"ticket-choose","trial_index":36,"time_elapsed":445657,"internal_node_id":"0.0-36.0"},{"result":154,"points":3,"place":0,"phase":0,"sequence":17,"prices":[188,200,165,172,198,174,177,154,177,180],"times":[747,809,774,529,568,605,537,785],"next_num":8,"trial_type":"ticket-choose","trial_index":37,"time_elapsed":454401,"internal_node_id":"0.0-37.0"},{"result":153,"points":3,"place":0,"phase":0,"sequence":18,"prices":[175,186,165,214,179,187,177,166,153,208],"times":[654,517,601,586,496,564,525,633,813],"next_num":9,"trial_type":"ticket-choose","trial_index":38,"time_elapsed":463341,"internal_node_id":"0.0-38.0"},{"result":153,"points":3,"place":0,"phase":0,"sequence":19,"prices":[175,186,178,212,179,187,167,169,209,153],"times":[960,468,459,549,518,595,840,564,730,591],"next_num":10,"trial_type":"ticket-choose","trial_index":39,"time_elapsed":473292,"internal_node_id":"0.0-39.0"},{"result":153,"points":3,"place":0,"phase":0,"sequence":20,"prices":[175,186,158,211,180,187,177,166,209,153],"times":[900,1424,412,436,511,553,558,776,569,623],"next_num":10,"trial_type":"ticket-choose","trial_index":40,"time_elapsed":484119,"internal_node_id":"0.0-40.0"},{"result":153,"points":3,"place":0,"phase":0,"sequence":21,"prices":[174,186,177,217,181,187,165,166,153,209],"times":[764,478,376,484,647,538,641,524,865],"next_num":9,"trial_type":"ticket-choose","trial_index":41,"time_elapsed":493028,"internal_node_id":"0.0-41.0"},{"result":184,"points":1,"place":4,"phase":0,"sequence":22,"prices":[193,165,175,181,185,224,180,199,218,184],"times":[717,377,539,459,486,544,579,525,574,579],"next_num":10,"trial_type":"ticket-choose","trial_index":42,"time_elapsed":502164,"internal_node_id":"0.0-42.0"},{"result":171,"points":1,"place":3,"phase":0,"sequence":23,"prices":[189,167,180,197,165,168,172,213,178,171],"times":[844,11394,444,301,546,500,507,540,476,508],"next_num":10,"trial_type":"ticket-choose","trial_index":43,"time_elapsed":522089,"internal_node_id":"0.0-43.0"},{"result":153,"points":3,"place":0,"phase":0,"sequence":24,"prices":[174,186,176,217,181,187,163,166,153,209],"times":[891,682,475,657,516,500,561,907,895],"next_num":9,"trial_type":"ticket-choose","trial_index":44,"time_elapsed":531678,"internal_node_id":"0.0-44.0"},{"result":153,"points":3,"place":0,"phase":0,"sequence":25,"prices":[174,186,165,212,181,187,177,167,153,209],"times":[746,466,514,508,577,544,578,515,894],"next_num":9,"trial_type":"ticket-choose","trial_index":45,"time_elapsed":540495,"internal_node_id":"0.0-45.0"},{"result":165,"points":3,"place":0,"phase":0,"sequence":26,"prices":[183,182,192,168,173,205,167,187,165,170],"times":[583,366,445,414,572,543,534,5015,692],"next_num":9,"trial_type":"ticket-choose","trial_index":46,"time_elapsed":553201,"internal_node_id":"0.0-46.0"},{"result":163,"points":3,"place":0,"phase":0,"sequence":27,"prices":[168,199,196,198,185,195,227,163,177,166],"times":[1280,418,363,362,483,580,684,1271],"next_num":8,"trial_type":"ticket-choose","trial_index":47,"time_elapsed":561968,"internal_node_id":"0.0-47.0"},{"result":158,"points":3,"place":0,"phase":0,"sequence":28,"prices":[210,184,226,193,215,158,199,175,176,208],"times":[836,346,305,427,444,1163],"next_num":6,"trial_type":"ticket-choose","trial_index":48,"time_elapsed":568230,"internal_node_id":"0.0-48.0"},{"result":179,"points":1,"place":4,"phase":0,"sequence":29,"prices":[181,215,169,147,182,193,177,184,176,179],"times":[656,340,362,272,1198,376,521,501,530,600],"next_num":10,"trial_type":"ticket-choose","trial_index":49,"time_elapsed":578077,"internal_node_id":"0.0-49.0"},{"result":148,"points":3,"place":0,"phase":0,"sequence":30,"prices":[181,155,148,161,168,187,172,199,176,194],"times":[7432,347,909],"next_num":3,"trial_type":"ticket-choose","trial_index":50,"time_elapsed":588979,"internal_node_id":"0.0-50.0"},{"result":170,"points":1,"place":2,"phase":0,"sequence":31,"prices":[212,192,188,184,167,193,189,164,176,170],"times":[940,515,462,522,504,563,558,568,686,597],"next_num":10,"trial_type":"ticket-choose","trial_index":51,"time_elapsed":598565,"internal_node_id":"0.0-51.0"},{"result":176,"points":0,"place":5,"phase":0,"sequence":32,"prices":[191,172,169,175,182,203,170,195,165,176],"times":[1281,1200,1777,479,460,494,659,635,712,478],"next_num":10,"trial_type":"ticket-choose","trial_index":52,"time_elapsed":610397,"internal_node_id":"0.0-52.0"},{"result":185,"points":1,"place":4,"phase":0,"sequence":33,"prices":[196,165,170,184,187,211,171,201,202,185],"times":[669,514,547,539,529,550,524,684,565,721],"next_num":10,"trial_type":"ticket-choose","trial_index":53,"time_elapsed":619875,"internal_node_id":"0.0-53.0"},{"result":154,"points":3,"place":0,"phase":0,"sequence":34,"prices":[175,187,163,209,180,188,176,165,154,208],"times":[579,439,406,454,448,499,557,939,1020],"next_num":9,"trial_type":"ticket-choose","trial_index":54,"time_elapsed":628663,"internal_node_id":"0.0-54.0"},{"result":188,"points":0,"place":5,"phase":0,"sequence":35,"prices":[193,169,171,187,190,224,174,194,165,188],"times":[929,435,445,392,395,465,549,601,1138,720],"next_num":10,"trial_type":"ticket-choose","trial_index":55,"time_elapsed":638477,"internal_node_id":"0.0-55.0"},{"result":165,"points":3,"place":0,"phase":0,"sequence":36,"prices":[185,170,182,201,173,199,171,188,165,168],"times":[651,473,549,546,1228,510,581,824,785],"next_num":9,"trial_type":"ticket-choose","trial_index":56,"time_elapsed":648149,"internal_node_id":"0.0-56.0"},{"result":148,"points":3,"place":0,"phase":0,"sequence":37,"prices":[183,163,185,180,166,148,160,186,176,184],"times":[3946,821,670,521,631,901],"next_num":6,"trial_type":"ticket-choose","trial_index":57,"time_elapsed":658448,"internal_node_id":"0.0-57.0"},{"result":158,"points":2,"place":1,"phase":0,"sequence":38,"prices":[176,187,177,225,181,187,158,165,208,153],"times":[909,425,338,707,485,516,978],"next_num":7,"trial_type":"ticket-choose","trial_index":58,"time_elapsed":666191,"internal_node_id":"0.0-58.0"},{"result":165,"points":2,"place":1,"phase":0,"sequence":39,"prices":[201,165,162,166,185,214,165,202,204,179],"times":[2431,605,590,606,597,629,1029],"next_num":7,"trial_type":"ticket-choose","trial_index":59,"time_elapsed":675725,"internal_node_id":"0.0-59.0"},{"result":169,"points":1,"place":2,"phase":0,"sequence":40,"prices":[175,186,167,225,179,187,178,169,209,153],"times":[853,496,444,499,564,543,568,855],"next_num":8,"trial_type":"ticket-choose","trial_index":60,"time_elapsed":683805,"internal_node_id":"0.0-60.0"},{"result":166,"points":1,"place":2,"phase":0,"sequence":41,"prices":[175,187,165,209,180,188,177,166,154,208],"times":[682,505,1195,789,509,1122,2084,874],"next_num":8,"trial_type":"ticket-choose","trial_index":61,"time_elapsed":694754,"internal_node_id":"0.0-61.0"},{"result":156,"points":3,"place":0,"phase":0,"sequence":42,"prices":[175,185,167,224,181,186,178,168,208,156],"times":[1473,598,385,306,430,453,425,502,627,509],"next_num":10,"trial_type":"ticket-choose","trial_index":62,"time_elapsed":704039,"internal_node_id":"0.0-62.0"},{"result":166,"points":1,"place":2,"phase":0,"sequence":43,"prices":[174,186,163,212,181,187,176,166,153,209],"times":[923,340,286,557,461,514,551,969],"next_num":8,"trial_type":"ticket-choose","trial_index":63,"time_elapsed":711865,"internal_node_id":"0.0-63.0"},{"result":158,"points":2,"place":1,"phase":0,"sequence":44,"prices":[176,187,158,210,181,187,177,165,208,153],"times":[849,480,1169],"next_num":3,"trial_type":"ticket-choose","trial_index":64,"time_elapsed":716592,"internal_node_id":"0.0-64.0"},{"result":161,"points":3,"place":0,"phase":0,"sequence":45,"prices":[200,165,165,173,182,207,161,202,204,180],"times":[728,520,672,506,497,455,1387],"next_num":7,"trial_type":"ticket-choose","trial_index":65,"time_elapsed":724487,"internal_node_id":"0.0-65.0"},{"result":186,"points":1,"place":4,"phase":0,"sequence":46,"prices":[192,165,171,178,188,217,172,195,197,186],"times":[710,636,385,355,457,551,566,519,559,640],"next_num":10,"trial_type":"ticket-choose","trial_index":66,"time_elapsed":733538,"internal_node_id":"0.0-66.0"},{"result":153,"points":3,"place":0,"phase":0,"sequence":47,"prices":[175,186,177,210,179,187,165,166,153,208],"times":[864,527,579,553,526,464,1217,814,649],"next_num":9,"trial_type":"ticket-choose","trial_index":67,"time_elapsed":743210,"internal_node_id":"0.0-67.0"},{"result":154,"points":3,"place":0,"phase":0,"sequence":48,"prices":[175,186,158,209,181,188,177,167,208,154],"times":[607,410,347,437,477,486,557,784,676,517],"next_num":10,"trial_type":"ticket-choose","trial_index":68,"time_elapsed":752508,"internal_node_id":"0.0-68.0"},{"result":150,"points":3,"place":0,"phase":0,"sequence":49,"prices":[189,150,175,160,188,207,158,194,178,199],"times":[1288,1110],"next_num":2,"trial_type":"ticket-choose","trial_index":69,"time_elapsed":756921,"internal_node_id":"0.0-69.0"},{"responses":[{"value":0,"offby":-1,"category":"$115 - $130","category_index":0},{"value":0,"offby":-5,"category":"$131 - $145","category_index":1},{"value":30,"offby":18,"category":"$146 - $160","category_index":2},{"value":20,"offby":-2,"category":"$161 - $175","category_index":3},{"value":40,"offby":6,"category":"$176 - $190","category_index":4},{"value":10,"offby":-5,"category":"$191 - $205","category_index":5},{"value":0,"offby":-11,"category":"$206 - $220","category_index":6}],"phase":1,"number":1,"trial_type":"bar-choose","trial_index":70,"time_elapsed":779750,"internal_node_id":"0.0-70.0"},{"rt":4363,"url":"\/christiane\/tickets\/utils\/testing2.html","trial_type":"point_update","trial_index":71,"time_elapsed":785379,"internal_node_id":"0.0-71.0"},{"phase":1,"order":[18,32,0,26,39,43,17,31,35,23,34,30,48,41,45,24,3,15,4,44,5,27,12,36,22,40,21,14,9,8,47,42,13,37,11,19,2,33,10,49,46,16,7,38,1,20,25,6,29,28],"trial_type":"store_order","trial_index":72,"time_elapsed":786414,"internal_node_id":"0.0-72.0"},{"result":158,"points":2,"place":1,"phase":1,"sequence":0,"prices":[158,175,186,211,177,180,187,166,209,153],"times":[3243],"next_num":1,"trial_type":"ticket-choose","trial_index":73,"time_elapsed":791761,"internal_node_id":"0.0-73.0"},{"result":165,"points":2,"place":1,"phase":1,"sequence":1,"prices":[193,174,224,165,187,190,224,161,194,195],"times":[721,230,540,561],"next_num":4,"trial_type":"ticket-choose","trial_index":74,"time_elapsed":796615,"internal_node_id":"0.0-74.0"},{"result":156,"points":3,"place":0,"phase":1,"sequence":2,"prices":[167,174,186,211,178,181,188,168,208,156],"times":[748,496,718,739,904,516,711,489,722,477],"next_num":10,"trial_type":"ticket-choose","trial_index":75,"time_elapsed":806882,"internal_node_id":"0.0-75.0"},{"result":169,"points":1,"place":3,"phase":1,"sequence":3,"prices":[200,173,182,169,207,165,152,202,161,204],"times":[1018,649,699,741],"next_num":4,"trial_type":"ticket-choose","trial_index":76,"time_elapsed":812301,"internal_node_id":"0.0-76.0"},{"result":167,"points":2,"place":1,"phase":1,"sequence":4,"prices":[189,167,180,197,165,168,172,213,178,171],"times":[629,632],"next_num":2,"trial_type":"ticket-choose","trial_index":77,"time_elapsed":815457,"internal_node_id":"0.0-77.0"},{"result":157,"points":3,"place":0,"phase":1,"sequence":5,"prices":[201,187,157,184,198,179,188,185,178,170],"times":[954,810,528],"next_num":3,"trial_type":"ticket-choose","trial_index":78,"time_elapsed":819831,"internal_node_id":"0.0-78.0"},{"result":163,"points":2,"place":1,"phase":1,"sequence":6,"prices":[176,186,178,217,163,181,187,166,153,209],"times":[494,744,762,746,651],"next_num":5,"trial_type":"ticket-choose","trial_index":79,"time_elapsed":825737,"internal_node_id":"0.0-79.0"},{"result":169,"points":0,"place":5,"phase":1,"sequence":7,"prices":[171,169,186,165,163,167,220,148,187,165],"times":[496,580],"next_num":2,"trial_type":"ticket-choose","trial_index":80,"time_elapsed":828679,"internal_node_id":"0.0-80.0"},{"result":167,"points":1,"place":2,"phase":1,"sequence":8,"prices":[167,153,172,185,195,143,184,211,177,227],"times":[739],"next_num":1,"trial_type":"ticket-choose","trial_index":81,"time_elapsed":831085,"internal_node_id":"0.0-81.0"},{"result":176,"points":1,"place":3,"phase":1,"sequence":9,"prices":[177,176,187,225,158,181,187,165,208,153],"times":[493,204],"next_num":2,"trial_type":"ticket-choose","trial_index":82,"time_elapsed":833682,"internal_node_id":"0.0-82.0"},{"result":156,"points":2,"place":1,"phase":1,"sequence":10,"prices":[180,156,149,160,168,186,172,198,176,195],"times":[832,492],"next_num":2,"trial_type":"ticket-choose","trial_index":83,"time_elapsed":836869,"internal_node_id":"0.0-83.0"},{"result":182,"points":1,"place":4,"phase":1,"sequence":11,"prices":[191,170,182,165,175,182,203,157,195,200],"times":[676,476,475],"next_num":3,"trial_type":"ticket-choose","trial_index":84,"time_elapsed":840806,"internal_node_id":"0.0-84.0"},{"result":169,"points":2,"place":1,"phase":1,"sequence":12,"prices":[181,214,169,147,182,193,178,184,176,179],"times":[631,684,537],"next_num":3,"trial_type":"ticket-choose","trial_index":85,"time_elapsed":844734,"internal_node_id":"0.0-85.0"},{"result":155,"points":2,"place":1,"phase":1,"sequence":13,"prices":[200,207,155,158,156,168,167,135,178,177],"times":[654,566,590],"next_num":3,"trial_type":"ticket-choose","trial_index":86,"time_elapsed":848641,"internal_node_id":"0.0-86.0"},{"result":188,"points":0,"place":5,"phase":1,"sequence":14,"prices":[199,191,188,174,167,193,189,164,176,170],"times":[434,598,955],"next_num":3,"trial_type":"ticket-choose","trial_index":87,"time_elapsed":852953,"internal_node_id":"0.0-87.0"},{"result":175,"points":2,"place":1,"phase":1,"sequence":15,"prices":[193,181,175,181,185,165,224,199,218,184],"times":[618,478,678],"next_num":3,"trial_type":"ticket-choose","trial_index":88,"time_elapsed":857013,"internal_node_id":"0.0-88.0"},{"result":167,"points":2,"place":1,"phase":1,"sequence":16,"prices":[178,174,186,217,167,181,188,168,208,156],"times":[498,551,698,721,539],"next_num":5,"trial_type":"ticket-choose","trial_index":89,"time_elapsed":862502,"internal_node_id":"0.0-89.0"},{"result":175,"points":1,"place":3,"phase":1,"sequence":17,"prices":[176,175,186,210,163,179,187,166,153,208],"times":[601,612],"next_num":2,"trial_type":"ticket-choose","trial_index":90,"time_elapsed":865598,"internal_node_id":"0.0-90.0"},{"result":175,"points":1,"place":3,"phase":1,"sequence":18,"prices":[178,175,185,215,167,181,186,168,208,156],"times":[626,671],"next_num":2,"trial_type":"ticket-choose","trial_index":91,"time_elapsed":868754,"internal_node_id":"0.0-91.0"},{"result":159,"points":1,"place":2,"phase":1,"sequence":19,"prices":[181,159,149,175,185,151,163,174,178,207],"times":[471,497],"next_num":2,"trial_type":"ticket-choose","trial_index":92,"time_elapsed":871686,"internal_node_id":"0.0-92.0"},{"result":175,"points":1,"place":3,"phase":1,"sequence":20,"prices":[178,175,186,212,167,179,187,169,209,153],"times":[462,516],"next_num":2,"trial_type":"ticket-choose","trial_index":93,"time_elapsed":874518,"internal_node_id":"0.0-93.0"},{"result":172,"points":1,"place":3,"phase":1,"sequence":21,"prices":[192,172,171,178,188,165,217,168,195,197],"times":[453,536],"next_num":2,"trial_type":"ticket-choose","trial_index":94,"time_elapsed":877358,"internal_node_id":"0.0-94.0"},{"result":163,"points":2,"place":1,"phase":1,"sequence":22,"prices":[163,175,186,214,176,179,187,166,153,208],"times":[1109],"next_num":1,"trial_type":"ticket-choose","trial_index":95,"time_elapsed":880677,"internal_node_id":"0.0-95.0"},{"result":165,"points":2,"place":1,"phase":1,"sequence":23,"prices":[187,201,165,172,196,174,178,154,172,180],"times":[622,1169,653],"next_num":3,"trial_type":"ticket-choose","trial_index":96,"time_elapsed":885204,"internal_node_id":"0.0-96.0"},{"result":175,"points":1,"place":3,"phase":1,"sequence":24,"prices":[177,175,186,209,158,181,188,167,208,154],"times":[534,619],"next_num":2,"trial_type":"ticket-choose","trial_index":97,"time_elapsed":888227,"internal_node_id":"0.0-97.0"},{"result":150,"points":3,"place":0,"phase":1,"sequence":25,"prices":[190,150,175,161,188,207,157,194,178,199],"times":[442,498],"next_num":2,"trial_type":"ticket-choose","trial_index":98,"time_elapsed":891230,"internal_node_id":"0.0-98.0"},{"result":175,"points":1,"place":3,"phase":1,"sequence":26,"prices":[177,175,186,221,158,180,187,166,209,153],"times":[697,570],"next_num":2,"trial_type":"ticket-choose","trial_index":99,"time_elapsed":894345,"internal_node_id":"0.0-99.0"},{"result":163,"points":2,"place":1,"phase":1,"sequence":27,"prices":[163,174,186,212,176,181,187,166,153,209],"times":[752],"next_num":1,"trial_type":"ticket-choose","trial_index":100,"time_elapsed":896751,"internal_node_id":"0.0-100.0"},{"result":177,"points":1,"place":4,"phase":1,"sequence":28,"prices":[177,175,186,210,165,179,187,166,153,208],"times":[631],"next_num":1,"trial_type":"ticket-choose","trial_index":101,"time_elapsed":899166,"internal_node_id":"0.0-101.0"},{"result":165,"points":2,"place":1,"phase":1,"sequence":29,"prices":[165,174,186,212,177,181,187,166,153,209],"times":[573],"next_num":1,"trial_type":"ticket-choose","trial_index":102,"time_elapsed":901541,"internal_node_id":"0.0-102.0"},{"result":152,"points":3,"place":0,"phase":1,"sequence":30,"prices":[200,180,203,152,175,170,160,154,176,191],"times":[913,808,671,559],"next_num":4,"trial_type":"ticket-choose","trial_index":103,"time_elapsed":906747,"internal_node_id":"0.0-103.0"},{"result":173,"points":2,"place":1,"phase":1,"sequence":31,"prices":[220,173,201,197,169,205,198,183,178,186],"times":[586,577],"next_num":2,"trial_type":"ticket-choose","trial_index":104,"time_elapsed":909944,"internal_node_id":"0.0-104.0"},{"result":163,"points":2,"place":1,"phase":1,"sequence":32,"prices":[163,175,187,209,176,180,188,165,154,208],"times":[895],"next_num":1,"trial_type":"ticket-choose","trial_index":105,"time_elapsed":912491,"internal_node_id":"0.0-105.0"},{"result":169,"points":1,"place":3,"phase":1,"sequence":33,"prices":[199,193,169,165,202,182,151,164,176,171],"times":[2555,672,603],"next_num":3,"trial_type":"ticket-choose","trial_index":106,"time_elapsed":918376,"internal_node_id":"0.0-106.0"},{"result":174,"points":1,"place":3,"phase":1,"sequence":34,"prices":[177,174,186,217,165,181,187,166,153,209],"times":[498,463],"next_num":2,"trial_type":"ticket-choose","trial_index":107,"time_elapsed":921219,"internal_node_id":"0.0-107.0"},{"result":158,"points":2,"place":1,"phase":1,"sequence":35,"prices":[158,175,186,209,177,181,188,167,208,154],"times":[1024],"next_num":1,"trial_type":"ticket-choose","trial_index":108,"time_elapsed":923987,"internal_node_id":"0.0-108.0"},{"result":153,"points":3,"place":0,"phase":1,"sequence":36,"prices":[167,175,186,225,178,179,187,169,209,153],"times":[465,750,474,479,537,680,557,934,666,469],"next_num":10,"trial_type":"ticket-choose","trial_index":109,"time_elapsed":933922,"internal_node_id":"0.0-109.0"},{"result":165,"points":2,"place":1,"phase":1,"sequence":37,"prices":[183,179,188,165,168,173,205,159,187,191],"times":[598,723,636,496],"next_num":4,"trial_type":"ticket-choose","trial_index":110,"time_elapsed":938661,"internal_node_id":"0.0-110.0"},{"result":175,"points":1,"place":3,"phase":1,"sequence":38,"prices":[177,175,187,209,165,180,188,165,154,208],"times":[536,640],"next_num":2,"trial_type":"ticket-choose","trial_index":111,"time_elapsed":941928,"internal_node_id":"0.0-111.0"},{"result":163,"points":1,"place":2,"phase":1,"sequence":39,"prices":[173,163,185,181,166,148,160,185,176,184],"times":[508,542],"next_num":2,"trial_type":"ticket-choose","trial_index":112,"time_elapsed":944891,"internal_node_id":"0.0-112.0"},{"result":184,"points":1,"place":3,"phase":1,"sequence":40,"prices":[214,184,226,192,215,158,199,175,176,208],"times":[506,519],"next_num":2,"trial_type":"ticket-choose","trial_index":113,"time_elapsed":947794,"internal_node_id":"0.0-113.0"},{"result":179,"points":1,"place":4,"phase":1,"sequence":41,"prices":[176,187,179,209,163,180,188,165,154,208],"times":[436,681,548],"next_num":3,"trial_type":"ticket-choose","trial_index":114,"time_elapsed":951599,"internal_node_id":"0.0-114.0"},{"result":154,"points":3,"place":0,"phase":1,"sequence":42,"prices":[165,175,187,209,177,180,188,167,154,208],"times":[404,470,307,549,564,474,450,563,813],"next_num":9,"trial_type":"ticket-choose","trial_index":115,"time_elapsed":959543,"internal_node_id":"0.0-115.0"},{"result":163,"points":3,"place":0,"phase":1,"sequence":43,"prices":[163,199,196,199,185,195,227,163,177,166],"times":[848],"next_num":1,"trial_type":"ticket-choose","trial_index":116,"time_elapsed":962060,"internal_node_id":"0.0-116.0"},{"result":167,"points":2,"place":1,"phase":1,"sequence":44,"prices":[167,175,185,224,178,181,186,168,208,156],"times":[774],"next_num":1,"trial_type":"ticket-choose","trial_index":117,"time_elapsed":964495,"internal_node_id":"0.0-117.0"},{"result":158,"points":2,"place":1,"phase":1,"sequence":45,"prices":[158,176,187,210,177,181,187,165,208,153],"times":[770],"next_num":1,"trial_type":"ticket-choose","trial_index":118,"time_elapsed":967022,"internal_node_id":"0.0-118.0"},{"result":166,"points":1,"place":3,"phase":1,"sequence":46,"prices":[201,204,179,166,185,165,214,156,202,165],"times":[734,723,893,738],"next_num":4,"trial_type":"ticket-choose","trial_index":119,"time_elapsed":972664,"internal_node_id":"0.0-119.0"},{"result":165,"points":2,"place":1,"phase":1,"sequence":47,"prices":[165,175,186,214,177,179,187,166,153,208],"times":[778],"next_num":1,"trial_type":"ticket-choose","trial_index":120,"time_elapsed":975130,"internal_node_id":"0.0-120.0"},{"result":161,"points":2,"place":1,"phase":1,"sequence":48,"prices":[185,179,191,165,161,173,199,150,188,168],"times":[801,700,782,610,717],"next_num":5,"trial_type":"ticket-choose","trial_index":121,"time_elapsed":981260,"internal_node_id":"0.0-121.0"},{"result":170,"points":1,"place":2,"phase":1,"sequence":49,"prices":[196,171,170,184,187,165,211,169,201,202],"times":[1184,525,600],"next_num":3,"trial_type":"ticket-choose","trial_index":122,"time_elapsed":985807,"internal_node_id":"0.0-122.0"},{"responses":[{"value":0,"offby":-1,"category":"$115 - $130","category_index":0},{"value":0,"offby":-5,"category":"$131 - $145","category_index":1},{"value":4,"offby":-8,"category":"$146 - $160","category_index":2},{"value":40,"offby":18,"category":"$161 - $175","category_index":3},{"value":40,"offby":6,"category":"$176 - $190","category_index":4},{"value":16,"offby":1,"category":"$191 - $205","category_index":5},{"value":0,"offby":-11,"category":"$206 - $220","category_index":6}],"phase":1,"number":1,"trial_type":"bar-choose","trial_index":123,"time_elapsed":998838,"internal_node_id":"0.0-123.0"},{"special_comment":"no","trial_type":"special_sequence","trial_index":124,"time_elapsed":1002445,"internal_node_id":"0.0-124.0"},{"during":"Nothing","bonus":260,"trial_type":"final","trial_index":125,"time_elapsed":1022407,"internal_node_id":"0.0-125.0"}],"bonus":260}