{"start_time":"2017-05-24 14:28:46","end_time":"2017-05-24 14:47:19","points_phase0":111,"points_phase1":98,"phase_order":0,"age":23,"gender":"m","tries":1,"during":"Nothing","worker_id":"A1X4BKW05XDA8Q","assignment_id":"3X31TUMD7YF6C3KCNC3AAERQZOY1LF","data":[{"rt":3524,"url":"\/christiane\/tickets\/utils\/consent.html","trial_type":"html","trial_index":0,"time_elapsed":3706,"internal_node_id":"0.0-0.0"},{"age":23,"gender":"m","trial_type":"age","trial_index":1,"time_elapsed":14407,"internal_node_id":"0.0-1.0"},{"worker_id":"A1X4BKW05XDA8Q","trial_type":"workerid","trial_index":2,"time_elapsed":22875,"internal_node_id":"0.0-2.0"},{"tries":1,"trial_type":"instructions_check","trial_index":3,"time_elapsed":31876,"internal_node_id":"0.0-3.0"},{"rt":4143,"url":"\/christiane\/tickets\/utils\/start.html","trial_type":"html","trial_index":4,"time_elapsed":37192,"internal_node_id":"0.0-4.0"},{"trial_type":"number-animation","trial_index":5,"time_elapsed":50470,"internal_node_id":"0.0-5.0"},{"phase":0,"sequence":0,"avg":181,"response":168,"trial_type":"training_avg","trial_index":6,"time_elapsed":58809,"internal_node_id":"0.0-6.0"},{"trial_type":"number-animation","trial_index":7,"time_elapsed":72072,"internal_node_id":"0.0-7.0"},{"phase":0,"sequence":1,"avg":188,"response":187,"trial_type":"training_avg","trial_index":8,"time_elapsed":79518,"internal_node_id":"0.0-8.0"},{"trial_type":"number-animation","trial_index":9,"time_elapsed":85854,"internal_node_id":"0.0-9.0"},{"phase":0,"sequence":2,"avg":188,"response":175,"trial_type":"training_avg","trial_index":10,"time_elapsed":91505,"internal_node_id":"0.0-10.0"},{"trial_type":"number-animation","trial_index":11,"time_elapsed":98287,"internal_node_id":"0.0-11.0"},{"phase":0,"sequence":3,"avg":177,"response":177,"trial_type":"training_avg","trial_index":12,"time_elapsed":104731,"internal_node_id":"0.0-12.0"},{"trial_type":"number-animation","trial_index":13,"time_elapsed":113715,"internal_node_id":"0.0-13.0"},{"phase":0,"sequence":4,"avg":182,"response":185,"trial_type":"training_avg","trial_index":14,"time_elapsed":119272,"internal_node_id":"0.0-14.0"},{"responses":[{"value":7,"offby":6,"category":"$115 - $130","category_index":0},{"value":12,"offby":7,"category":"$131 - $145","category_index":1},{"value":15,"offby":3,"category":"$146 - $160","category_index":2},{"value":25,"offby":3,"category":"$161 - $175","category_index":3},{"value":20,"offby":-14,"category":"$176 - $190","category_index":4},{"value":14,"offby":-1,"category":"$191 - $205","category_index":5},{"value":7,"offby":-4,"category":"$206 - $220","category_index":6}],"phase":0,"number":0,"trial_type":"bar-choose","trial_index":15,"time_elapsed":175649,"internal_node_id":"0.0-15.0"},{"rt":20423,"url":"\/christiane\/tickets\/utils\/testing.html","trial_type":"html","trial_index":16,"time_elapsed":197241,"internal_node_id":"0.0-16.0"},{"phase":0,"order":[25,18,16,9,22,0,44,3,31,14,42,49,27,1,41,6,11,38,33,28,12,24,26,48,47,29,5,35,32,2,40,15,30,20,4,39,10,19,21,23,45,46,37,7,17,36,34,8,43,13],"trial_type":"store_order","trial_index":17,"time_elapsed":198243,"internal_node_id":"0.0-17.0"},{"result":165,"points":2,"place":1,"phase":0,"sequence":-1,"prices":[184,180,224,165,181,199,185,193,218,146],"times":[2108,963,590,1441],"next_num":4,"trial_type":"ticket-choose","trial_index":18,"time_elapsed":206614,"internal_node_id":"0.0-18.0"},{"rt":1481,"url":"\/christiane\/tickets\/utils\/testing_after.html","trial_type":"html","trial_index":19,"time_elapsed":209266,"internal_node_id":"0.0-19.0"},{"result":165,"points":2,"place":1,"phase":0,"sequence":0,"prices":[201,165,162,166,185,214,165,202,204,179],"times":[1147,1059],"next_num":2,"trial_type":"ticket-choose","trial_index":20,"time_elapsed":213768,"internal_node_id":"0.0-20.0"},{"result":158,"points":2,"place":1,"phase":0,"sequence":1,"prices":[175,186,158,211,180,187,177,166,209,153],"times":[885,535,1936],"next_num":3,"trial_type":"ticket-choose","trial_index":21,"time_elapsed":219481,"internal_node_id":"0.0-21.0"},{"result":163,"points":2,"place":1,"phase":0,"sequence":2,"prices":[175,187,176,209,180,188,163,165,154,208],"times":[1621,526,576,486,480,540,766],"next_num":7,"trial_type":"ticket-choose","trial_index":22,"time_elapsed":227663,"internal_node_id":"0.0-22.0"},{"result":165,"points":2,"place":1,"phase":0,"sequence":3,"prices":[175,186,177,210,179,187,165,166,153,208],"times":[477,4073,1761,524,525,480,1560],"next_num":7,"trial_type":"ticket-choose","trial_index":23,"time_elapsed":240614,"internal_node_id":"0.0-23.0"},{"result":158,"points":2,"place":1,"phase":0,"sequence":4,"prices":[175,186,177,209,181,188,158,167,208,154],"times":[14863,781,8845,560,633,514,952],"next_num":7,"trial_type":"ticket-choose","trial_index":24,"time_elapsed":270855,"internal_node_id":"0.0-24.0"},{"result":156,"points":3,"place":0,"phase":0,"sequence":5,"prices":[174,186,167,211,181,188,178,168,208,156],"times":[725,773,464,478,472,575,483,1000,542,680],"next_num":10,"trial_type":"ticket-choose","trial_index":25,"time_elapsed":281650,"internal_node_id":"0.0-25.0"},{"result":159,"points":1,"place":2,"phase":0,"sequence":6,"prices":[180,159,149,175,185,141,163,174,178,207],"times":[943,1250],"next_num":2,"trial_type":"ticket-choose","trial_index":26,"time_elapsed":286400,"internal_node_id":"0.0-26.0"},{"result":156,"points":3,"place":0,"phase":0,"sequence":7,"prices":[174,186,178,217,181,188,167,168,208,156],"times":[735,552,493,504,573,488,534,571,573,748],"next_num":10,"trial_type":"ticket-choose","trial_index":27,"time_elapsed":296039,"internal_node_id":"0.0-27.0"},{"result":165,"points":3,"place":0,"phase":0,"sequence":8,"prices":[171,203,175,170,167,220,192,186,165,165],"times":[579,428,436,529,492,463,430,551,423,627],"next_num":10,"trial_type":"ticket-choose","trial_index":28,"time_elapsed":304848,"internal_node_id":"0.0-28.0"},{"result":163,"points":2,"place":1,"phase":0,"sequence":9,"prices":[174,186,163,212,181,187,176,166,153,209],"times":[576,495,877],"next_num":3,"trial_type":"ticket-choose","trial_index":29,"time_elapsed":308891,"internal_node_id":"0.0-29.0"},{"result":143,"points":3,"place":0,"phase":0,"sequence":10,"prices":[222,173,202,197,143,205,198,183,178,186],"times":[691,496,506,480,1721],"next_num":5,"trial_type":"ticket-choose","trial_index":30,"time_elapsed":315565,"internal_node_id":"0.0-30.0"},{"result":148,"points":3,"place":0,"phase":0,"sequence":11,"prices":[183,163,185,180,166,148,160,186,176,184],"times":[877,431,480,761,721,919],"next_num":6,"trial_type":"ticket-choose","trial_index":31,"time_elapsed":322545,"internal_node_id":"0.0-31.0"},{"result":186,"points":1,"place":4,"phase":0,"sequence":12,"prices":[192,165,171,178,188,217,172,195,197,186],"times":[659,395,510,1626,518,492,486,577,562,601],"next_num":10,"trial_type":"ticket-choose","trial_index":32,"time_elapsed":332644,"internal_node_id":"0.0-32.0"},{"result":156,"points":3,"place":0,"phase":0,"sequence":13,"prices":[175,185,167,224,181,186,178,168,208,156],"times":[571,543,672,487,613,469,522,792,430,580],"next_num":10,"trial_type":"ticket-choose","trial_index":33,"time_elapsed":341948,"internal_node_id":"0.0-33.0"},{"result":135,"points":3,"place":0,"phase":0,"sequence":14,"prices":[201,207,155,158,156,165,167,135,178,177],"times":[550,488,437,441,816,574,582,854],"next_num":8,"trial_type":"ticket-choose","trial_index":34,"time_elapsed":350054,"internal_node_id":"0.0-34.0"},{"result":208,"points":0,"place":8,"phase":0,"sequence":15,"prices":[175,186,165,214,179,187,177,166,153,208],"times":[560,356,417,410,422,430,497,751,351,1117],"next_num":10,"trial_type":"ticket-choose","trial_index":35,"time_elapsed":359044,"internal_node_id":"0.0-35.0"},{"result":153,"points":3,"place":0,"phase":0,"sequence":16,"prices":[174,186,177,217,181,187,165,166,153,209],"times":[505,567,457,390,481,501,599,516,750],"next_num":9,"trial_type":"ticket-choose","trial_index":36,"time_elapsed":367284,"internal_node_id":"0.0-36.0"},{"result":166,"points":2,"place":1,"phase":0,"sequence":17,"prices":[168,199,196,198,185,195,227,163,177,166],"times":[611,349,300,357,430,441,585,961,458,552],"next_num":11,"trial_type":"ticket-choose","trial_index":37,"time_elapsed":376984,"internal_node_id":"0.0-37.0"},{"result":165,"points":3,"place":0,"phase":0,"sequence":18,"prices":[183,182,192,168,173,205,167,187,165,170],"times":[546,328,308,319,365,513,595,599,804],"next_num":9,"trial_type":"ticket-choose","trial_index":38,"time_elapsed":384726,"internal_node_id":"0.0-38.0"},{"result":185,"points":1,"place":4,"phase":0,"sequence":19,"prices":[196,165,170,184,187,211,171,201,202,185],"times":[651,299,297,310,264,427,536,518,450,496],"next_num":10,"trial_type":"ticket-choose","trial_index":39,"time_elapsed":392533,"internal_node_id":"0.0-39.0"},{"result":153,"points":3,"place":0,"phase":0,"sequence":20,"prices":[175,186,163,214,179,187,176,166,153,208],"times":[514,487,594,497,551,461,607,585,813],"next_num":9,"trial_type":"ticket-choose","trial_index":40,"time_elapsed":401100,"internal_node_id":"0.0-40.0"},{"result":184,"points":1,"place":4,"phase":0,"sequence":21,"prices":[193,165,175,181,185,224,180,199,218,184],"times":[475,574,311,400,386,448,486,638,474,622],"next_num":10,"trial_type":"ticket-choose","trial_index":41,"time_elapsed":409529,"internal_node_id":"0.0-41.0"},{"result":165,"points":2,"place":1,"phase":0,"sequence":22,"prices":[200,165,165,173,182,207,161,202,204,180],"times":[671,966,1080],"next_num":3,"trial_type":"ticket-choose","trial_index":42,"time_elapsed":414350,"internal_node_id":"0.0-42.0"},{"result":179,"points":1,"place":4,"phase":0,"sequence":23,"prices":[181,215,169,147,182,193,177,184,176,179],"times":[399,504,589,464,886,520,504,587,518,551],"next_num":10,"trial_type":"ticket-choose","trial_index":43,"time_elapsed":423642,"internal_node_id":"0.0-43.0"},{"result":191,"points":0,"place":7,"phase":0,"sequence":24,"prices":[200,181,203,152,175,171,160,154,176,191],"times":[512,541,506,553,575,551,626,594,516,512],"next_num":10,"trial_type":"ticket-choose","trial_index":44,"time_elapsed":432660,"internal_node_id":"0.0-44.0"},{"result":168,"points":2,"place":1,"phase":0,"sequence":25,"prices":[185,170,182,201,173,199,171,188,165,168],"times":[431,490,534,582,535,478,468,455,965,584],"next_num":10,"trial_type":"ticket-choose","trial_index":45,"time_elapsed":441725,"internal_node_id":"0.0-45.0"},{"result":153,"points":3,"place":0,"phase":0,"sequence":26,"prices":[175,186,178,212,179,187,167,169,209,153],"times":[384,467,487,693,575,528,963,1073,551,536],"next_num":10,"trial_type":"ticket-choose","trial_index":46,"time_elapsed":451706,"internal_node_id":"0.0-46.0"},{"result":144,"points":3,"place":0,"phase":0,"sequence":27,"prices":[168,154,172,185,195,144,184,211,177,227],"times":[592,650,491,469,519,742],"next_num":6,"trial_type":"ticket-choose","trial_index":47,"time_elapsed":457858,"internal_node_id":"0.0-47.0"},{"result":188,"points":0,"place":5,"phase":0,"sequence":28,"prices":[193,169,171,187,190,224,174,194,165,188],"times":[476,462,529,535,462,515,465,476,831,688],"next_num":10,"trial_type":"ticket-choose","trial_index":48,"time_elapsed":466892,"internal_node_id":"0.0-48.0"},{"result":153,"points":3,"place":0,"phase":0,"sequence":29,"prices":[175,186,167,225,179,187,178,169,209,153],"times":[506,551,584,605,477,687,488,550,483,510],"next_num":10,"trial_type":"ticket-choose","trial_index":49,"time_elapsed":475852,"internal_node_id":"0.0-49.0"},{"result":150,"points":3,"place":0,"phase":0,"sequence":30,"prices":[189,150,175,160,188,207,158,194,178,199],"times":[413,771],"next_num":2,"trial_type":"ticket-choose","trial_index":50,"time_elapsed":478929,"internal_node_id":"0.0-50.0"},{"result":153,"points":3,"place":0,"phase":0,"sequence":31,"prices":[175,186,176,210,179,187,163,166,153,208],"times":[457,481,468,525,530,503,479,466,939],"next_num":9,"trial_type":"ticket-choose","trial_index":51,"time_elapsed":487113,"internal_node_id":"0.0-51.0"},{"result":165,"points":3,"place":0,"phase":0,"sequence":32,"prices":[191,172,169,175,182,203,170,195,165,176],"times":[473,366,375,439,373,496,438,545,1855],"next_num":9,"trial_type":"ticket-choose","trial_index":52,"time_elapsed":496369,"internal_node_id":"0.0-52.0"},{"result":158,"points":2,"place":1,"phase":0,"sequence":33,"prices":[176,187,158,210,181,187,177,165,208,153],"times":[842,375,730],"next_num":3,"trial_type":"ticket-choose","trial_index":53,"time_elapsed":500404,"internal_node_id":"0.0-53.0"},{"result":156,"points":3,"place":0,"phase":0,"sequence":34,"prices":[175,185,178,215,181,186,167,168,208,156],"times":[514,438,486,521,490,428,461,543,504,417],"next_num":10,"trial_type":"ticket-choose","trial_index":54,"time_elapsed":508713,"internal_node_id":"0.0-54.0"},{"result":165,"points":3,"place":0,"phase":0,"sequence":35,"prices":[189,167,180,197,165,168,172,213,178,171],"times":[634,1114,419,517,836],"next_num":5,"trial_type":"ticket-choose","trial_index":55,"time_elapsed":514714,"internal_node_id":"0.0-55.0"},{"result":165,"points":2,"place":1,"phase":0,"sequence":36,"prices":[175,187,177,209,180,188,165,165,154,208],"times":[436,458,606,468,510,452,715,1795],"next_num":8,"trial_type":"ticket-choose","trial_index":56,"time_elapsed":523663,"internal_node_id":"0.0-56.0"},{"result":158,"points":2,"place":1,"phase":0,"sequence":37,"prices":[175,186,158,209,181,188,177,167,208,154],"times":[501,595,860],"next_num":3,"trial_type":"ticket-choose","trial_index":57,"time_elapsed":527665,"internal_node_id":"0.0-57.0"},{"result":158,"points":2,"place":1,"phase":0,"sequence":38,"prices":[175,186,177,221,180,187,158,166,209,153],"times":[475,696,492,459,513,511,867],"next_num":7,"trial_type":"ticket-choose","trial_index":58,"time_elapsed":534627,"internal_node_id":"0.0-58.0"},{"result":153,"points":3,"place":0,"phase":0,"sequence":39,"prices":[176,187,177,225,181,187,158,165,208,153],"times":[400,415,372,401,426,407,590,423,446,453],"next_num":10,"trial_type":"ticket-choose","trial_index":59,"time_elapsed":542667,"internal_node_id":"0.0-59.0"},{"result":164,"points":3,"place":0,"phase":0,"sequence":40,"prices":[212,192,188,184,167,193,189,164,176,170],"times":[391,407,494,457,987,536,560,970],"next_num":8,"trial_type":"ticket-choose","trial_index":60,"time_elapsed":550720,"internal_node_id":"0.0-60.0"},{"result":208,"points":0,"place":6,"phase":0,"sequence":41,"prices":[210,184,226,193,215,158,199,175,176,208],"times":[481,417,407,507,680,1024,392,493,443,953],"next_num":10,"trial_type":"ticket-choose","trial_index":61,"time_elapsed":560101,"internal_node_id":"0.0-61.0"},{"result":152,"points":3,"place":0,"phase":0,"sequence":42,"prices":[198,193,169,163,202,182,152,164,177,171],"times":[466,434,736,503,533,479,794],"next_num":7,"trial_type":"ticket-choose","trial_index":62,"time_elapsed":566935,"internal_node_id":"0.0-62.0"},{"result":154,"points":3,"place":0,"phase":0,"sequence":43,"prices":[175,187,165,209,180,188,177,166,154,208],"times":[419,405,383,412,405,505,487,719,739],"next_num":9,"trial_type":"ticket-choose","trial_index":63,"time_elapsed":574737,"internal_node_id":"0.0-63.0"},{"result":153,"points":3,"place":0,"phase":0,"sequence":44,"prices":[174,186,176,217,181,187,163,166,153,209],"times":[482,472,398,421,452,453,505,693,851],"next_num":9,"trial_type":"ticket-choose","trial_index":64,"time_elapsed":582780,"internal_node_id":"0.0-64.0"},{"result":154,"points":3,"place":0,"phase":0,"sequence":45,"prices":[188,200,165,172,198,174,177,154,177,180],"times":[538,551,324,404,380,416,432,742],"next_num":8,"trial_type":"ticket-choose","trial_index":65,"time_elapsed":589628,"internal_node_id":"0.0-65.0"},{"result":194,"points":0,"place":8,"phase":0,"sequence":46,"prices":[181,155,148,161,168,187,172,199,176,194],"times":[485,374,358,489,336,398,641,502,501,767],"next_num":10,"trial_type":"ticket-choose","trial_index":66,"time_elapsed":598028,"internal_node_id":"0.0-66.0"},{"result":153,"points":3,"place":0,"phase":0,"sequence":47,"prices":[174,186,165,212,181,187,177,167,153,209],"times":[452,469,1342,525,556,488,487,766,800],"next_num":9,"trial_type":"ticket-choose","trial_index":67,"time_elapsed":607279,"internal_node_id":"0.0-67.0"},{"result":157,"points":3,"place":0,"phase":0,"sequence":48,"prices":[201,187,157,184,198,179,188,185,178,170],"times":[384,580,792],"next_num":3,"trial_type":"ticket-choose","trial_index":68,"time_elapsed":611125,"internal_node_id":"0.0-68.0"},{"result":163,"points":2,"place":1,"phase":0,"sequence":49,"prices":[175,187,163,209,180,188,176,165,154,208],"times":[395,512,725],"next_num":3,"trial_type":"ticket-choose","trial_index":69,"time_elapsed":614799,"internal_node_id":"0.0-69.0"},{"responses":[{"value":7,"offby":6,"category":"$115 - $130","category_index":0},{"value":15,"offby":10,"category":"$131 - $145","category_index":1},{"value":24,"offby":12,"category":"$146 - $160","category_index":2},{"value":30,"offby":8,"category":"$161 - $175","category_index":3},{"value":10,"offby":-24,"category":"$176 - $190","category_index":4},{"value":8,"offby":-7,"category":"$191 - $205","category_index":5},{"value":6,"offby":-5,"category":"$206 - $220","category_index":6}],"phase":1,"number":1,"trial_type":"bar-choose","trial_index":70,"time_elapsed":639784,"internal_node_id":"0.0-70.0"},{"rt":5705,"url":"\/christiane\/tickets\/utils\/testing2.html","trial_type":"point_update","trial_index":71,"time_elapsed":646814,"internal_node_id":"0.0-71.0"},{"phase":1,"order":[21,46,39,11,33,36,8,34,38,45,35,13,4,20,31,47,3,12,30,32,28,25,43,0,17,24,26,19,14,6,42,18,2,22,16,41,9,49,40,23,10,27,7,1,15,37,44,5,48,29],"trial_type":"store_order","trial_index":72,"time_elapsed":647816,"internal_node_id":"0.0-72.0"},{"result":153,"points":3,"place":0,"phase":1,"sequence":0,"prices":[177,175,186,221,158,180,187,166,209,153],"times":[2889,350,389,424,489,471,467,464,526,488],"next_num":10,"trial_type":"ticket-choose","trial_index":73,"time_elapsed":658395,"internal_node_id":"0.0-73.0"},{"result":208,"points":0,"place":6,"phase":1,"sequence":1,"prices":[214,184,226,192,215,158,199,175,176,208],"times":[8327,565,697,695,495,448,399,469,479,600],"next_num":10,"trial_type":"ticket-choose","trial_index":74,"time_elapsed":675655,"internal_node_id":"0.0-74.0"},{"result":171,"points":1,"place":3,"phase":1,"sequence":2,"prices":[189,167,180,197,165,168,172,213,178,171],"times":[594,7842,534,480,783,453,461,457,502,508],"next_num":10,"trial_type":"ticket-choose","trial_index":75,"time_elapsed":692010,"internal_node_id":"0.0-75.0"},{"result":153,"points":3,"place":0,"phase":1,"sequence":3,"prices":[177,174,186,217,165,181,187,166,153,209],"times":[2039,415,353,431,823,510,415,809,836],"next_num":9,"trial_type":"ticket-choose","trial_index":76,"time_elapsed":703003,"internal_node_id":"0.0-76.0"},{"result":191,"points":0,"place":8,"phase":1,"sequence":4,"prices":[183,179,188,165,168,173,205,159,187,191],"times":[3987,349,435,607,343,367,509,456,454,499],"next_num":10,"trial_type":"ticket-choose","trial_index":77,"time_elapsed":714702,"internal_node_id":"0.0-77.0"},{"result":154,"points":3,"place":0,"phase":1,"sequence":5,"prices":[187,201,165,172,196,174,178,154,172,180],"times":[538,493,616,433,438,481,694,720],"next_num":8,"trial_type":"ticket-choose","trial_index":78,"time_elapsed":722230,"internal_node_id":"0.0-78.0"},{"result":153,"points":3,"place":0,"phase":1,"sequence":6,"prices":[165,174,186,212,177,181,187,166,153,209],"times":[1001,391,390,510,385,376,577,1439,674],"next_num":9,"trial_type":"ticket-choose","trial_index":79,"time_elapsed":731262,"internal_node_id":"0.0-79.0"},{"result":195,"points":0,"place":8,"phase":1,"sequence":7,"prices":[180,156,149,160,168,186,172,198,176,195],"times":[439,430,376,460,429,293,313,429,430,812],"next_num":10,"trial_type":"ticket-choose","trial_index":80,"time_elapsed":739184,"internal_node_id":"0.0-80.0"},{"result":166,"points":1,"place":2,"phase":1,"sequence":8,"prices":[163,199,196,199,185,195,227,163,177,166],"times":[432,455,615,1061,511,510,520,681,538,504],"next_num":10,"trial_type":"ticket-choose","trial_index":81,"time_elapsed":748573,"internal_node_id":"0.0-81.0"},{"result":170,"points":1,"place":2,"phase":1,"sequence":9,"prices":[199,191,188,174,167,193,189,164,176,170],"times":[613,480,667,485,600,484,454,704,525,547],"next_num":10,"trial_type":"ticket-choose","trial_index":82,"time_elapsed":757633,"internal_node_id":"0.0-82.0"},{"result":227,"points":0,"place":9,"phase":1,"sequence":10,"prices":[167,153,172,185,195,143,184,211,177,227],"times":[671,382,333,404,400,333,551,357,384,446],"next_num":10,"trial_type":"ticket-choose","trial_index":83,"time_elapsed":765414,"internal_node_id":"0.0-83.0"},{"result":165,"points":1,"place":2,"phase":1,"sequence":11,"prices":[163,175,187,209,176,180,188,165,154,208],"times":[415,472,416,405,399,492,582,952],"next_num":8,"trial_type":"ticket-choose","trial_index":84,"time_elapsed":772680,"internal_node_id":"0.0-84.0"},{"result":156,"points":3,"place":0,"phase":1,"sequence":12,"prices":[178,175,185,215,167,181,186,168,208,156],"times":[465,379,367,462,719,488,637,541,600,471],"next_num":10,"trial_type":"ticket-choose","trial_index":85,"time_elapsed":781336,"internal_node_id":"0.0-85.0"},{"result":153,"points":3,"place":0,"phase":1,"sequence":13,"prices":[158,176,187,210,177,181,187,165,208,153],"times":[527,417,531,515,541,560,446,944,569,441],"next_num":10,"trial_type":"ticket-choose","trial_index":86,"time_elapsed":790337,"internal_node_id":"0.0-86.0"},{"result":163,"points":2,"place":1,"phase":1,"sequence":14,"prices":[171,169,186,165,163,167,220,148,187,165],"times":[401,342,397,640,1001],"next_num":5,"trial_type":"ticket-choose","trial_index":87,"time_elapsed":795573,"internal_node_id":"0.0-87.0"},{"result":154,"points":2,"place":1,"phase":1,"sequence":15,"prices":[200,180,203,152,175,170,160,154,176,191],"times":[380,393,455,493,497,583,478,779],"next_num":8,"trial_type":"ticket-choose","trial_index":88,"time_elapsed":802746,"internal_node_id":"0.0-88.0"},{"result":156,"points":3,"place":0,"phase":1,"sequence":16,"prices":[178,174,186,217,167,181,188,168,208,156],"times":[400,352,375,470,640,520,511,448,516,496],"next_num":10,"trial_type":"ticket-choose","trial_index":89,"time_elapsed":810966,"internal_node_id":"0.0-89.0"},{"result":166,"points":1,"place":2,"phase":1,"sequence":17,"prices":[163,175,186,214,176,179,187,166,153,208],"times":[344,294,418,374,375,455,527,784],"next_num":8,"trial_type":"ticket-choose","trial_index":90,"time_elapsed":817650,"internal_node_id":"0.0-90.0"},{"result":157,"points":3,"place":0,"phase":1,"sequence":18,"prices":[191,170,182,165,175,182,203,157,195,200],"times":[391,272,310,327,373,395,685,851],"next_num":8,"trial_type":"ticket-choose","trial_index":91,"time_elapsed":824365,"internal_node_id":"0.0-91.0"},{"result":195,"points":0,"place":7,"phase":1,"sequence":19,"prices":[193,174,224,165,187,190,224,161,194,195],"times":[670,245,280,588,412,408,417,448,476,364],"next_num":10,"trial_type":"ticket-choose","trial_index":92,"time_elapsed":832137,"internal_node_id":"0.0-92.0"},{"result":202,"points":0,"place":8,"phase":1,"sequence":20,"prices":[196,171,170,184,187,165,211,169,201,202],"times":[356,316,241,296,313,365,462,375,348,464],"next_num":11,"trial_type":"ticket-choose","trial_index":93,"time_elapsed":839659,"internal_node_id":"0.0-93.0"},{"result":156,"points":3,"place":0,"phase":1,"sequence":21,"prices":[201,204,179,166,185,165,214,156,202,165],"times":[404,421,480,573,447,631,413,760],"next_num":8,"trial_type":"ticket-choose","trial_index":94,"time_elapsed":846793,"internal_node_id":"0.0-94.0"},{"result":157,"points":3,"place":0,"phase":1,"sequence":22,"prices":[201,187,157,184,198,179,188,185,178,170],"times":[438,343,1353],"next_num":3,"trial_type":"ticket-choose","trial_index":95,"time_elapsed":851060,"internal_node_id":"0.0-95.0"},{"result":156,"points":3,"place":0,"phase":1,"sequence":23,"prices":[167,174,186,211,178,181,188,168,208,156],"times":[360,429,495,486,481,447,473,526,479,414],"next_num":10,"trial_type":"ticket-choose","trial_index":96,"time_elapsed":859154,"internal_node_id":"0.0-96.0"},{"result":153,"points":3,"place":0,"phase":1,"sequence":24,"prices":[176,186,178,217,163,181,187,166,153,209],"times":[338,293,294,350,405,443,491,552,759],"next_num":9,"trial_type":"ticket-choose","trial_index":97,"time_elapsed":866354,"internal_node_id":"0.0-97.0"},{"result":184,"points":1,"place":4,"phase":1,"sequence":25,"prices":[193,181,175,181,185,165,224,199,218,184],"times":[358,404,240,228,245,242,232,515,422,343],"next_num":10,"trial_type":"ticket-choose","trial_index":98,"time_elapsed":873039,"internal_node_id":"0.0-98.0"},{"result":165,"points":1,"place":2,"phase":1,"sequence":26,"prices":[200,173,182,169,207,165,152,202,161,204],"times":[361,429,444,444,472,1048],"next_num":6,"trial_type":"ticket-choose","trial_index":99,"time_elapsed":878904,"internal_node_id":"0.0-99.0"},{"result":154,"points":3,"place":0,"phase":1,"sequence":27,"prices":[158,175,186,209,177,181,188,167,208,154],"times":[329,446,296,340,366,404,471,416,409,432],"next_num":10,"trial_type":"ticket-choose","trial_index":100,"time_elapsed":886297,"internal_node_id":"0.0-100.0"},{"result":153,"points":3,"place":0,"phase":1,"sequence":28,"prices":[163,174,186,212,176,181,187,166,153,209],"times":[373,376,372,292,416,526,597,682,1499],"next_num":9,"trial_type":"ticket-choose","trial_index":101,"time_elapsed":894869,"internal_node_id":"0.0-101.0"},{"result":153,"points":3,"place":0,"phase":1,"sequence":29,"prices":[165,175,186,214,177,179,187,166,153,208],"times":[665,382,406,406,436,383,601,784,604],"next_num":9,"trial_type":"ticket-choose","trial_index":102,"time_elapsed":902892,"internal_node_id":"0.0-102.0"},{"result":186,"points":1,"place":4,"phase":1,"sequence":30,"prices":[220,173,201,197,169,205,198,183,178,186],"times":[367,270,253,257,265,321,343,413,552,319],"next_num":10,"trial_type":"ticket-choose","trial_index":103,"time_elapsed":909678,"internal_node_id":"0.0-103.0"},{"result":153,"points":3,"place":0,"phase":1,"sequence":31,"prices":[158,175,186,211,177,180,187,166,209,153],"times":[355,439,316,319,366,374,410,484,419,348],"next_num":10,"trial_type":"ticket-choose","trial_index":104,"time_elapsed":917037,"internal_node_id":"0.0-104.0"},{"result":153,"points":3,"place":0,"phase":1,"sequence":32,"prices":[167,175,186,225,178,179,187,169,209,153],"times":[334,340,422,359,381,441,388,553,445,327],"next_num":10,"trial_type":"ticket-choose","trial_index":105,"time_elapsed":924497,"internal_node_id":"0.0-105.0"},{"result":154,"points":3,"place":0,"phase":1,"sequence":33,"prices":[177,175,186,209,158,181,188,167,208,154],"times":[392,472,485,364,823,293,446,406,445,348],"next_num":10,"trial_type":"ticket-choose","trial_index":106,"time_elapsed":932455,"internal_node_id":"0.0-106.0"},{"result":154,"points":3,"place":0,"phase":1,"sequence":34,"prices":[176,187,179,209,163,180,188,165,154,208],"times":[372,374,463,360,343,493,474,653,856],"next_num":9,"trial_type":"ticket-choose","trial_index":107,"time_elapsed":940028,"internal_node_id":"0.0-107.0"},{"result":135,"points":3,"place":0,"phase":1,"sequence":35,"prices":[200,207,155,158,156,168,167,135,178,177],"times":[365,293,246,502,320,431,360,792],"next_num":8,"trial_type":"ticket-choose","trial_index":108,"time_elapsed":946508,"internal_node_id":"0.0-108.0"},{"result":153,"points":3,"place":0,"phase":1,"sequence":36,"prices":[177,175,186,210,165,179,187,166,153,208],"times":[395,270,375,516,433,447,462,541,694],"next_num":9,"trial_type":"ticket-choose","trial_index":109,"time_elapsed":954265,"internal_node_id":"0.0-109.0"},{"result":184,"points":0,"place":7,"phase":1,"sequence":37,"prices":[173,163,185,181,166,148,160,185,176,184],"times":[463,303,254,303,270,363,366,471,648,937],"next_num":11,"trial_type":"ticket-choose","trial_index":110,"time_elapsed":962587,"internal_node_id":"0.0-110.0"},{"result":190,"points":0,"place":6,"phase":1,"sequence":38,"prices":[190,150,175,161,188,207,157,194,178,199],"times":[635],"next_num":1,"trial_type":"ticket-choose","trial_index":111,"time_elapsed":965317,"internal_node_id":"0.0-111.0"},{"result":153,"points":3,"place":0,"phase":1,"sequence":39,"prices":[177,176,187,225,158,181,187,165,208,153],"times":[862,436,343,567,1552,417,439,626,541,390],"next_num":10,"trial_type":"ticket-choose","trial_index":112,"time_elapsed":974942,"internal_node_id":"0.0-112.0"},{"result":208,"points":0,"place":8,"phase":1,"sequence":40,"prices":[177,175,187,209,165,180,188,165,154,208],"times":[410,342,334,478,494,470,491,1657,446,718],"next_num":10,"trial_type":"ticket-choose","trial_index":113,"time_elapsed":984412,"internal_node_id":"0.0-113.0"},{"result":197,"points":0,"place":8,"phase":1,"sequence":41,"prices":[192,172,171,178,188,165,217,168,195,197],"times":[408,455,358,311,369,295,424,396,486,736],"next_num":10,"trial_type":"ticket-choose","trial_index":114,"time_elapsed":992440,"internal_node_id":"0.0-114.0"},{"result":154,"points":3,"place":0,"phase":1,"sequence":42,"prices":[165,175,187,209,177,180,188,167,154,208],"times":[423,663,385,453,473,530,494,542,767],"next_num":9,"trial_type":"ticket-choose","trial_index":115,"time_elapsed":1000432,"internal_node_id":"0.0-115.0"},{"result":156,"points":3,"place":0,"phase":1,"sequence":43,"prices":[167,175,185,224,178,181,186,168,208,156],"times":[804,591,463,615,509,522,497,694,536,417],"next_num":10,"trial_type":"ticket-choose","trial_index":116,"time_elapsed":1009754,"internal_node_id":"0.0-116.0"},{"result":153,"points":3,"place":0,"phase":1,"sequence":44,"prices":[176,175,186,210,163,179,187,166,153,208],"times":[505,374,463,360,671,482,423,511,744],"next_num":9,"trial_type":"ticket-choose","trial_index":117,"time_elapsed":1017555,"internal_node_id":"0.0-117.0"},{"result":164,"points":2,"place":1,"phase":1,"sequence":45,"prices":[199,193,169,165,202,182,151,164,176,171],"times":[379,422,311,277,383,327,320,1585],"next_num":8,"trial_type":"ticket-choose","trial_index":118,"time_elapsed":1024996,"internal_node_id":"0.0-118.0"},{"result":149,"points":3,"place":0,"phase":1,"sequence":46,"prices":[181,159,149,175,185,151,163,174,178,207],"times":[729,567,900],"next_num":3,"trial_type":"ticket-choose","trial_index":119,"time_elapsed":1029429,"internal_node_id":"0.0-119.0"},{"result":153,"points":3,"place":0,"phase":1,"sequence":47,"prices":[178,175,186,212,167,179,187,169,209,153],"times":[926,3486,633,504,688,488,500,559,656,402],"next_num":10,"trial_type":"ticket-choose","trial_index":120,"time_elapsed":1041810,"internal_node_id":"0.0-120.0"},{"result":179,"points":1,"place":4,"phase":1,"sequence":48,"prices":[181,214,169,147,182,193,178,184,176,179],"times":[425,391,270,350,623,582,486,578,479,428],"next_num":10,"trial_type":"ticket-choose","trial_index":121,"time_elapsed":1049942,"internal_node_id":"0.0-121.0"},{"result":161,"points":2,"place":1,"phase":1,"sequence":49,"prices":[185,179,191,165,161,173,199,150,188,168],"times":[1059,464,687,727,1689],"next_num":5,"trial_type":"ticket-choose","trial_index":122,"time_elapsed":1057115,"internal_node_id":"0.0-122.0"},{"responses":[{"value":7,"offby":6,"category":"$115 - $130","category_index":0},{"value":10,"offby":5,"category":"$131 - $145","category_index":1},{"value":16,"offby":4,"category":"$146 - $160","category_index":2},{"value":22,"offby":0,"category":"$161 - $175","category_index":3},{"value":30,"offby":-4,"category":"$176 - $190","category_index":4},{"value":10,"offby":-5,"category":"$191 - $205","category_index":5},{"value":5,"offby":-6,"category":"$206 - $220","category_index":6}],"phase":1,"number":1,"trial_type":"bar-choose","trial_index":123,"time_elapsed":1083460,"internal_node_id":"0.0-123.0"},{"special_comment":"There was a pattern","trial_type":"special_sequence","trial_index":124,"time_elapsed":1092088,"internal_node_id":"0.0-124.0"},{"during":"Nothing","bonus":280,"trial_type":"final","trial_index":125,"time_elapsed":1109248,"internal_node_id":"0.0-125.0"}],"bonus":280}