{"start_time":"2017-05-24 15:55:24","end_time":"2017-05-24 16:36:59","points_phase0":109,"points_phase1":105,"phase_order":1,"age":28,"gender":"m","tries":1,"during":"Nothing","worker_id":"A1YTNGH5SMM2CJ","assignment_id":"3J4Q2Z4UTZWA41GSC50RKQGE58AWQG","data":[{"rt":5079,"url":"\/christiane\/tickets\/utils\/consent.html","trial_type":"html","trial_index":0,"time_elapsed":5236,"internal_node_id":"0.0-0.0"},{"age":28,"gender":"m","trial_type":"age","trial_index":1,"time_elapsed":19380,"internal_node_id":"0.0-1.0"},{"worker_id":"A1YTNGH5SMM2CJ","trial_type":"workerid","trial_index":2,"time_elapsed":103252,"internal_node_id":"0.0-2.0"},{"tries":1,"trial_type":"instructions_check","trial_index":3,"time_elapsed":436758,"internal_node_id":"0.0-3.0"},{"rt":28902,"url":"\/christiane\/tickets\/utils\/start.html","trial_type":"html","trial_index":4,"time_elapsed":466773,"internal_node_id":"0.0-4.0"},{"trial_type":"number-animation","trial_index":5,"time_elapsed":505277,"internal_node_id":"0.0-5.0"},{"phase":0,"sequence":0,"avg":181,"response":178,"trial_type":"training_avg","trial_index":6,"time_elapsed":642585,"internal_node_id":"0.0-6.0"},{"trial_type":"number-animation","trial_index":7,"time_elapsed":725677,"internal_node_id":"0.0-7.0"},{"phase":0,"sequence":1,"avg":188,"response":189,"trial_type":"training_avg","trial_index":8,"time_elapsed":767836,"internal_node_id":"0.0-8.0"},{"trial_type":"number-animation","trial_index":9,"time_elapsed":815627,"internal_node_id":"0.0-9.0"},{"phase":0,"sequence":2,"avg":188,"response":184,"trial_type":"training_avg","trial_index":10,"time_elapsed":868691,"internal_node_id":"0.0-10.0"},{"trial_type":"number-animation","trial_index":11,"time_elapsed":904155,"internal_node_id":"0.0-11.0"},{"phase":0,"sequence":3,"avg":177,"response":182,"trial_type":"training_avg","trial_index":12,"time_elapsed":914812,"internal_node_id":"0.0-12.0"},{"trial_type":"number-animation","trial_index":13,"time_elapsed":934410,"internal_node_id":"0.0-13.0"},{"phase":0,"sequence":4,"avg":182,"response":186,"trial_type":"training_avg","trial_index":14,"time_elapsed":944719,"internal_node_id":"0.0-14.0"},{"responses":[{"value":2,"offby":1,"category":"$115 - $130","category_index":0},{"value":5,"offby":0,"category":"$131 - $145","category_index":1},{"value":10,"offby":-2,"category":"$146 - $160","category_index":2},{"value":13,"offby":-9,"category":"$161 - $175","category_index":3},{"value":33,"offby":-1,"category":"$176 - $190","category_index":4},{"value":21,"offby":6,"category":"$191 - $205","category_index":5},{"value":16,"offby":5,"category":"$206 - $220","category_index":6}],"phase":0,"number":0,"trial_type":"bar-choose","trial_index":15,"time_elapsed":1163575,"internal_node_id":"0.0-15.0"},{"rt":33551,"url":"\/christiane\/tickets\/utils\/testing.html","trial_type":"html","trial_index":16,"time_elapsed":1198238,"internal_node_id":"0.0-16.0"},{"phase":0,"order":[30,17,10,24,14,12,2,23,44,21,32,33,43,39,49,38,29,27,8,37,16,13,9,28,26,19,45,15,22,6,41,25,34,1,7,5,48,31,3,40,35,11,46,47,0,20,36,18,4,42],"trial_type":"store_order","trial_index":17,"time_elapsed":1199245,"internal_node_id":"0.0-17.0"},{"result":165,"points":2,"place":1,"phase":0,"sequence":-1,"prices":[184,180,224,165,181,199,185,193,218,146],"times":[2719,798,1490,2526],"next_num":4,"trial_type":"ticket-choose","trial_index":18,"time_elapsed":1211119,"internal_node_id":"0.0-18.0"},{"rt":66580,"url":"\/christiane\/tickets\/utils\/testing_after.html","trial_type":"html","trial_index":19,"time_elapsed":1278806,"internal_node_id":"0.0-19.0"},{"result":165,"points":1,"place":2,"phase":0,"sequence":0,"prices":[199,193,169,165,202,182,151,164,176,171],"times":[3935,1371,2754,1814],"next_num":4,"trial_type":"ticket-choose","trial_index":20,"time_elapsed":1294694,"internal_node_id":"0.0-20.0"},{"result":165,"points":1,"place":2,"phase":0,"sequence":1,"prices":[185,179,191,165,161,173,199,150,188,168],"times":[1782,896,542,2726],"next_num":4,"trial_type":"ticket-choose","trial_index":21,"time_elapsed":1304089,"internal_node_id":"0.0-21.0"},{"result":164,"points":3,"place":0,"phase":0,"sequence":2,"prices":[199,191,188,174,167,193,189,164,176,170],"times":[781,548,482,472,735,595,990,1537],"next_num":8,"trial_type":"ticket-choose","trial_index":22,"time_elapsed":1315156,"internal_node_id":"0.0-22.0"},{"result":165,"points":2,"place":1,"phase":0,"sequence":3,"prices":[177,175,186,210,165,179,187,166,153,208],"times":[995,437,575,642,1403],"next_num":5,"trial_type":"ticket-choose","trial_index":23,"time_elapsed":1322595,"internal_node_id":"0.0-23.0"},{"result":157,"points":3,"place":0,"phase":0,"sequence":4,"prices":[201,187,157,184,198,179,188,185,178,170],"times":[848,506,1812],"next_num":3,"trial_type":"ticket-choose","trial_index":24,"time_elapsed":1329179,"internal_node_id":"0.0-24.0"},{"result":165,"points":1,"place":2,"phase":0,"sequence":5,"prices":[200,173,182,169,207,165,152,202,161,204],"times":[664,584,517,798,450,1344],"next_num":6,"trial_type":"ticket-choose","trial_index":25,"time_elapsed":1338522,"internal_node_id":"0.0-25.0"},{"result":163,"points":2,"place":1,"phase":0,"sequence":6,"prices":[176,175,186,210,163,179,187,166,153,208],"times":[597,389,444,524,1443],"next_num":5,"trial_type":"ticket-choose","trial_index":26,"time_elapsed":1345391,"internal_node_id":"0.0-26.0"},{"result":157,"points":3,"place":0,"phase":0,"sequence":7,"prices":[191,170,182,165,175,182,203,157,195,200],"times":[729,371,446,839,416,514,545,1573],"next_num":8,"trial_type":"ticket-choose","trial_index":27,"time_elapsed":1354884,"internal_node_id":"0.0-27.0"},{"result":158,"points":3,"place":0,"phase":0,"sequence":8,"prices":[214,184,226,192,215,158,199,175,176,208],"times":[619,426,408,496,672,1380],"next_num":6,"trial_type":"ticket-choose","trial_index":28,"time_elapsed":1362455,"internal_node_id":"0.0-28.0"},{"result":163,"points":2,"place":1,"phase":0,"sequence":9,"prices":[176,186,178,217,163,181,187,166,153,209],"times":[761,380,393,510,1509],"next_num":5,"trial_type":"ticket-choose","trial_index":29,"time_elapsed":1369534,"internal_node_id":"0.0-29.0"},{"result":152,"points":3,"place":0,"phase":0,"sequence":10,"prices":[200,180,203,152,175,170,160,154,176,191],"times":[641,388,387,1310],"next_num":4,"trial_type":"ticket-choose","trial_index":30,"time_elapsed":1375498,"internal_node_id":"0.0-30.0"},{"result":148,"points":3,"place":0,"phase":0,"sequence":11,"prices":[171,169,186,165,163,167,220,148,187,165],"times":[1408,843,550,1203,365,564,492,1467],"next_num":8,"trial_type":"ticket-choose","trial_index":31,"time_elapsed":1386298,"internal_node_id":"0.0-31.0"},{"result":143,"points":3,"place":0,"phase":0,"sequence":12,"prices":[167,153,172,185,195,143,184,211,177,227],"times":[742,467,475,504,540,1615],"next_num":6,"trial_type":"ticket-choose","trial_index":32,"time_elapsed":1394736,"internal_node_id":"0.0-32.0"},{"result":147,"points":3,"place":0,"phase":0,"sequence":13,"prices":[181,214,169,147,182,193,178,184,176,179],"times":[1460,563,768,1397],"next_num":4,"trial_type":"ticket-choose","trial_index":33,"time_elapsed":1402242,"internal_node_id":"0.0-33.0"},{"result":155,"points":2,"place":1,"phase":0,"sequence":14,"prices":[200,207,155,158,156,168,167,135,178,177],"times":[944,564,1685],"next_num":3,"trial_type":"ticket-choose","trial_index":34,"time_elapsed":1408253,"internal_node_id":"0.0-34.0"},{"result":153,"points":3,"place":0,"phase":0,"sequence":15,"prices":[163,174,186,212,176,181,187,166,153,209],"times":[702,525,533,524,482,531,509,540,1294],"next_num":9,"trial_type":"ticket-choose","trial_index":35,"time_elapsed":1417984,"internal_node_id":"0.0-35.0"},{"result":148,"points":3,"place":0,"phase":0,"sequence":16,"prices":[173,163,185,181,166,148,160,185,176,184],"times":[1228,660,614,447,599,1179],"next_num":6,"trial_type":"ticket-choose","trial_index":36,"time_elapsed":1426429,"internal_node_id":"0.0-36.0"},{"result":156,"points":3,"place":0,"phase":0,"sequence":17,"prices":[167,174,186,211,178,181,188,168,208,156],"times":[1157,756,523,936,566,564,494,924,1235,1402],"next_num":10,"trial_type":"ticket-choose","trial_index":37,"time_elapsed":1439793,"internal_node_id":"0.0-37.0"},{"result":165,"points":1,"place":2,"phase":0,"sequence":18,"prices":[163,175,187,209,176,180,188,165,154,208],"times":[1978,467,523,491,549,527,547,1388],"next_num":8,"trial_type":"ticket-choose","trial_index":38,"time_elapsed":1450379,"internal_node_id":"0.0-38.0"},{"result":158,"points":2,"place":1,"phase":0,"sequence":19,"prices":[177,175,186,221,158,180,187,166,209,153],"times":[735,513,508,545,1382],"next_num":5,"trial_type":"ticket-choose","trial_index":39,"time_elapsed":1457228,"internal_node_id":"0.0-39.0"},{"result":156,"points":3,"place":0,"phase":0,"sequence":20,"prices":[201,204,179,166,185,165,214,156,202,165],"times":[1075,473,481,613,649,1037,524,1539],"next_num":8,"trial_type":"ticket-choose","trial_index":40,"time_elapsed":1467566,"internal_node_id":"0.0-40.0"},{"result":159,"points":3,"place":0,"phase":0,"sequence":21,"prices":[183,179,188,165,168,173,205,159,187,191],"times":[1225,521,597,1164,591,485,541,1490],"next_num":8,"trial_type":"ticket-choose","trial_index":41,"time_elapsed":1478253,"internal_node_id":"0.0-41.0"},{"result":156,"points":2,"place":1,"phase":0,"sequence":22,"prices":[180,156,149,160,168,186,172,198,176,195],"times":[1298,1670],"next_num":2,"trial_type":"ticket-choose","trial_index":42,"time_elapsed":1484130,"internal_node_id":"0.0-42.0"},{"result":154,"points":3,"place":0,"phase":0,"sequence":23,"prices":[165,175,187,209,177,180,188,167,154,208],"times":[626,472,427,515,449,495,508,538,1508],"next_num":9,"trial_type":"ticket-choose","trial_index":43,"time_elapsed":1493685,"internal_node_id":"0.0-43.0"},{"result":158,"points":2,"place":1,"phase":0,"sequence":24,"prices":[158,176,187,210,177,181,187,165,208,153],"times":[3155],"next_num":1,"trial_type":"ticket-choose","trial_index":44,"time_elapsed":1499454,"internal_node_id":"0.0-44.0"},{"result":154,"points":3,"place":0,"phase":0,"sequence":25,"prices":[177,175,187,209,165,180,188,165,154,208],"times":[1299,466,426,500,435,515,549,1083,1256],"next_num":9,"trial_type":"ticket-choose","trial_index":45,"time_elapsed":1509993,"internal_node_id":"0.0-45.0"},{"result":159,"points":1,"place":2,"phase":0,"sequence":26,"prices":[181,159,149,175,185,151,163,174,178,207],"times":[1039,1502],"next_num":2,"trial_type":"ticket-choose","trial_index":46,"time_elapsed":1515461,"internal_node_id":"0.0-46.0"},{"result":186,"points":1,"place":4,"phase":0,"sequence":27,"prices":[220,173,201,197,169,205,198,183,178,186],"times":[815,597,827,530,450,492,862,898,875,1051],"next_num":10,"trial_type":"ticket-choose","trial_index":47,"time_elapsed":1528016,"internal_node_id":"0.0-47.0"},{"result":158,"points":2,"place":1,"phase":0,"sequence":28,"prices":[158,175,186,209,177,181,188,167,208,154],"times":[1549],"next_num":1,"trial_type":"ticket-choose","trial_index":48,"time_elapsed":1531883,"internal_node_id":"0.0-48.0"},{"result":156,"points":3,"place":0,"phase":0,"sequence":29,"prices":[178,174,186,217,167,181,188,168,208,156],"times":[545,445,467,479,690,515,483,771,1052,1167],"next_num":10,"trial_type":"ticket-choose","trial_index":49,"time_elapsed":1542969,"internal_node_id":"0.0-49.0"},{"result":202,"points":0,"place":8,"phase":0,"sequence":30,"prices":[196,171,170,184,187,165,211,169,201,202],"times":[865,864,724,526,483,1972,456,875,539,1218],"next_num":10,"trial_type":"ticket-choose","trial_index":50,"time_elapsed":1556142,"internal_node_id":"0.0-50.0"},{"result":165,"points":2,"place":1,"phase":0,"sequence":31,"prices":[187,201,165,172,196,174,178,154,172,180],"times":[643,505,1189],"next_num":3,"trial_type":"ticket-choose","trial_index":51,"time_elapsed":1561301,"internal_node_id":"0.0-51.0"},{"result":163,"points":3,"place":0,"phase":0,"sequence":32,"prices":[163,199,196,199,185,195,227,163,177,166],"times":[1849,401,421,388,500,531,721,1350],"next_num":8,"trial_type":"ticket-choose","trial_index":52,"time_elapsed":1571549,"internal_node_id":"0.0-52.0"},{"result":166,"points":1,"place":2,"phase":0,"sequence":33,"prices":[165,174,186,212,177,181,187,166,153,209],"times":[2228,404,420,467,475,580,525,1915],"next_num":8,"trial_type":"ticket-choose","trial_index":53,"time_elapsed":1582337,"internal_node_id":"0.0-53.0"},{"result":158,"points":2,"place":1,"phase":0,"sequence":34,"prices":[177,176,187,225,158,181,187,165,208,153],"times":[702,365,443,499,1305],"next_num":5,"trial_type":"ticket-choose","trial_index":54,"time_elapsed":1588914,"internal_node_id":"0.0-54.0"},{"result":165,"points":3,"place":0,"phase":0,"sequence":35,"prices":[193,181,175,181,185,165,224,199,218,184],"times":[567,651,391,537,543,2312],"next_num":6,"trial_type":"ticket-choose","trial_index":55,"time_elapsed":1597739,"internal_node_id":"0.0-55.0"},{"result":168,"points":1,"place":2,"phase":0,"sequence":36,"prices":[167,175,185,224,178,181,186,168,208,156],"times":[780,245,1085,481,442,540,659,1590],"next_num":8,"trial_type":"ticket-choose","trial_index":56,"time_elapsed":1607420,"internal_node_id":"0.0-56.0"},{"result":165,"points":2,"place":1,"phase":0,"sequence":37,"prices":[177,174,186,217,165,181,187,166,153,209],"times":[929,509,519,490,1626],"next_num":5,"trial_type":"ticket-choose","trial_index":57,"time_elapsed":1614697,"internal_node_id":"0.0-57.0"},{"result":161,"points":3,"place":0,"phase":0,"sequence":38,"prices":[193,174,224,165,187,190,224,161,194,195],"times":[779,555,501,1273,372,512,530,1385],"next_num":8,"trial_type":"ticket-choose","trial_index":58,"time_elapsed":1624482,"internal_node_id":"0.0-58.0"},{"result":158,"points":2,"place":1,"phase":0,"sequence":39,"prices":[177,175,186,209,158,181,188,167,208,154],"times":[737,540,537,541,1483],"next_num":5,"trial_type":"ticket-choose","trial_index":59,"time_elapsed":1631664,"internal_node_id":"0.0-59.0"},{"result":166,"points":1,"place":2,"phase":0,"sequence":40,"prices":[163,175,186,214,176,179,187,166,153,208],"times":[3496,355,508,403,427,475,537,1442],"next_num":8,"trial_type":"ticket-choose","trial_index":60,"time_elapsed":1643168,"internal_node_id":"0.0-60.0"},{"result":169,"points":1,"place":2,"phase":0,"sequence":41,"prices":[167,175,186,225,178,179,187,169,209,153],"times":[1007,509,390,460,445,717,764,2062],"next_num":8,"trial_type":"ticket-choose","trial_index":61,"time_elapsed":1653525,"internal_node_id":"0.0-61.0"},{"result":150,"points":3,"place":0,"phase":0,"sequence":42,"prices":[190,150,175,161,188,207,157,194,178,199],"times":[1958,1279],"next_num":2,"trial_type":"ticket-choose","trial_index":62,"time_elapsed":1659509,"internal_node_id":"0.0-62.0"},{"result":165,"points":3,"place":0,"phase":0,"sequence":43,"prices":[189,167,180,197,165,168,172,213,178,171],"times":[845,859,465,475,1369],"next_num":5,"trial_type":"ticket-choose","trial_index":63,"time_elapsed":1667136,"internal_node_id":"0.0-63.0"},{"result":168,"points":1,"place":2,"phase":0,"sequence":44,"prices":[178,175,185,215,167,181,186,168,208,156],"times":[1836,387,555,427,1310,432,564,1528],"next_num":8,"trial_type":"ticket-choose","trial_index":64,"time_elapsed":1678497,"internal_node_id":"0.0-64.0"},{"result":167,"points":2,"place":1,"phase":0,"sequence":45,"prices":[178,175,186,212,167,179,187,169,209,153],"times":[691,450,518,570,2381],"next_num":5,"trial_type":"ticket-choose","trial_index":65,"time_elapsed":1686412,"internal_node_id":"0.0-65.0"},{"result":165,"points":2,"place":1,"phase":0,"sequence":46,"prices":[165,175,186,214,177,179,187,166,153,208],"times":[1866],"next_num":1,"trial_type":"ticket-choose","trial_index":66,"time_elapsed":1690799,"internal_node_id":"0.0-66.0"},{"result":163,"points":2,"place":1,"phase":0,"sequence":47,"prices":[176,187,179,209,163,180,188,165,154,208],"times":[585,536,395,442,1343],"next_num":5,"trial_type":"ticket-choose","trial_index":67,"time_elapsed":1697534,"internal_node_id":"0.0-67.0"},{"result":165,"points":3,"place":0,"phase":0,"sequence":48,"prices":[192,172,171,178,188,165,217,168,195,197],"times":[680,420,450,501,1042,1370],"next_num":6,"trial_type":"ticket-choose","trial_index":68,"time_elapsed":1705676,"internal_node_id":"0.0-68.0"},{"result":158,"points":2,"place":1,"phase":0,"sequence":49,"prices":[158,175,186,211,177,180,187,166,209,153],"times":[1718],"next_num":1,"trial_type":"ticket-choose","trial_index":69,"time_elapsed":1709967,"internal_node_id":"0.0-69.0"},{"responses":[{"value":0,"offby":-1,"category":"$115 - $130","category_index":0},{"value":0,"offby":-5,"category":"$131 - $145","category_index":1},{"value":9,"offby":-3,"category":"$146 - $160","category_index":2},{"value":25,"offby":3,"category":"$161 - $175","category_index":3},{"value":33,"offby":-1,"category":"$176 - $190","category_index":4},{"value":19,"offby":4,"category":"$191 - $205","category_index":5},{"value":14,"offby":3,"category":"$206 - $220","category_index":6}],"phase":1,"number":1,"trial_type":"bar-choose","trial_index":70,"time_elapsed":1785345,"internal_node_id":"0.0-70.0"},{"rt":33283,"url":"\/christiane\/tickets\/utils\/testing2.html","trial_type":"point_update","trial_index":71,"time_elapsed":1819869,"internal_node_id":"0.0-71.0"},{"phase":1,"order":[37,29,45,9,43,26,15,30,46,17,47,31,35,48,41,14,49,0,13,21,25,33,34,7,20,10,44,42,19,3,28,36,38,8,23,24,1,11,32,22,12,2,40,39,4,5,6,16,27,18],"trial_type":"store_order","trial_index":72,"time_elapsed":1820881,"internal_node_id":"0.0-72.0"},{"result":165,"points":3,"place":0,"phase":1,"sequence":0,"prices":[191,172,169,175,182,203,170,195,165,176],"times":[1755,849,707,490,473,541,981,728,1535],"next_num":9,"trial_type":"ticket-choose","trial_index":73,"time_elapsed":1833389,"internal_node_id":"0.0-73.0"},{"result":163,"points":2,"place":1,"phase":1,"sequence":1,"prices":[174,186,176,217,181,187,163,166,153,209],"times":[837,498,442,522,530,491,1351],"next_num":7,"trial_type":"ticket-choose","trial_index":74,"time_elapsed":1841708,"internal_node_id":"0.0-74.0"},{"result":165,"points":2,"place":1,"phase":1,"sequence":2,"prices":[175,187,177,209,180,188,165,165,154,208],"times":[1327,843,828,492,492,451,1386],"next_num":7,"trial_type":"ticket-choose","trial_index":75,"time_elapsed":1851142,"internal_node_id":"0.0-75.0"},{"result":184,"points":1,"place":4,"phase":1,"sequence":3,"prices":[193,165,175,181,185,224,180,199,218,184],"times":[652,1436,413,407,425,417,692,586,565,1106],"next_num":10,"trial_type":"ticket-choose","trial_index":76,"time_elapsed":1862208,"internal_node_id":"0.0-76.0"},{"result":163,"points":2,"place":1,"phase":1,"sequence":4,"prices":[174,186,163,212,181,187,176,166,153,209],"times":[586,500,1210],"next_num":3,"trial_type":"ticket-choose","trial_index":77,"time_elapsed":1867184,"internal_node_id":"0.0-77.0"},{"result":163,"points":2,"place":1,"phase":1,"sequence":5,"prices":[175,186,163,214,179,187,176,166,153,208],"times":[753,437,1188],"next_num":3,"trial_type":"ticket-choose","trial_index":78,"time_elapsed":1872320,"internal_node_id":"0.0-78.0"},{"result":153,"points":3,"place":0,"phase":1,"sequence":6,"prices":[175,186,167,225,179,187,178,169,209,153],"times":[793,428,491,388,523,538,868,997,993,1037],"next_num":10,"trial_type":"ticket-choose","trial_index":79,"time_elapsed":1883973,"internal_node_id":"0.0-79.0"},{"result":158,"points":2,"place":1,"phase":1,"sequence":7,"prices":[176,187,177,225,181,187,158,165,208,153],"times":[778,436,442,537,532,521,1202],"next_num":7,"trial_type":"ticket-choose","trial_index":80,"time_elapsed":1892246,"internal_node_id":"0.0-80.0"},{"result":159,"points":1,"place":2,"phase":1,"sequence":8,"prices":[180,159,149,175,185,141,163,174,178,207],"times":[803,1355],"next_num":2,"trial_type":"ticket-choose","trial_index":81,"time_elapsed":1896989,"internal_node_id":"0.0-81.0"},{"result":158,"points":2,"place":1,"phase":1,"sequence":9,"prices":[175,186,177,221,180,187,158,166,209,153],"times":[583,461,419,460,465,486,1283],"next_num":7,"trial_type":"ticket-choose","trial_index":82,"time_elapsed":1904766,"internal_node_id":"0.0-82.0"},{"result":165,"points":3,"place":0,"phase":1,"sequence":10,"prices":[193,169,171,187,190,224,174,194,165,188],"times":[615,728,357,427,500,474,413,778,1241],"next_num":9,"trial_type":"ticket-choose","trial_index":83,"time_elapsed":1914421,"internal_node_id":"0.0-83.0"},{"result":167,"points":2,"place":1,"phase":1,"sequence":11,"prices":[183,182,192,168,173,205,167,187,165,170],"times":[845,462,530,1406,452,530,1547],"next_num":7,"trial_type":"ticket-choose","trial_index":84,"time_elapsed":1923757,"internal_node_id":"0.0-84.0"},{"result":157,"points":3,"place":0,"phase":1,"sequence":12,"prices":[201,187,157,184,198,179,188,185,178,170],"times":[891,2357,1440],"next_num":3,"trial_type":"ticket-choose","trial_index":85,"time_elapsed":1931104,"internal_node_id":"0.0-85.0"},{"result":167,"points":2,"place":1,"phase":1,"sequence":13,"prices":[189,167,180,197,165,168,172,213,178,171],"times":[1506,1977],"next_num":2,"trial_type":"ticket-choose","trial_index":86,"time_elapsed":1937004,"internal_node_id":"0.0-86.0"},{"result":163,"points":1,"place":2,"phase":1,"sequence":14,"prices":[183,163,185,180,166,148,160,186,176,184],"times":[781,1567],"next_num":2,"trial_type":"ticket-choose","trial_index":87,"time_elapsed":1941837,"internal_node_id":"0.0-87.0"},{"result":163,"points":3,"place":0,"phase":1,"sequence":15,"prices":[168,199,196,198,185,195,227,163,177,166],"times":[652,351,448,343,394,420,482,1528],"next_num":8,"trial_type":"ticket-choose","trial_index":88,"time_elapsed":1950200,"internal_node_id":"0.0-88.0"},{"result":165,"points":3,"place":0,"phase":1,"sequence":16,"prices":[185,170,182,201,173,199,171,188,165,168],"times":[844,496,573,530,521,534,566,520,1722],"next_num":9,"trial_type":"ticket-choose","trial_index":89,"time_elapsed":1960445,"internal_node_id":"0.0-89.0"},{"result":165,"points":3,"place":0,"phase":1,"sequence":17,"prices":[192,165,171,178,188,217,172,195,197,186],"times":[1774,1328],"next_num":2,"trial_type":"ticket-choose","trial_index":90,"time_elapsed":1966080,"internal_node_id":"0.0-90.0"},{"result":165,"points":2,"place":1,"phase":1,"sequence":18,"prices":[174,186,165,212,181,187,177,167,153,209],"times":[707,548,1298],"next_num":3,"trial_type":"ticket-choose","trial_index":91,"time_elapsed":1971513,"internal_node_id":"0.0-91.0"},{"result":152,"points":3,"place":0,"phase":1,"sequence":19,"prices":[198,193,169,163,202,182,152,164,177,171],"times":[808,541,1027,395,555,473,1327],"next_num":7,"trial_type":"ticket-choose","trial_index":92,"time_elapsed":1980805,"internal_node_id":"0.0-92.0"},{"result":163,"points":2,"place":1,"phase":1,"sequence":20,"prices":[175,187,176,209,180,188,163,165,154,208],"times":[1318,403,444,507,1276,666,1267],"next_num":7,"trial_type":"ticket-choose","trial_index":93,"time_elapsed":1990435,"internal_node_id":"0.0-93.0"},{"result":163,"points":2,"place":1,"phase":1,"sequence":21,"prices":[175,187,163,209,180,188,176,165,154,208],"times":[889,463,1172],"next_num":3,"trial_type":"ticket-choose","trial_index":94,"time_elapsed":1995719,"internal_node_id":"0.0-94.0"},{"result":165,"points":2,"place":1,"phase":1,"sequence":22,"prices":[175,186,177,210,179,187,165,166,153,208],"times":[634,444,472,525,508,500,1563],"next_num":7,"trial_type":"ticket-choose","trial_index":95,"time_elapsed":2004090,"internal_node_id":"0.0-95.0"},{"result":185,"points":1,"place":4,"phase":1,"sequence":23,"prices":[196,165,170,184,187,211,171,201,202,185],"times":[884,995,437,520,433,504,586,522,711,977],"next_num":10,"trial_type":"ticket-choose","trial_index":96,"time_elapsed":2015065,"internal_node_id":"0.0-96.0"},{"result":165,"points":2,"place":1,"phase":1,"sequence":24,"prices":[200,165,165,173,182,207,161,202,204,180],"times":[889,1306],"next_num":2,"trial_type":"ticket-choose","trial_index":97,"time_elapsed":2019713,"internal_node_id":"0.0-97.0"},{"result":167,"points":1,"place":2,"phase":1,"sequence":25,"prices":[175,186,158,209,181,188,177,167,208,154],"times":[5036,433,525,463,486,498,706,1581],"next_num":8,"trial_type":"ticket-choose","trial_index":98,"time_elapsed":2033481,"internal_node_id":"0.0-98.0"},{"result":164,"points":3,"place":0,"phase":1,"sequence":26,"prices":[212,192,188,184,167,193,189,164,176,170],"times":[641,502,612,629,978,716,547,1358],"next_num":8,"trial_type":"ticket-choose","trial_index":99,"time_elapsed":2043262,"internal_node_id":"0.0-99.0"},{"result":163,"points":2,"place":1,"phase":1,"sequence":27,"prices":[175,186,176,210,179,187,163,166,153,208],"times":[709,531,509,847,553,833,1385],"next_num":7,"trial_type":"ticket-choose","trial_index":100,"time_elapsed":2052621,"internal_node_id":"0.0-100.0"},{"result":158,"points":2,"place":1,"phase":1,"sequence":28,"prices":[175,186,177,209,181,188,158,167,208,154],"times":[844,510,476,500,522,501,1264],"next_num":7,"trial_type":"ticket-choose","trial_index":101,"time_elapsed":2060886,"internal_node_id":"0.0-101.0"},{"result":166,"points":1,"place":2,"phase":1,"sequence":29,"prices":[175,186,165,214,179,187,177,166,153,208],"times":[676,550,986,444,451,627,653,1273],"next_num":8,"trial_type":"ticket-choose","trial_index":102,"time_elapsed":2070305,"internal_node_id":"0.0-102.0"},{"result":155,"points":2,"place":1,"phase":1,"sequence":30,"prices":[201,207,155,158,156,165,167,135,178,177],"times":[531,466,1266],"next_num":3,"trial_type":"ticket-choose","trial_index":103,"time_elapsed":2075330,"internal_node_id":"0.0-103.0"},{"result":165,"points":2,"place":1,"phase":1,"sequence":31,"prices":[201,165,162,166,185,214,165,202,204,179],"times":[661,1345],"next_num":2,"trial_type":"ticket-choose","trial_index":104,"time_elapsed":2079801,"internal_node_id":"0.0-104.0"},{"result":194,"points":0,"place":8,"phase":1,"sequence":32,"prices":[181,155,148,161,168,187,172,199,176,194],"times":[630,491,426,631,601,775,573,897,854,904],"next_num":10,"trial_type":"ticket-choose","trial_index":105,"time_elapsed":2091035,"internal_node_id":"0.0-105.0"},{"result":167,"points":2,"place":1,"phase":1,"sequence":33,"prices":[175,185,167,224,181,186,178,168,208,156],"times":[740,533,1740],"next_num":3,"trial_type":"ticket-choose","trial_index":106,"time_elapsed":2096706,"internal_node_id":"0.0-106.0"},{"result":165,"points":2,"place":1,"phase":1,"sequence":34,"prices":[175,187,165,209,180,188,177,166,154,208],"times":[635,547,2093],"next_num":3,"trial_type":"ticket-choose","trial_index":107,"time_elapsed":2102784,"internal_node_id":"0.0-107.0"},{"result":169,"points":1,"place":2,"phase":1,"sequence":35,"prices":[175,186,178,212,179,187,167,169,209,153],"times":[716,497,666,518,554,565,962,1821],"next_num":8,"trial_type":"ticket-choose","trial_index":108,"time_elapsed":2112818,"internal_node_id":"0.0-108.0"},{"result":179,"points":1,"place":4,"phase":1,"sequence":36,"prices":[181,215,169,147,182,193,177,184,176,179],"times":[621,653,669,502,585,629,602,802,1311,832],"next_num":10,"trial_type":"ticket-choose","trial_index":109,"time_elapsed":2124018,"internal_node_id":"0.0-109.0"},{"result":165,"points":3,"place":0,"phase":1,"sequence":37,"prices":[171,203,175,170,167,220,192,186,165,165],"times":[591,526,539,482,499,539,779,869,1393],"next_num":9,"trial_type":"ticket-choose","trial_index":110,"time_elapsed":2133998,"internal_node_id":"0.0-110.0"},{"result":167,"points":2,"place":1,"phase":1,"sequence":38,"prices":[174,186,178,217,181,188,167,168,208,156],"times":[738,548,517,598,604,1476,1314],"next_num":7,"trial_type":"ticket-choose","trial_index":111,"time_elapsed":2143241,"internal_node_id":"0.0-111.0"},{"result":150,"points":3,"place":0,"phase":1,"sequence":39,"prices":[189,150,175,160,188,207,158,194,178,199],"times":[1722,1466],"next_num":2,"trial_type":"ticket-choose","trial_index":112,"time_elapsed":2149062,"internal_node_id":"0.0-112.0"},{"result":154,"points":2,"place":1,"phase":1,"sequence":40,"prices":[168,154,172,185,195,144,184,211,177,227],"times":[657,1327],"next_num":2,"trial_type":"ticket-choose","trial_index":113,"time_elapsed":2153487,"internal_node_id":"0.0-113.0"},{"result":153,"points":3,"place":0,"phase":1,"sequence":41,"prices":[174,186,177,217,181,187,165,166,153,209],"times":[999,541,522,548,554,543,1722,848,1329],"next_num":9,"trial_type":"ticket-choose","trial_index":114,"time_elapsed":2165087,"internal_node_id":"0.0-114.0"},{"result":158,"points":3,"place":0,"phase":1,"sequence":42,"prices":[210,184,226,193,215,158,199,175,176,208],"times":[1089,620,587,811,555,1399],"next_num":6,"trial_type":"ticket-choose","trial_index":115,"time_elapsed":2173662,"internal_node_id":"0.0-115.0"},{"result":152,"points":3,"place":0,"phase":1,"sequence":43,"prices":[200,181,203,152,175,171,160,154,176,191],"times":[1619,556,539,1397],"next_num":4,"trial_type":"ticket-choose","trial_index":116,"time_elapsed":2180893,"internal_node_id":"0.0-116.0"},{"result":168,"points":1,"place":2,"phase":1,"sequence":44,"prices":[174,186,167,211,181,188,178,168,208,156],"times":[4395,571,1187,483,573,570,738,1651],"next_num":8,"trial_type":"ticket-choose","trial_index":117,"time_elapsed":2195085,"internal_node_id":"0.0-117.0"},{"result":158,"points":2,"place":1,"phase":1,"sequence":45,"prices":[176,187,158,210,181,187,177,165,208,153],"times":[991,541,1219],"next_num":3,"trial_type":"ticket-choose","trial_index":118,"time_elapsed":2200786,"internal_node_id":"0.0-118.0"},{"result":165,"points":2,"place":1,"phase":1,"sequence":46,"prices":[188,200,165,172,198,174,177,154,177,180],"times":[1567,540,1157],"next_num":3,"trial_type":"ticket-choose","trial_index":119,"time_elapsed":2207207,"internal_node_id":"0.0-119.0"},{"result":158,"points":2,"place":1,"phase":1,"sequence":47,"prices":[175,186,158,211,180,187,177,166,209,153],"times":[2007,521,1342],"next_num":3,"trial_type":"ticket-choose","trial_index":120,"time_elapsed":2214082,"internal_node_id":"0.0-120.0"},{"result":156,"points":3,"place":0,"phase":1,"sequence":48,"prices":[175,185,178,215,181,186,167,168,208,156],"times":[1360,466,494,1002,557,611,955,1335,761,1156],"next_num":10,"trial_type":"ticket-choose","trial_index":121,"time_elapsed":2229487,"internal_node_id":"0.0-121.0"},{"result":143,"points":3,"place":0,"phase":1,"sequence":49,"prices":[222,173,202,197,143,205,198,183,178,186],"times":[3888,632,504,560,1344],"next_num":5,"trial_type":"ticket-choose","trial_index":122,"time_elapsed":2240045,"internal_node_id":"0.0-122.0"},{"responses":[{"value":0,"offby":-1,"category":"$115 - $130","category_index":0},{"value":2,"offby":-3,"category":"$131 - $145","category_index":1},{"value":12,"offby":0,"category":"$146 - $160","category_index":2},{"value":20,"offby":-2,"category":"$161 - $175","category_index":3},{"value":24,"offby":-10,"category":"$176 - $190","category_index":4},{"value":22,"offby":7,"category":"$191 - $205","category_index":5},{"value":20,"offby":9,"category":"$206 - $220","category_index":6}],"phase":1,"number":1,"trial_type":"bar-choose","trial_index":123,"time_elapsed":2333606,"internal_node_id":"0.0-123.0"},{"special_comment":"The choices very rarely began with the lowest price or lower pricing in general.","trial_type":"special_sequence","trial_index":124,"time_elapsed":2417221,"internal_node_id":"0.0-124.0"},{"during":"Nothing","bonus":284,"trial_type":"final","trial_index":125,"time_elapsed":2492048,"internal_node_id":"0.0-125.0"}],"bonus":284}