{"start_time":"2017-05-24 12:57:56","end_time":"2017-05-24 13:24:55","points_phase0":111,"points_phase1":122,"phase_order":0,"age":48,"gender":"f","tries":1,"during":"Nothing","worker_id":"A1Z6F664MYBMVI","assignment_id":"31Q0U3WYDQ87XIVAJI20R99P44T71C","data":[{"rt":14239,"url":"\/christiane\/tickets\/utils\/consent.html","trial_type":"html","trial_index":0,"time_elapsed":14456,"internal_node_id":"0.0-0.0"},{"age":48,"gender":"f","trial_type":"age","trial_index":1,"time_elapsed":22140,"internal_node_id":"0.0-1.0"},{"worker_id":"A1Z6F664MYBMVI","trial_type":"workerid","trial_index":2,"time_elapsed":190822,"internal_node_id":"0.0-2.0"},{"tries":1,"trial_type":"instructions_check","trial_index":3,"time_elapsed":215163,"internal_node_id":"0.0-3.0"},{"rt":18232,"url":"\/christiane\/tickets\/utils\/start.html","trial_type":"html","trial_index":4,"time_elapsed":234505,"internal_node_id":"0.0-4.0"},{"trial_type":"number-animation","trial_index":5,"time_elapsed":250825,"internal_node_id":"0.0-5.0"},{"phase":0,"sequence":0,"avg":181,"response":175,"trial_type":"training_avg","trial_index":6,"time_elapsed":261705,"internal_node_id":"0.0-6.0"},{"trial_type":"number-animation","trial_index":7,"time_elapsed":311443,"internal_node_id":"0.0-7.0"},{"phase":0,"sequence":1,"avg":188,"response":185,"trial_type":"training_avg","trial_index":8,"time_elapsed":326996,"internal_node_id":"0.0-8.0"},{"trial_type":"number-animation","trial_index":9,"time_elapsed":348836,"internal_node_id":"0.0-9.0"},{"phase":0,"sequence":2,"avg":188,"response":195,"trial_type":"training_avg","trial_index":10,"time_elapsed":359902,"internal_node_id":"0.0-10.0"},{"trial_type":"number-animation","trial_index":11,"time_elapsed":373613,"internal_node_id":"0.0-11.0"},{"phase":0,"sequence":3,"avg":177,"response":175,"trial_type":"training_avg","trial_index":12,"time_elapsed":384431,"internal_node_id":"0.0-12.0"},{"trial_type":"number-animation","trial_index":13,"time_elapsed":396007,"internal_node_id":"0.0-13.0"},{"phase":0,"sequence":4,"avg":182,"response":175,"trial_type":"training_avg","trial_index":14,"time_elapsed":403968,"internal_node_id":"0.0-14.0"},{"responses":[{"value":0,"offby":-1,"category":"$115 - $130","category_index":0},{"value":10,"offby":5,"category":"$131 - $145","category_index":1},{"value":30,"offby":18,"category":"$146 - $160","category_index":2},{"value":25,"offby":3,"category":"$161 - $175","category_index":3},{"value":25,"offby":-9,"category":"$176 - $190","category_index":4},{"value":10,"offby":-5,"category":"$191 - $205","category_index":5},{"value":0,"offby":-11,"category":"$206 - $220","category_index":6}],"phase":0,"number":0,"trial_type":"bar-choose","trial_index":15,"time_elapsed":475897,"internal_node_id":"0.0-15.0"},{"rt":18313,"url":"\/christiane\/tickets\/utils\/testing.html","trial_type":"html","trial_index":16,"time_elapsed":495362,"internal_node_id":"0.0-16.0"},{"phase":0,"order":[6,48,33,26,1,43,5,11,4,44,20,13,9,14,27,16,31,25,28,24,42,3,22,35,17,18,32,38,37,12,49,29,21,8,0,15,45,19,10,46,23,39,7,41,2,34,47,40,30,36],"trial_type":"store_order","trial_index":17,"time_elapsed":496370,"internal_node_id":"0.0-17.0"},{"result":165,"points":2,"place":1,"phase":0,"sequence":-1,"prices":[184,180,224,165,181,199,185,193,218,146],"times":[2638,1476,1113,3436],"next_num":4,"trial_type":"ticket-choose","trial_index":18,"time_elapsed":508811,"internal_node_id":"0.0-18.0"},{"rt":24308,"url":"\/christiane\/tickets\/utils\/testing_after.html","trial_type":"html","trial_index":19,"time_elapsed":534244,"internal_node_id":"0.0-19.0"},{"result":165,"points":2,"place":1,"phase":0,"sequence":0,"prices":[175,186,165,214,179,187,177,166,153,208],"times":[2748,1121,2460],"next_num":3,"trial_type":"ticket-choose","trial_index":20,"time_elapsed":544277,"internal_node_id":"0.0-20.0"},{"result":147,"points":3,"place":0,"phase":0,"sequence":1,"prices":[181,215,169,147,182,193,177,184,176,179],"times":[1294,814,854,1387],"next_num":4,"trial_type":"ticket-choose","trial_index":21,"time_elapsed":552026,"internal_node_id":"0.0-21.0"},{"result":167,"points":2,"place":1,"phase":0,"sequence":2,"prices":[183,182,192,168,173,205,167,187,165,170],"times":[1198,612,661,1230,697,699,2513],"next_num":7,"trial_type":"ticket-choose","trial_index":22,"time_elapsed":563563,"internal_node_id":"0.0-22.0"},{"result":165,"points":2,"place":1,"phase":0,"sequence":3,"prices":[200,165,165,173,182,207,161,202,204,180],"times":[2079,2059,1286],"next_num":3,"trial_type":"ticket-choose","trial_index":23,"time_elapsed":572131,"internal_node_id":"0.0-23.0"},{"result":168,"points":1,"place":2,"phase":0,"sequence":4,"prices":[175,185,167,224,181,186,178,168,208,156],"times":[1748,643,954,632,787,683,796,2836],"next_num":8,"trial_type":"ticket-choose","trial_index":24,"time_elapsed":587492,"internal_node_id":"0.0-24.0"},{"result":157,"points":3,"place":0,"phase":0,"sequence":5,"prices":[201,187,157,184,198,179,188,185,178,170],"times":[2719,578,1014],"next_num":3,"trial_type":"ticket-choose","trial_index":25,"time_elapsed":594668,"internal_node_id":"0.0-25.0"},{"result":167,"points":2,"place":1,"phase":0,"sequence":6,"prices":[175,186,178,212,179,187,167,169,209,153],"times":[1030,579,637,674,606,669,989],"next_num":7,"trial_type":"ticket-choose","trial_index":26,"time_elapsed":603390,"internal_node_id":"0.0-26.0"},{"result":165,"points":2,"place":1,"phase":0,"sequence":7,"prices":[174,186,177,217,181,187,165,166,153,209],"times":[1205,533,572,588,581,573,1067],"next_num":7,"trial_type":"ticket-choose","trial_index":27,"time_elapsed":612205,"internal_node_id":"0.0-27.0"},{"result":156,"points":3,"place":0,"phase":0,"sequence":8,"prices":[175,185,178,215,181,186,167,168,208,156],"times":[1067,541,554,593,579,651,733,922,687,1413],"next_num":10,"trial_type":"ticket-choose","trial_index":28,"time_elapsed":624414,"internal_node_id":"0.0-28.0"},{"result":159,"points":1,"place":2,"phase":0,"sequence":9,"prices":[180,159,149,175,185,141,163,174,178,207],"times":[1654,1222],"next_num":2,"trial_type":"ticket-choose","trial_index":29,"time_elapsed":630829,"internal_node_id":"0.0-29.0"},{"result":153,"points":3,"place":0,"phase":0,"sequence":10,"prices":[176,187,158,210,181,187,177,165,208,153],"times":[1393,588,717,596,553,568,563,574,587,1223],"next_num":10,"trial_type":"ticket-choose","trial_index":30,"time_elapsed":643518,"internal_node_id":"0.0-30.0"},{"result":154,"points":3,"place":0,"phase":0,"sequence":11,"prices":[175,187,163,209,180,188,176,165,154,208],"times":[1287,530,548,636,557,549,803,1309,1158],"next_num":9,"trial_type":"ticket-choose","trial_index":31,"time_elapsed":654912,"internal_node_id":"0.0-31.0"},{"result":153,"points":3,"place":0,"phase":0,"sequence":12,"prices":[175,186,177,210,179,187,165,166,153,208],"times":[1021,526,552,605,584,692,941,1339,1057],"next_num":9,"trial_type":"ticket-choose","trial_index":32,"time_elapsed":666113,"internal_node_id":"0.0-32.0"},{"result":153,"points":3,"place":0,"phase":0,"sequence":13,"prices":[174,186,163,212,181,187,176,166,153,209],"times":[1026,693,1426,660,941,626,610,885,1012],"next_num":9,"trial_type":"ticket-choose","trial_index":33,"time_elapsed":677928,"internal_node_id":"0.0-33.0"},{"result":186,"points":1,"place":4,"phase":0,"sequence":14,"prices":[192,165,171,178,188,217,172,195,197,186],"times":[2452,596,565,646,565,548,1029,604,1013,2628],"next_num":10,"trial_type":"ticket-choose","trial_index":34,"time_elapsed":694088,"internal_node_id":"0.0-34.0"},{"result":163,"points":2,"place":1,"phase":0,"sequence":15,"prices":[175,187,176,209,180,188,163,165,154,208],"times":[1066,561,644,613,701,636,1029],"next_num":7,"trial_type":"ticket-choose","trial_index":35,"time_elapsed":703304,"internal_node_id":"0.0-35.0"},{"result":167,"points":1,"place":2,"phase":0,"sequence":16,"prices":[171,203,175,170,167,220,192,186,165,165],"times":[1149,588,559,534,1162],"next_num":5,"trial_type":"ticket-choose","trial_index":36,"time_elapsed":710305,"internal_node_id":"0.0-36.0"},{"result":179,"points":1,"place":4,"phase":0,"sequence":17,"prices":[201,165,162,166,185,214,165,202,204,179],"times":[1950,1834,650,739,741,648,1235,722,605,1556],"next_num":10,"trial_type":"ticket-choose","trial_index":37,"time_elapsed":725186,"internal_node_id":"0.0-37.0"},{"result":185,"points":1,"place":4,"phase":0,"sequence":18,"prices":[196,165,170,184,187,211,171,201,202,185],"times":[1245,558,742,582,563,623,562,756,654,1602],"next_num":10,"trial_type":"ticket-choose","trial_index":38,"time_elapsed":737602,"internal_node_id":"0.0-38.0"},{"result":165,"points":3,"place":0,"phase":0,"sequence":19,"prices":[193,165,175,181,185,224,180,199,218,184],"times":[964,918],"next_num":2,"trial_type":"ticket-choose","trial_index":39,"time_elapsed":742321,"internal_node_id":"0.0-39.0"},{"result":143,"points":3,"place":0,"phase":0,"sequence":20,"prices":[222,173,202,197,143,205,198,183,178,186],"times":[1640,1061,637,742,1048],"next_num":5,"trial_type":"ticket-choose","trial_index":40,"time_elapsed":750467,"internal_node_id":"0.0-40.0"},{"result":167,"points":2,"place":1,"phase":0,"sequence":21,"prices":[174,186,178,217,181,188,167,168,208,156],"times":[1074,708,609,789,973,605,936],"next_num":7,"trial_type":"ticket-choose","trial_index":41,"time_elapsed":759547,"internal_node_id":"0.0-41.0"},{"result":158,"points":2,"place":1,"phase":0,"sequence":22,"prices":[175,186,177,209,181,188,158,167,208,154],"times":[1322,651,569,621,587,604,1125],"next_num":7,"trial_type":"ticket-choose","trial_index":42,"time_elapsed":768650,"internal_node_id":"0.0-42.0"},{"result":154,"points":2,"place":1,"phase":0,"sequence":23,"prices":[168,154,172,185,195,144,184,211,177,227],"times":[1565,1057],"next_num":2,"trial_type":"ticket-choose","trial_index":43,"time_elapsed":774054,"internal_node_id":"0.0-43.0"},{"result":163,"points":2,"place":1,"phase":0,"sequence":24,"prices":[174,186,176,217,181,187,163,166,153,209],"times":[6671,727,626,894,803,825,1101],"next_num":7,"trial_type":"ticket-choose","trial_index":44,"time_elapsed":789099,"internal_node_id":"0.0-44.0"},{"result":158,"points":2,"place":1,"phase":0,"sequence":25,"prices":[175,186,158,211,180,187,177,166,209,153],"times":[1159,1396,1126],"next_num":3,"trial_type":"ticket-choose","trial_index":45,"time_elapsed":795347,"internal_node_id":"0.0-45.0"},{"result":165,"points":3,"place":0,"phase":0,"sequence":26,"prices":[193,169,171,187,190,224,174,194,165,188],"times":[1440,842,588,627,556,743,680,693,1023],"next_num":9,"trial_type":"ticket-choose","trial_index":46,"time_elapsed":806645,"internal_node_id":"0.0-46.0"},{"result":163,"points":3,"place":0,"phase":0,"sequence":27,"prices":[168,199,196,198,185,195,227,163,177,166],"times":[1725,600,636,544,603,580,621,1133],"next_num":8,"trial_type":"ticket-choose","trial_index":47,"time_elapsed":816716,"internal_node_id":"0.0-47.0"},{"result":163,"points":2,"place":1,"phase":0,"sequence":28,"prices":[198,193,169,163,202,182,152,164,177,171],"times":[1677,642,677,1076],"next_num":4,"trial_type":"ticket-choose","trial_index":48,"time_elapsed":823590,"internal_node_id":"0.0-48.0"},{"result":163,"points":2,"place":1,"phase":0,"sequence":29,"prices":[175,186,163,214,179,187,176,166,153,208],"times":[1304,780,1052],"next_num":3,"trial_type":"ticket-choose","trial_index":49,"time_elapsed":829236,"internal_node_id":"0.0-49.0"},{"result":163,"points":1,"place":2,"phase":0,"sequence":30,"prices":[183,163,185,180,166,148,160,186,176,184],"times":[1184,1587],"next_num":2,"trial_type":"ticket-choose","trial_index":50,"time_elapsed":834556,"internal_node_id":"0.0-50.0"},{"result":165,"points":3,"place":0,"phase":0,"sequence":31,"prices":[185,170,182,201,173,199,171,188,165,168],"times":[767,546,543,614,638,730,622,584,1445],"next_num":9,"trial_type":"ticket-choose","trial_index":51,"time_elapsed":845047,"internal_node_id":"0.0-51.0"},{"result":158,"points":2,"place":1,"phase":0,"sequence":32,"prices":[175,186,177,221,180,187,158,166,209,153],"times":[2281,765,603,540,565,643,1102],"next_num":7,"trial_type":"ticket-choose","trial_index":52,"time_elapsed":854924,"internal_node_id":"0.0-52.0"},{"result":153,"points":3,"place":0,"phase":0,"sequence":33,"prices":[174,186,165,212,181,187,177,167,153,209],"times":[1122,713,1533,595,571,838,552,1276,1332],"next_num":9,"trial_type":"ticket-choose","trial_index":53,"time_elapsed":867358,"internal_node_id":"0.0-53.0"},{"result":156,"points":3,"place":0,"phase":0,"sequence":34,"prices":[174,186,167,211,181,188,178,168,208,156],"times":[1933,430,476,524,532,677,620,2525,621,973],"next_num":10,"trial_type":"ticket-choose","trial_index":54,"time_elapsed":880767,"internal_node_id":"0.0-54.0"},{"result":163,"points":2,"place":1,"phase":0,"sequence":35,"prices":[175,186,176,210,179,187,163,166,153,208],"times":[1266,492,532,589,593,623,1206],"next_num":7,"trial_type":"ticket-choose","trial_index":55,"time_elapsed":889581,"internal_node_id":"0.0-55.0"},{"result":164,"points":3,"place":0,"phase":0,"sequence":36,"prices":[212,192,188,184,167,193,189,164,176,170],"times":[1407,612,692,621,1917,611,570,1009],"next_num":8,"trial_type":"ticket-choose","trial_index":56,"time_elapsed":900566,"internal_node_id":"0.0-56.0"},{"result":158,"points":2,"place":1,"phase":0,"sequence":37,"prices":[175,186,158,209,181,188,177,167,208,154],"times":[2790,836,1044],"next_num":3,"trial_type":"ticket-choose","trial_index":57,"time_elapsed":907964,"internal_node_id":"0.0-57.0"},{"result":165,"points":2,"place":1,"phase":0,"sequence":38,"prices":[175,187,177,209,180,188,165,165,154,208],"times":[1210,603,540,616,621,558,2194],"next_num":7,"trial_type":"ticket-choose","trial_index":58,"time_elapsed":917662,"internal_node_id":"0.0-58.0"},{"result":158,"points":3,"place":0,"phase":0,"sequence":39,"prices":[210,184,226,193,215,158,199,175,176,208],"times":[1329,2852,959,610,995,1093],"next_num":6,"trial_type":"ticket-choose","trial_index":59,"time_elapsed":928809,"internal_node_id":"0.0-59.0"},{"result":158,"points":2,"place":1,"phase":0,"sequence":40,"prices":[176,187,177,225,181,187,158,165,208,153],"times":[822,488,460,548,598,525,1213],"next_num":7,"trial_type":"ticket-choose","trial_index":60,"time_elapsed":936791,"internal_node_id":"0.0-60.0"},{"result":171,"points":1,"place":3,"phase":0,"sequence":41,"prices":[189,167,180,197,165,168,172,213,178,171],"times":[1389,468,547,546,1388,612,602,614,580,645],"next_num":11,"trial_type":"ticket-choose","trial_index":61,"time_elapsed":950295,"internal_node_id":"0.0-61.0"},{"result":165,"points":2,"place":1,"phase":0,"sequence":42,"prices":[175,187,165,209,180,188,177,166,154,208],"times":[1220,559,1013],"next_num":3,"trial_type":"ticket-choose","trial_index":62,"time_elapsed":955607,"internal_node_id":"0.0-62.0"},{"result":158,"points":1,"place":3,"phase":0,"sequence":43,"prices":[201,207,155,158,156,165,167,135,178,177],"times":[1004,525,554,2528],"next_num":4,"trial_type":"ticket-choose","trial_index":63,"time_elapsed":963775,"internal_node_id":"0.0-63.0"},{"result":153,"points":3,"place":0,"phase":0,"sequence":44,"prices":[175,186,167,225,179,187,178,169,209,153],"times":[1359,653,648,725,621,621,924,1913,618,1036],"next_num":10,"trial_type":"ticket-choose","trial_index":64,"time_elapsed":977104,"internal_node_id":"0.0-64.0"},{"result":155,"points":2,"place":1,"phase":0,"sequence":45,"prices":[181,155,148,161,168,187,172,199,176,194],"times":[1534,1938],"next_num":2,"trial_type":"ticket-choose","trial_index":65,"time_elapsed":982879,"internal_node_id":"0.0-65.0"},{"result":152,"points":3,"place":0,"phase":0,"sequence":46,"prices":[200,181,203,152,175,171,160,154,176,191],"times":[1119,613,597,945],"next_num":4,"trial_type":"ticket-choose","trial_index":66,"time_elapsed":989415,"internal_node_id":"0.0-66.0"},{"result":150,"points":3,"place":0,"phase":0,"sequence":47,"prices":[189,150,175,160,188,207,158,194,178,199],"times":[1249,918],"next_num":2,"trial_type":"ticket-choose","trial_index":67,"time_elapsed":994423,"internal_node_id":"0.0-67.0"},{"result":165,"points":3,"place":0,"phase":0,"sequence":48,"prices":[191,172,169,175,182,203,170,195,165,176],"times":[1084,626,1168,658,605,642,673,650,2333],"next_num":9,"trial_type":"ticket-choose","trial_index":68,"time_elapsed":1007392,"internal_node_id":"0.0-68.0"},{"result":165,"points":2,"place":1,"phase":0,"sequence":49,"prices":[188,200,165,172,198,174,177,154,177,180],"times":[1164,586,960],"next_num":3,"trial_type":"ticket-choose","trial_index":69,"time_elapsed":1012729,"internal_node_id":"0.0-69.0"},{"responses":[{"value":0,"offby":-1,"category":"$115 - $130","category_index":0},{"value":0,"offby":-5,"category":"$131 - $145","category_index":1},{"value":25,"offby":13,"category":"$146 - $160","category_index":2},{"value":25,"offby":3,"category":"$161 - $175","category_index":3},{"value":30,"offby":-4,"category":"$176 - $190","category_index":4},{"value":20,"offby":5,"category":"$191 - $205","category_index":5},{"value":0,"offby":-11,"category":"$206 - $220","category_index":6}],"phase":1,"number":1,"trial_type":"bar-choose","trial_index":70,"time_elapsed":1085129,"internal_node_id":"0.0-70.0"},{"rt":18758,"url":"\/christiane\/tickets\/utils\/testing2.html","trial_type":"point_update","trial_index":71,"time_elapsed":1105134,"internal_node_id":"0.0-71.0"},{"phase":1,"order":[10,35,46,16,34,2,33,23,38,42,45,7,26,47,13,20,0,27,17,44,25,3,12,14,30,40,28,48,43,22,8,15,39,19,24,6,29,41,9,49,4,37,32,5,11,1,18,21,31,36],"trial_type":"store_order","trial_index":72,"time_elapsed":1106141,"internal_node_id":"0.0-72.0"},{"result":165,"points":2,"place":1,"phase":1,"sequence":0,"prices":[177,175,187,209,165,180,188,165,154,208],"times":[25492,628,661,665,1011],"next_num":5,"trial_type":"ticket-choose","trial_index":73,"time_elapsed":1137941,"internal_node_id":"0.0-73.0"},{"result":153,"points":2,"place":1,"phase":1,"sequence":1,"prices":[167,153,172,185,195,143,184,211,177,227],"times":[1173,940],"next_num":2,"trial_type":"ticket-choose","trial_index":74,"time_elapsed":1142372,"internal_node_id":"0.0-74.0"},{"result":158,"points":3,"place":0,"phase":1,"sequence":2,"prices":[214,184,226,192,215,158,199,175,176,208],"times":[818,572,635,604,677,1138],"next_num":6,"trial_type":"ticket-choose","trial_index":75,"time_elapsed":1149990,"internal_node_id":"0.0-75.0"},{"result":154,"points":3,"place":0,"phase":1,"sequence":3,"prices":[176,187,179,209,163,180,188,165,154,208],"times":[742,435,579,580,569,619,574,1108,1252],"next_num":9,"trial_type":"ticket-choose","trial_index":76,"time_elapsed":1160151,"internal_node_id":"0.0-76.0"},{"result":156,"points":2,"place":1,"phase":1,"sequence":4,"prices":[180,156,149,160,168,186,172,198,176,195],"times":[724,1402],"next_num":2,"trial_type":"ticket-choose","trial_index":77,"time_elapsed":1164696,"internal_node_id":"0.0-77.0"},{"result":153,"points":3,"place":0,"phase":1,"sequence":5,"prices":[167,175,186,225,178,179,187,169,209,153],"times":[1218,609,681,622,724,853,653,1124,700,885],"next_num":10,"trial_type":"ticket-choose","trial_index":78,"time_elapsed":1176823,"internal_node_id":"0.0-78.0"},{"result":165,"points":2,"place":1,"phase":1,"sequence":6,"prices":[183,179,188,165,168,173,205,159,187,191],"times":[1263,675,621,957],"next_num":4,"trial_type":"ticket-choose","trial_index":79,"time_elapsed":1183072,"internal_node_id":"0.0-79.0"},{"result":158,"points":2,"place":1,"phase":1,"sequence":7,"prices":[177,176,187,225,158,181,187,165,208,153],"times":[1081,634,597,627,1093],"next_num":5,"trial_type":"ticket-choose","trial_index":80,"time_elapsed":1190097,"internal_node_id":"0.0-80.0"},{"result":163,"points":3,"place":0,"phase":1,"sequence":8,"prices":[163,199,196,199,185,195,227,163,177,166],"times":[1237,602,644,612,691,741,1188,1044],"next_num":8,"trial_type":"ticket-choose","trial_index":81,"time_elapsed":1200531,"internal_node_id":"0.0-81.0"},{"result":169,"points":3,"place":0,"phase":1,"sequence":9,"prices":[220,173,201,197,169,205,198,183,178,186],"times":[760,613,559,574,2392],"next_num":5,"trial_type":"ticket-choose","trial_index":82,"time_elapsed":1208905,"internal_node_id":"0.0-82.0"},{"result":167,"points":2,"place":1,"phase":1,"sequence":10,"prices":[199,191,188,174,167,193,189,164,176,170],"times":[1134,539,562,523,1382],"next_num":5,"trial_type":"ticket-choose","trial_index":83,"time_elapsed":1216202,"internal_node_id":"0.0-83.0"},{"result":154,"points":3,"place":0,"phase":1,"sequence":11,"prices":[165,175,187,209,177,180,188,167,154,208],"times":[672,611,781,649,589,652,628,1948,977],"next_num":9,"trial_type":"ticket-choose","trial_index":84,"time_elapsed":1227538,"internal_node_id":"0.0-84.0"},{"result":169,"points":1,"place":3,"phase":1,"sequence":12,"prices":[200,173,182,169,207,165,152,202,161,204],"times":[1201,978,606,966],"next_num":4,"trial_type":"ticket-choose","trial_index":85,"time_elapsed":1234042,"internal_node_id":"0.0-85.0"},{"result":152,"points":3,"place":0,"phase":1,"sequence":13,"prices":[200,180,203,152,175,170,160,154,176,191],"times":[1205,578,540,1012],"next_num":4,"trial_type":"ticket-choose","trial_index":86,"time_elapsed":1240229,"internal_node_id":"0.0-86.0"},{"result":154,"points":3,"place":0,"phase":1,"sequence":14,"prices":[163,175,187,209,176,180,188,165,154,208],"times":[1248,545,528,571,637,572,613,940,1090],"next_num":9,"trial_type":"ticket-choose","trial_index":87,"time_elapsed":1251014,"internal_node_id":"0.0-87.0"},{"result":158,"points":2,"place":1,"phase":1,"sequence":15,"prices":[158,176,187,210,177,181,187,165,208,153],"times":[1271],"next_num":1,"trial_type":"ticket-choose","trial_index":88,"time_elapsed":1254426,"internal_node_id":"0.0-88.0"},{"result":156,"points":3,"place":0,"phase":1,"sequence":16,"prices":[167,174,186,211,178,181,188,168,208,156],"times":[897,555,611,581,983,589,620,920,613,916],"next_num":10,"trial_type":"ticket-choose","trial_index":89,"time_elapsed":1265748,"internal_node_id":"0.0-89.0"},{"result":165,"points":3,"place":0,"phase":1,"sequence":17,"prices":[192,172,171,178,188,165,217,168,195,197],"times":[920,611,562,635,596,1572],"next_num":6,"trial_type":"ticket-choose","trial_index":90,"time_elapsed":1274299,"internal_node_id":"0.0-90.0"},{"result":163,"points":2,"place":1,"phase":1,"sequence":18,"prices":[176,186,178,217,163,181,187,166,153,209],"times":[1446,604,624,705,1022],"next_num":5,"trial_type":"ticket-choose","trial_index":91,"time_elapsed":1281899,"internal_node_id":"0.0-91.0"},{"result":149,"points":3,"place":0,"phase":1,"sequence":19,"prices":[181,159,149,175,185,151,163,174,178,207],"times":[1416,569,1007],"next_num":3,"trial_type":"ticket-choose","trial_index":92,"time_elapsed":1287771,"internal_node_id":"0.0-92.0"},{"result":156,"points":3,"place":0,"phase":1,"sequence":20,"prices":[201,204,179,166,185,165,214,156,202,165],"times":[1230,569,581,700,555,893,683,1037],"next_num":8,"trial_type":"ticket-choose","trial_index":93,"time_elapsed":1297971,"internal_node_id":"0.0-93.0"},{"result":156,"points":3,"place":0,"phase":1,"sequence":21,"prices":[178,174,186,217,167,181,188,168,208,156],"times":[1741,629,622,610,639,612,621,596,613,1059],"next_num":10,"trial_type":"ticket-choose","trial_index":94,"time_elapsed":1309901,"internal_node_id":"0.0-94.0"},{"result":163,"points":2,"place":1,"phase":1,"sequence":22,"prices":[163,175,186,214,176,179,187,166,153,208],"times":[1382],"next_num":1,"trial_type":"ticket-choose","trial_index":95,"time_elapsed":1313620,"internal_node_id":"0.0-95.0"},{"result":163,"points":2,"place":1,"phase":1,"sequence":23,"prices":[163,174,186,212,176,181,187,166,153,209],"times":[1175],"next_num":1,"trial_type":"ticket-choose","trial_index":96,"time_elapsed":1317156,"internal_node_id":"0.0-96.0"},{"result":165,"points":2,"place":1,"phase":1,"sequence":24,"prices":[191,170,182,165,175,182,203,157,195,200],"times":[914,547,521,1022],"next_num":4,"trial_type":"ticket-choose","trial_index":97,"time_elapsed":1322885,"internal_node_id":"0.0-97.0"},{"result":150,"points":3,"place":0,"phase":1,"sequence":25,"prices":[190,150,175,161,188,207,157,194,178,199],"times":[1038,955],"next_num":2,"trial_type":"ticket-choose","trial_index":98,"time_elapsed":1327115,"internal_node_id":"0.0-98.0"},{"result":165,"points":3,"place":0,"phase":1,"sequence":26,"prices":[196,171,170,184,187,165,211,169,201,202],"times":[1617,716,535,771,585,1080],"next_num":6,"trial_type":"ticket-choose","trial_index":99,"time_elapsed":1335604,"internal_node_id":"0.0-99.0"},{"result":147,"points":3,"place":0,"phase":1,"sequence":27,"prices":[181,214,169,147,182,193,178,184,176,179],"times":[1658,593,589,982],"next_num":4,"trial_type":"ticket-choose","trial_index":100,"time_elapsed":1342142,"internal_node_id":"0.0-100.0"},{"result":170,"points":2,"place":1,"phase":1,"sequence":28,"prices":[201,187,157,184,198,179,188,185,178,170],"times":[1078,460,452,610,539,614,615,644,652,934],"next_num":10,"trial_type":"ticket-choose","trial_index":101,"time_elapsed":1352828,"internal_node_id":"0.0-101.0"},{"result":158,"points":2,"place":1,"phase":1,"sequence":29,"prices":[177,175,186,209,158,181,188,167,208,154],"times":[806,645,693,613,1117],"next_num":5,"trial_type":"ticket-choose","trial_index":102,"time_elapsed":1359860,"internal_node_id":"0.0-102.0"},{"result":166,"points":1,"place":2,"phase":1,"sequence":30,"prices":[165,174,186,212,177,181,187,166,153,209],"times":[1009,581,660,1574,724,621,597,1324],"next_num":8,"trial_type":"ticket-choose","trial_index":103,"time_elapsed":1370821,"internal_node_id":"0.0-103.0"},{"result":153,"points":3,"place":0,"phase":1,"sequence":31,"prices":[176,175,186,210,163,179,187,166,153,208],"times":[1429,597,635,620,581,587,573,1461,1003],"next_num":9,"trial_type":"ticket-choose","trial_index":104,"time_elapsed":1382142,"internal_node_id":"0.0-104.0"},{"result":165,"points":3,"place":0,"phase":1,"sequence":32,"prices":[189,167,180,197,165,168,172,213,178,171],"times":[1001,555,556,548,1029],"next_num":5,"trial_type":"ticket-choose","trial_index":105,"time_elapsed":1388865,"internal_node_id":"0.0-105.0"},{"result":158,"points":2,"place":1,"phase":1,"sequence":33,"prices":[158,175,186,209,177,181,188,167,208,154],"times":[1243],"next_num":1,"trial_type":"ticket-choose","trial_index":106,"time_elapsed":1392159,"internal_node_id":"0.0-106.0"},{"result":165,"points":3,"place":0,"phase":1,"sequence":34,"prices":[193,181,175,181,185,165,224,199,218,184],"times":[1371,581,852,597,630,1542],"next_num":6,"trial_type":"ticket-choose","trial_index":107,"time_elapsed":1401039,"internal_node_id":"0.0-107.0"},{"result":165,"points":2,"place":1,"phase":1,"sequence":35,"prices":[165,175,186,214,177,179,187,166,153,208],"times":[1221],"next_num":1,"trial_type":"ticket-choose","trial_index":108,"time_elapsed":1404311,"internal_node_id":"0.0-108.0"},{"result":165,"points":1,"place":2,"phase":1,"sequence":36,"prices":[185,179,191,165,161,173,199,150,188,168],"times":[1120,559,1002,1605],"next_num":4,"trial_type":"ticket-choose","trial_index":109,"time_elapsed":1411391,"internal_node_id":"0.0-109.0"},{"result":155,"points":2,"place":1,"phase":1,"sequence":37,"prices":[200,207,155,158,156,168,167,135,178,177],"times":[739,565,1293],"next_num":3,"trial_type":"ticket-choose","trial_index":110,"time_elapsed":1416511,"internal_node_id":"0.0-110.0"},{"result":165,"points":2,"place":1,"phase":1,"sequence":38,"prices":[177,175,186,210,165,179,187,166,153,208],"times":[1247,718,692,668,1135],"next_num":5,"trial_type":"ticket-choose","trial_index":111,"time_elapsed":1424034,"internal_node_id":"0.0-111.0"},{"result":163,"points":1,"place":2,"phase":1,"sequence":39,"prices":[173,163,185,181,166,148,160,185,176,184],"times":[1193,985],"next_num":2,"trial_type":"ticket-choose","trial_index":112,"time_elapsed":1428784,"internal_node_id":"0.0-112.0"},{"result":156,"points":3,"place":0,"phase":1,"sequence":40,"prices":[178,175,185,215,167,181,186,168,208,156],"times":[882,588,573,671,794,624,658,651,750,1038],"next_num":10,"trial_type":"ticket-choose","trial_index":113,"time_elapsed":1440336,"internal_node_id":"0.0-113.0"},{"result":151,"points":3,"place":0,"phase":1,"sequence":41,"prices":[199,193,169,165,202,182,151,164,176,171],"times":[964,621,870,1496,697,602,1010],"next_num":7,"trial_type":"ticket-choose","trial_index":114,"time_elapsed":1449938,"internal_node_id":"0.0-114.0"},{"result":161,"points":3,"place":0,"phase":1,"sequence":42,"prices":[193,174,224,165,187,190,224,161,194,195],"times":[1034,555,612,933,665,616,699,966],"next_num":8,"trial_type":"ticket-choose","trial_index":115,"time_elapsed":1459578,"internal_node_id":"0.0-115.0"},{"result":153,"points":3,"place":0,"phase":1,"sequence":43,"prices":[178,175,186,212,167,179,187,169,209,153],"times":[1266,611,893,636,965,596,597,904,772,829],"next_num":10,"trial_type":"ticket-choose","trial_index":116,"time_elapsed":1471578,"internal_node_id":"0.0-116.0"},{"result":153,"points":3,"place":0,"phase":1,"sequence":44,"prices":[177,174,186,217,165,181,187,166,153,209],"times":[1173,561,949,605,749,546,607,1490,1311],"next_num":9,"trial_type":"ticket-choose","trial_index":117,"time_elapsed":1483322,"internal_node_id":"0.0-117.0"},{"result":156,"points":3,"place":0,"phase":1,"sequence":45,"prices":[167,175,185,224,178,181,186,168,208,156],"times":[1064,604,619,630,611,828,611,621,638,845],"next_num":10,"trial_type":"ticket-choose","trial_index":118,"time_elapsed":1494499,"internal_node_id":"0.0-118.0"},{"result":158,"points":2,"place":1,"phase":1,"sequence":46,"prices":[158,175,186,211,177,180,187,166,209,153],"times":[1209],"next_num":1,"trial_type":"ticket-choose","trial_index":119,"time_elapsed":1497764,"internal_node_id":"0.0-119.0"},{"result":153,"points":3,"place":0,"phase":1,"sequence":47,"prices":[177,175,186,221,158,180,187,166,209,153],"times":[1213,556,516,589,556,1084,595,820,590,861],"next_num":10,"trial_type":"ticket-choose","trial_index":120,"time_elapsed":1509243,"internal_node_id":"0.0-120.0"},{"result":165,"points":1,"place":2,"phase":1,"sequence":48,"prices":[171,169,186,165,163,167,220,148,187,165],"times":[1373,516,613,1086,660,669,764,786,1555,1309],"next_num":10,"trial_type":"ticket-choose","trial_index":121,"time_elapsed":1522691,"internal_node_id":"0.0-121.0"},{"result":154,"points":3,"place":0,"phase":1,"sequence":49,"prices":[187,201,165,172,196,174,178,154,172,180],"times":[1345,549,717,589,578,612,620,1157],"next_num":8,"trial_type":"ticket-choose","trial_index":122,"time_elapsed":1532426,"internal_node_id":"0.0-122.0"},{"responses":[{"value":0,"offby":-1,"category":"$115 - $130","category_index":0},{"value":0,"offby":-5,"category":"$131 - $145","category_index":1},{"value":5,"offby":-7,"category":"$146 - $160","category_index":2},{"value":20,"offby":-2,"category":"$161 - $175","category_index":3},{"value":30,"offby":-4,"category":"$176 - $190","category_index":4},{"value":30,"offby":15,"category":"$191 - $205","category_index":5},{"value":15,"offby":4,"category":"$206 - $220","category_index":6}],"phase":1,"number":1,"trial_type":"bar-choose","trial_index":123,"time_elapsed":1566542,"internal_node_id":"0.0-123.0"},{"special_comment":"no","trial_type":"special_sequence","trial_index":124,"time_elapsed":1576360,"internal_node_id":"0.0-124.0"},{"during":"Nothing","bonus":312,"trial_type":"final","trial_index":125,"time_elapsed":1616176,"internal_node_id":"0.0-125.0"}],"bonus":312}