{"start_time":"2017-05-24 12:02:57","end_time":"2017-05-24 12:46:11","points_phase0":120,"points_phase1":110,"phase_order":1,"age":40,"gender":"f","tries":1,"during":"Nothing","worker_id":"A20ALQT1HIVSAH","assignment_id":"3NAPMVF0ZX8EM3D62M2EWSJUWA772T","data":[{"rt":6051,"url":"\/christiane\/tickets\/utils\/consent.html","trial_type":"html","trial_index":0,"time_elapsed":6143,"internal_node_id":"0.0-0.0"},{"age":40,"gender":"f","trial_type":"age","trial_index":1,"time_elapsed":12823,"internal_node_id":"0.0-1.0"},{"worker_id":"A20ALQT1HIVSAH","trial_type":"workerid","trial_index":2,"time_elapsed":21615,"internal_node_id":"0.0-2.0"},{"tries":1,"trial_type":"instructions_check","trial_index":3,"time_elapsed":859531,"internal_node_id":"0.0-3.0"},{"rt":5916,"url":"\/christiane\/tickets\/utils\/start.html","trial_type":"html","trial_index":4,"time_elapsed":866506,"internal_node_id":"0.0-4.0"},{"trial_type":"number-animation","trial_index":5,"time_elapsed":882219,"internal_node_id":"0.0-5.0"},{"phase":0,"sequence":0,"avg":181,"response":165,"trial_type":"training_avg","trial_index":6,"time_elapsed":889268,"internal_node_id":"0.0-6.0"},{"trial_type":"number-animation","trial_index":7,"time_elapsed":896443,"internal_node_id":"0.0-7.0"},{"phase":0,"sequence":1,"avg":188,"response":198,"trial_type":"training_avg","trial_index":8,"time_elapsed":908700,"internal_node_id":"0.0-8.0"},{"trial_type":"number-animation","trial_index":9,"time_elapsed":915595,"internal_node_id":"0.0-9.0"},{"phase":0,"sequence":2,"avg":188,"response":192,"trial_type":"training_avg","trial_index":10,"time_elapsed":922060,"internal_node_id":"0.0-10.0"},{"trial_type":"number-animation","trial_index":11,"time_elapsed":928147,"internal_node_id":"0.0-11.0"},{"phase":0,"sequence":3,"avg":177,"response":177,"trial_type":"training_avg","trial_index":12,"time_elapsed":933180,"internal_node_id":"0.0-12.0"},{"trial_type":"number-animation","trial_index":13,"time_elapsed":940755,"internal_node_id":"0.0-13.0"},{"phase":0,"sequence":4,"avg":182,"response":186,"trial_type":"training_avg","trial_index":14,"time_elapsed":947155,"internal_node_id":"0.0-14.0"},{"responses":[{"value":0,"offby":-1,"category":"$115 - $130","category_index":0},{"value":0,"offby":-5,"category":"$131 - $145","category_index":1},{"value":10,"offby":-2,"category":"$146 - $160","category_index":2},{"value":30,"offby":8,"category":"$161 - $175","category_index":3},{"value":50,"offby":16,"category":"$176 - $190","category_index":4},{"value":10,"offby":-5,"category":"$191 - $205","category_index":5},{"value":0,"offby":-11,"category":"$206 - $220","category_index":6}],"phase":0,"number":0,"trial_type":"bar-choose","trial_index":15,"time_elapsed":984387,"internal_node_id":"0.0-15.0"},{"rt":37330,"url":"\/christiane\/tickets\/utils\/testing.html","trial_type":"html","trial_index":16,"time_elapsed":1022779,"internal_node_id":"0.0-16.0"},{"phase":0,"order":[33,13,49,7,38,1,35,30,40,19,16,2,21,5,4,28,45,31,17,34,42,26,12,14,46,36,20,37,23,6,39,10,24,27,8,22,43,3,18,9,44,47,41,25,15,32,0,29,11,48],"trial_type":"store_order","trial_index":17,"time_elapsed":1023780,"internal_node_id":"0.0-17.0"},{"result":165,"points":2,"place":1,"phase":0,"sequence":-1,"prices":[184,180,224,165,181,199,185,193,218,146],"times":[1965,587,644,1757],"next_num":4,"trial_type":"ticket-choose","trial_index":18,"time_elapsed":1032051,"internal_node_id":"0.0-18.0"},{"rt":10231,"url":"\/christiane\/tickets\/utils\/testing_after.html","trial_type":"html","trial_index":19,"time_elapsed":1043339,"internal_node_id":"0.0-19.0"},{"result":165,"points":1,"place":2,"phase":0,"sequence":0,"prices":[185,179,191,165,161,173,199,150,188,168],"times":[1214,508,549,1468],"next_num":4,"trial_type":"ticket-choose","trial_index":20,"time_elapsed":1050171,"internal_node_id":"0.0-20.0"},{"result":158,"points":2,"place":1,"phase":0,"sequence":1,"prices":[177,176,187,225,158,181,187,165,208,153],"times":[1101,526,1387,668,973],"next_num":5,"trial_type":"ticket-choose","trial_index":21,"time_elapsed":1057922,"internal_node_id":"0.0-21.0"},{"result":168,"points":1,"place":2,"phase":0,"sequence":2,"prices":[178,175,185,215,167,181,186,168,208,156],"times":[1028,549,587,564,965,564,635,991],"next_num":8,"trial_type":"ticket-choose","trial_index":22,"time_elapsed":1067498,"internal_node_id":"0.0-22.0"},{"result":153,"points":3,"place":0,"phase":0,"sequence":3,"prices":[178,175,186,212,167,179,187,169,209,153],"times":[1036,390,475,531,884,580,548,847,606,923],"next_num":10,"trial_type":"ticket-choose","trial_index":23,"time_elapsed":1078849,"internal_node_id":"0.0-23.0"},{"result":147,"points":3,"place":0,"phase":0,"sequence":4,"prices":[181,214,169,147,182,193,178,184,176,179],"times":[629,371,558,1522],"next_num":4,"trial_type":"ticket-choose","trial_index":24,"time_elapsed":1084969,"internal_node_id":"0.0-24.0"},{"result":153,"points":3,"place":0,"phase":0,"sequence":5,"prices":[167,175,186,225,178,179,187,169,209,153],"times":[964,506,572,595,589,572,797,1110,652,851],"next_num":10,"trial_type":"ticket-choose","trial_index":25,"time_elapsed":1096273,"internal_node_id":"0.0-25.0"},{"result":168,"points":1,"place":2,"phase":0,"sequence":6,"prices":[167,175,185,224,178,181,186,168,208,156],"times":[956,584,530,548,525,708,628,2380],"next_num":8,"trial_type":"ticket-choose","trial_index":26,"time_elapsed":1106745,"internal_node_id":"0.0-26.0"},{"result":186,"points":1,"place":4,"phase":0,"sequence":7,"prices":[220,173,201,197,169,205,198,183,178,186],"times":[674,484,668,981,637,636,645,693,596,613],"next_num":10,"trial_type":"ticket-choose","trial_index":27,"time_elapsed":1117433,"internal_node_id":"0.0-27.0"},{"result":149,"points":3,"place":0,"phase":0,"sequence":8,"prices":[180,156,149,160,168,186,172,198,176,195],"times":[3684,398,941],"next_num":3,"trial_type":"ticket-choose","trial_index":28,"time_elapsed":1125065,"internal_node_id":"0.0-28.0"},{"result":148,"points":3,"place":0,"phase":0,"sequence":9,"prices":[173,163,185,181,166,148,160,185,176,184],"times":[1693,894,548,566,988,955],"next_num":6,"trial_type":"ticket-choose","trial_index":29,"time_elapsed":1133937,"internal_node_id":"0.0-29.0"},{"result":158,"points":2,"place":1,"phase":0,"sequence":10,"prices":[158,176,187,210,177,181,187,165,208,153],"times":[1457],"next_num":1,"trial_type":"ticket-choose","trial_index":30,"time_elapsed":1137529,"internal_node_id":"0.0-30.0"},{"result":158,"points":2,"place":1,"phase":0,"sequence":11,"prices":[158,175,186,209,177,181,188,167,208,154],"times":[1118],"next_num":1,"trial_type":"ticket-choose","trial_index":31,"time_elapsed":1140625,"internal_node_id":"0.0-31.0"},{"result":156,"points":3,"place":0,"phase":0,"sequence":12,"prices":[167,174,186,211,178,181,188,168,208,156],"times":[920,515,517,525,516,556,555,691,580,650],"next_num":10,"trial_type":"ticket-choose","trial_index":32,"time_elapsed":1150705,"internal_node_id":"0.0-32.0"},{"result":166,"points":1,"place":2,"phase":0,"sequence":13,"prices":[163,199,196,199,185,195,227,163,177,166],"times":[1132,492,492,493,660,605,675,1022,659,589],"next_num":10,"trial_type":"ticket-choose","trial_index":33,"time_elapsed":1161841,"internal_node_id":"0.0-33.0"},{"result":156,"points":3,"place":0,"phase":0,"sequence":14,"prices":[178,174,186,217,167,181,188,168,208,156],"times":[3317,580,635,622,828,804,620,1077,780,628],"next_num":10,"trial_type":"ticket-choose","trial_index":34,"time_elapsed":1176049,"internal_node_id":"0.0-34.0"},{"result":161,"points":3,"place":0,"phase":0,"sequence":15,"prices":[193,174,224,165,187,190,224,161,194,195],"times":[722,532,579,935,540,566,699,892],"next_num":8,"trial_type":"ticket-choose","trial_index":35,"time_elapsed":1185177,"internal_node_id":"0.0-35.0"},{"result":153,"points":3,"place":0,"phase":0,"sequence":16,"prices":[177,175,186,210,165,179,187,166,153,208],"times":[938,557,549,532,838,562,532,980,835],"next_num":9,"trial_type":"ticket-choose","trial_index":36,"time_elapsed":1195321,"internal_node_id":"0.0-36.0"},{"result":150,"points":3,"place":0,"phase":0,"sequence":17,"prices":[190,150,175,161,188,207,157,194,178,199],"times":[722,828],"next_num":2,"trial_type":"ticket-choose","trial_index":37,"time_elapsed":1199001,"internal_node_id":"0.0-37.0"},{"result":156,"points":3,"place":0,"phase":0,"sequence":18,"prices":[201,204,179,166,185,165,214,156,202,165],"times":[709,668,604,660,604,636,567,1067],"next_num":8,"trial_type":"ticket-choose","trial_index":38,"time_elapsed":1207970,"internal_node_id":"0.0-38.0"},{"result":153,"points":3,"place":0,"phase":0,"sequence":19,"prices":[165,174,186,212,177,181,187,166,153,209],"times":[940,526,621,507,556,555,861,891,666],"next_num":9,"trial_type":"ticket-choose","trial_index":39,"time_elapsed":1217946,"internal_node_id":"0.0-39.0"},{"result":153,"points":3,"place":0,"phase":0,"sequence":20,"prices":[163,175,186,214,176,179,187,166,153,208],"times":[2312,462,524,501,509,515,724,739,894],"next_num":9,"trial_type":"ticket-choose","trial_index":40,"time_elapsed":1229737,"internal_node_id":"0.0-40.0"},{"result":158,"points":3,"place":0,"phase":0,"sequence":21,"prices":[214,184,226,192,215,158,199,175,176,208],"times":[2232,686,563,564,654,983],"next_num":6,"trial_type":"ticket-choose","trial_index":41,"time_elapsed":1238601,"internal_node_id":"0.0-41.0"},{"result":152,"points":3,"place":0,"phase":0,"sequence":22,"prices":[200,173,182,169,207,165,152,202,161,204],"times":[44150,604,492,669,563,701,852],"next_num":7,"trial_type":"ticket-choose","trial_index":42,"time_elapsed":1289897,"internal_node_id":"0.0-42.0"},{"result":184,"points":1,"place":4,"phase":0,"sequence":23,"prices":[193,181,175,181,185,165,224,199,218,184],"times":[3500,454,523,523,493,597,532,571,566,517],"next_num":10,"trial_type":"ticket-choose","trial_index":43,"time_elapsed":1302282,"internal_node_id":"0.0-43.0"},{"result":171,"points":1,"place":3,"phase":0,"sequence":24,"prices":[189,167,180,197,165,168,172,213,178,171],"times":[1042,485,429,550,939,552,534,614,509,573],"next_num":10,"trial_type":"ticket-choose","trial_index":44,"time_elapsed":1313025,"internal_node_id":"0.0-44.0"},{"result":152,"points":3,"place":0,"phase":0,"sequence":25,"prices":[200,180,203,152,175,170,160,154,176,191],"times":[1218,518,533,843],"next_num":4,"trial_type":"ticket-choose","trial_index":45,"time_elapsed":1318722,"internal_node_id":"0.0-45.0"},{"result":153,"points":3,"place":0,"phase":0,"sequence":26,"prices":[177,174,186,217,165,181,187,166,153,209],"times":[2706,570,629,533,860,540,525,813,828],"next_num":9,"trial_type":"ticket-choose","trial_index":46,"time_elapsed":1330441,"internal_node_id":"0.0-46.0"},{"result":163,"points":2,"place":1,"phase":0,"sequence":27,"prices":[176,187,179,209,163,180,188,165,154,208],"times":[4965,438,443,542,995],"next_num":5,"trial_type":"ticket-choose","trial_index":47,"time_elapsed":1340617,"internal_node_id":"0.0-47.0"},{"result":157,"points":3,"place":0,"phase":0,"sequence":28,"prices":[191,170,182,165,175,182,203,157,195,200],"times":[1428,442,540,637,453,518,563,820],"next_num":8,"trial_type":"ticket-choose","trial_index":48,"time_elapsed":1349377,"internal_node_id":"0.0-48.0"},{"result":165,"points":3,"place":0,"phase":0,"sequence":29,"prices":[196,171,170,184,187,165,211,169,201,202],"times":[1572,444,446,478,517,757],"next_num":6,"trial_type":"ticket-choose","trial_index":49,"time_elapsed":1356433,"internal_node_id":"0.0-49.0"},{"result":148,"points":3,"place":0,"phase":0,"sequence":30,"prices":[171,169,186,165,163,167,220,148,187,165],"times":[1163,365,467,524,549,530,557,883],"next_num":8,"trial_type":"ticket-choose","trial_index":50,"time_elapsed":1364913,"internal_node_id":"0.0-50.0"},{"result":158,"points":2,"place":1,"phase":0,"sequence":31,"prices":[177,175,186,221,158,180,187,166,209,153],"times":[876,489,493,509,915],"next_num":5,"trial_type":"ticket-choose","trial_index":51,"time_elapsed":1370800,"internal_node_id":"0.0-51.0"},{"result":207,"points":0,"place":9,"phase":0,"sequence":32,"prices":[181,159,149,175,185,151,163,174,178,207],"times":[2793,429,452,525,437,494,740,570,548,667],"next_num":10,"trial_type":"ticket-choose","trial_index":52,"time_elapsed":1382560,"internal_node_id":"0.0-52.0"},{"result":166,"points":1,"place":2,"phase":0,"sequence":33,"prices":[165,175,186,214,177,179,187,166,153,208],"times":[717,501,540,588,574,494,684,798],"next_num":8,"trial_type":"ticket-choose","trial_index":53,"time_elapsed":1390720,"internal_node_id":"0.0-53.0"},{"result":154,"points":3,"place":0,"phase":0,"sequence":34,"prices":[187,201,165,172,196,174,178,154,172,180],"times":[1490,572,509,510,518,542,491,876],"next_num":8,"trial_type":"ticket-choose","trial_index":54,"time_elapsed":1399848,"internal_node_id":"0.0-54.0"},{"result":153,"points":3,"place":0,"phase":0,"sequence":35,"prices":[176,175,186,210,163,179,187,166,153,208],"times":[13476,533,485,484,495,525,525,567,795],"next_num":9,"trial_type":"ticket-choose","trial_index":55,"time_elapsed":1421208,"internal_node_id":"0.0-55.0"},{"result":151,"points":3,"place":0,"phase":0,"sequence":36,"prices":[199,193,169,165,202,182,151,164,176,171],"times":[5548,557,611,598,550,484,908],"next_num":7,"trial_type":"ticket-choose","trial_index":56,"time_elapsed":1433696,"internal_node_id":"0.0-56.0"},{"result":154,"points":3,"place":0,"phase":0,"sequence":37,"prices":[177,175,187,209,165,180,188,165,154,208],"times":[1973,484,523,533,821,485,493,995,844],"next_num":9,"trial_type":"ticket-choose","trial_index":57,"time_elapsed":1444496,"internal_node_id":"0.0-57.0"},{"result":159,"points":3,"place":0,"phase":0,"sequence":38,"prices":[183,179,188,165,168,173,205,159,187,191],"times":[1797,525,497,545,525,542,579,1013],"next_num":8,"trial_type":"ticket-choose","trial_index":58,"time_elapsed":1453768,"internal_node_id":"0.0-58.0"},{"result":157,"points":3,"place":0,"phase":0,"sequence":39,"prices":[201,187,157,184,198,179,188,185,178,170],"times":[1064,516,1171],"next_num":3,"trial_type":"ticket-choose","trial_index":59,"time_elapsed":1458712,"internal_node_id":"0.0-59.0"},{"result":153,"points":2,"place":1,"phase":0,"sequence":40,"prices":[167,153,172,185,195,143,184,211,177,227],"times":[741,741],"next_num":2,"trial_type":"ticket-choose","trial_index":60,"time_elapsed":1462312,"internal_node_id":"0.0-60.0"},{"result":158,"points":2,"place":1,"phase":0,"sequence":41,"prices":[177,175,186,209,158,181,188,167,208,154],"times":[693,523,492,509,886],"next_num":5,"trial_type":"ticket-choose","trial_index":61,"time_elapsed":1468120,"internal_node_id":"0.0-61.0"},{"result":164,"points":3,"place":0,"phase":0,"sequence":42,"prices":[199,191,188,174,167,193,189,164,176,170],"times":[971,581,508,511,549,557,747,1204],"next_num":8,"trial_type":"ticket-choose","trial_index":62,"time_elapsed":1477000,"internal_node_id":"0.0-62.0"},{"result":153,"points":3,"place":0,"phase":0,"sequence":43,"prices":[163,174,186,212,176,181,187,166,153,209],"times":[1402,515,613,500,541,605,907,844,924],"next_num":9,"trial_type":"ticket-choose","trial_index":63,"time_elapsed":1487311,"internal_node_id":"0.0-63.0"},{"result":155,"points":2,"place":1,"phase":0,"sequence":44,"prices":[200,207,155,158,156,168,167,135,178,177],"times":[629,499,1092],"next_num":3,"trial_type":"ticket-choose","trial_index":64,"time_elapsed":1491984,"internal_node_id":"0.0-64.0"},{"result":153,"points":3,"place":0,"phase":0,"sequence":45,"prices":[158,175,186,211,177,180,187,166,209,153],"times":[646,478,478,493,501,498,502,581,717,539],"next_num":10,"trial_type":"ticket-choose","trial_index":65,"time_elapsed":1501328,"internal_node_id":"0.0-65.0"},{"result":153,"points":3,"place":0,"phase":0,"sequence":46,"prices":[176,186,178,217,163,181,187,166,153,209],"times":[1031,479,524,516,740,581,580,835,870],"next_num":9,"trial_type":"ticket-choose","trial_index":66,"time_elapsed":1511039,"internal_node_id":"0.0-66.0"},{"result":154,"points":3,"place":0,"phase":0,"sequence":47,"prices":[165,175,187,209,177,180,188,167,154,208],"times":[801,509,475,549,507,548,581,813,908],"next_num":9,"trial_type":"ticket-choose","trial_index":67,"time_elapsed":1520167,"internal_node_id":"0.0-67.0"},{"result":154,"points":3,"place":0,"phase":0,"sequence":48,"prices":[163,175,187,209,176,180,188,165,154,208],"times":[956,518,547,589,549,524,556,774,1020],"next_num":9,"trial_type":"ticket-choose","trial_index":68,"time_elapsed":1529927,"internal_node_id":"0.0-68.0"},{"result":197,"points":0,"place":8,"phase":0,"sequence":49,"prices":[192,172,171,178,188,165,217,168,195,197],"times":[1068,505,516,484,531,827,533,859,614,1140],"next_num":10,"trial_type":"ticket-choose","trial_index":69,"time_elapsed":1540856,"internal_node_id":"0.0-69.0"},{"responses":[{"value":0,"offby":-1,"category":"$115 - $130","category_index":0},{"value":0,"offby":-5,"category":"$131 - $145","category_index":1},{"value":8,"offby":-4,"category":"$146 - $160","category_index":2},{"value":10,"offby":-12,"category":"$161 - $175","category_index":3},{"value":60,"offby":26,"category":"$176 - $190","category_index":4},{"value":15,"offby":0,"category":"$191 - $205","category_index":5},{"value":7,"offby":-4,"category":"$206 - $220","category_index":6}],"phase":1,"number":1,"trial_type":"bar-choose","trial_index":70,"time_elapsed":1580472,"internal_node_id":"0.0-70.0"},{"rt":12042,"url":"\/christiane\/tickets\/utils\/testing2.html","trial_type":"point_update","trial_index":71,"time_elapsed":1593664,"internal_node_id":"0.0-71.0"},{"phase":1,"order":[29,23,4,5,48,2,1,42,34,49,20,19,0,38,3,32,9,40,25,8,12,46,26,24,39,47,11,16,30,28,31,21,44,6,36,15,37,10,33,43,35,22,45,14,41,18,17,7,13,27],"trial_type":"store_order","trial_index":72,"time_elapsed":1594665,"internal_node_id":"0.0-72.0"},{"result":167,"points":2,"place":1,"phase":1,"sequence":0,"prices":[183,182,192,168,173,205,167,187,165,170],"times":[115869,511,493,499,525,564,902],"next_num":7,"trial_type":"ticket-choose","trial_index":73,"time_elapsed":1717167,"internal_node_id":"0.0-73.0"},{"result":154,"points":3,"place":0,"phase":1,"sequence":1,"prices":[175,187,163,209,180,188,176,165,154,208],"times":[855,493,827,483,459,493,531,725,964],"next_num":9,"trial_type":"ticket-choose","trial_index":74,"time_elapsed":1726431,"internal_node_id":"0.0-74.0"},{"result":148,"points":3,"place":0,"phase":1,"sequence":2,"prices":[183,163,185,180,166,148,160,186,176,184],"times":[794,868,459,453,714,788],"next_num":6,"trial_type":"ticket-choose","trial_index":75,"time_elapsed":1734158,"internal_node_id":"0.0-75.0"},{"result":154,"points":3,"place":0,"phase":1,"sequence":3,"prices":[175,187,165,209,180,188,177,166,154,208],"times":[1665,539,887,531,518,493,610,694,933],"next_num":9,"trial_type":"ticket-choose","trial_index":76,"time_elapsed":1744903,"internal_node_id":"0.0-76.0"},{"result":163,"points":3,"place":0,"phase":1,"sequence":4,"prices":[168,199,196,198,185,195,227,163,177,166],"times":[1371,421,476,461,653,547,547,950],"next_num":8,"trial_type":"ticket-choose","trial_index":77,"time_elapsed":1753743,"internal_node_id":"0.0-77.0"},{"result":156,"points":3,"place":0,"phase":1,"sequence":5,"prices":[175,185,167,224,181,186,178,168,208,156],"times":[4578,590,1044,494,613,533,605,824,621,741],"next_num":10,"trial_type":"ticket-choose","trial_index":78,"time_elapsed":1768182,"internal_node_id":"0.0-78.0"},{"result":154,"points":2,"place":1,"phase":1,"sequence":6,"prices":[168,154,172,185,195,144,184,211,177,227],"times":[2437,1115],"next_num":2,"trial_type":"ticket-choose","trial_index":79,"time_elapsed":1773766,"internal_node_id":"0.0-79.0"},{"result":176,"points":0,"place":5,"phase":1,"sequence":7,"prices":[191,172,169,175,182,203,170,195,165,176],"times":[643,506,605,587,534,581,533,549,596,539],"next_num":10,"trial_type":"ticket-choose","trial_index":80,"time_elapsed":1783311,"internal_node_id":"0.0-80.0"},{"result":150,"points":3,"place":0,"phase":1,"sequence":8,"prices":[189,150,175,160,188,207,158,194,178,199],"times":[516,819],"next_num":2,"trial_type":"ticket-choose","trial_index":81,"time_elapsed":1786591,"internal_node_id":"0.0-81.0"},{"result":158,"points":2,"place":1,"phase":1,"sequence":9,"prices":[175,186,158,209,181,188,177,167,208,154],"times":[1397,459,877],"next_num":3,"trial_type":"ticket-choose","trial_index":82,"time_elapsed":1791470,"internal_node_id":"0.0-82.0"},{"result":154,"points":3,"place":0,"phase":1,"sequence":10,"prices":[175,187,176,209,180,188,163,165,154,208],"times":[771,451,509,532,493,491,606,597,796],"next_num":9,"trial_type":"ticket-choose","trial_index":83,"time_elapsed":1800135,"internal_node_id":"0.0-83.0"},{"result":153,"points":3,"place":0,"phase":1,"sequence":11,"prices":[175,186,167,225,179,187,178,169,209,153],"times":[961,539,460,500,483,491,572,724,646,500],"next_num":10,"trial_type":"ticket-choose","trial_index":84,"time_elapsed":1809719,"internal_node_id":"0.0-84.0"},{"result":158,"points":2,"place":1,"phase":1,"sequence":12,"prices":[175,186,177,221,180,187,158,166,209,153],"times":[19564,454,492,548,542,436,947],"next_num":7,"trial_type":"ticket-choose","trial_index":85,"time_elapsed":1836135,"internal_node_id":"0.0-85.0"},{"result":153,"points":3,"place":0,"phase":1,"sequence":13,"prices":[175,186,178,212,179,187,167,169,209,153],"times":[2204,462,580,554,482,574,573,739,557,501],"next_num":10,"trial_type":"ticket-choose","trial_index":86,"time_elapsed":1847375,"internal_node_id":"0.0-86.0"},{"result":167,"points":2,"place":1,"phase":1,"sequence":14,"prices":[175,185,178,215,181,186,167,168,208,156],"times":[890,454,556,548,556,516,836],"next_num":7,"trial_type":"ticket-choose","trial_index":87,"time_elapsed":1854782,"internal_node_id":"0.0-87.0"},{"result":185,"points":1,"place":4,"phase":1,"sequence":15,"prices":[196,165,170,184,187,211,171,201,202,185],"times":[1732,965,492,558,517,508,590,556,534,581],"next_num":10,"trial_type":"ticket-choose","trial_index":88,"time_elapsed":1865638,"internal_node_id":"0.0-88.0"},{"result":164,"points":3,"place":0,"phase":1,"sequence":16,"prices":[212,192,188,184,167,193,189,164,176,170],"times":[1268,539,493,525,869,549,460,1254],"next_num":8,"trial_type":"ticket-choose","trial_index":89,"time_elapsed":1875134,"internal_node_id":"0.0-89.0"},{"result":165,"points":3,"place":0,"phase":1,"sequence":17,"prices":[171,203,175,170,167,220,192,186,165,165],"times":[1122,655,462,526,717,460,518,588,955],"next_num":9,"trial_type":"ticket-choose","trial_index":90,"time_elapsed":1884838,"internal_node_id":"0.0-90.0"},{"result":163,"points":2,"place":1,"phase":1,"sequence":18,"prices":[174,186,176,217,181,187,163,166,153,209],"times":[1072,533,777,517,822,542,877],"next_num":7,"trial_type":"ticket-choose","trial_index":91,"time_elapsed":1893062,"internal_node_id":"0.0-91.0"},{"result":155,"points":2,"place":1,"phase":1,"sequence":19,"prices":[181,155,148,161,168,187,172,199,176,194],"times":[897,1100],"next_num":2,"trial_type":"ticket-choose","trial_index":92,"time_elapsed":1896990,"internal_node_id":"0.0-92.0"},{"result":143,"points":3,"place":0,"phase":1,"sequence":20,"prices":[222,173,202,197,143,205,198,183,178,186],"times":[962,484,604,535,902],"next_num":5,"trial_type":"ticket-choose","trial_index":93,"time_elapsed":1903070,"internal_node_id":"0.0-93.0"},{"result":180,"points":1,"place":4,"phase":1,"sequence":21,"prices":[200,165,165,173,182,207,161,202,204,180],"times":[940,1405,476,533,486,514,548,565,547,542],"next_num":11,"trial_type":"ticket-choose","trial_index":94,"time_elapsed":1913990,"internal_node_id":"0.0-94.0"},{"result":153,"points":3,"place":0,"phase":1,"sequence":22,"prices":[175,186,163,214,179,187,176,166,153,208],"times":[5179,470,645,469,478,549,556,701,782],"next_num":9,"trial_type":"ticket-choose","trial_index":95,"time_elapsed":1927527,"internal_node_id":"0.0-95.0"},{"result":163,"points":2,"place":1,"phase":1,"sequence":23,"prices":[174,186,163,212,181,187,176,166,153,209],"times":[1079,468,1062],"next_num":3,"trial_type":"ticket-choose","trial_index":96,"time_elapsed":1932543,"internal_node_id":"0.0-96.0"},{"result":158,"points":3,"place":0,"phase":1,"sequence":24,"prices":[210,184,226,193,215,158,199,175,176,208],"times":[1575,575,709,974,885,980],"next_num":6,"trial_type":"ticket-choose","trial_index":97,"time_elapsed":1941111,"internal_node_id":"0.0-97.0"},{"result":154,"points":3,"place":0,"phase":1,"sequence":25,"prices":[188,200,165,172,198,174,177,154,177,180],"times":[1073,581,835,530,524,556,550,805],"next_num":8,"trial_type":"ticket-choose","trial_index":98,"time_elapsed":1949775,"internal_node_id":"0.0-98.0"},{"result":158,"points":2,"place":1,"phase":1,"sequence":26,"prices":[176,187,158,210,181,187,177,165,208,153],"times":[2307,445,758],"next_num":3,"trial_type":"ticket-choose","trial_index":99,"time_elapsed":1955550,"internal_node_id":"0.0-99.0"},{"result":152,"points":3,"place":0,"phase":1,"sequence":27,"prices":[198,193,169,163,202,182,152,164,177,171],"times":[5640,557,654,603,524,476,813],"next_num":7,"trial_type":"ticket-choose","trial_index":100,"time_elapsed":1967983,"internal_node_id":"0.0-100.0"},{"result":158,"points":2,"place":1,"phase":1,"sequence":28,"prices":[176,187,177,225,181,187,158,165,208,153],"times":[13635,433,502,525,525,739,803],"next_num":7,"trial_type":"ticket-choose","trial_index":101,"time_elapsed":1988334,"internal_node_id":"0.0-101.0"},{"result":166,"points":1,"place":2,"phase":1,"sequence":29,"prices":[175,186,165,214,179,187,177,166,153,208],"times":[5962,4861,740,523,502,557,548,733],"next_num":8,"trial_type":"ticket-choose","trial_index":102,"time_elapsed":2006015,"internal_node_id":"0.0-102.0"},{"result":171,"points":1,"place":3,"phase":1,"sequence":30,"prices":[189,167,180,197,165,168,172,213,178,171],"times":[923,644,483,484,643,484,556,589,549,510],"next_num":10,"trial_type":"ticket-choose","trial_index":103,"time_elapsed":2015839,"internal_node_id":"0.0-103.0"},{"result":165,"points":2,"place":1,"phase":1,"sequence":31,"prices":[175,187,177,209,180,188,165,165,154,208],"times":[1190,492,486,524,557,652,789],"next_num":7,"trial_type":"ticket-choose","trial_index":104,"time_elapsed":2023647,"internal_node_id":"0.0-104.0"},{"result":184,"points":1,"place":4,"phase":1,"sequence":32,"prices":[193,165,175,181,185,224,180,199,218,184],"times":[955,455,477,485,506,563,700,533,580,510],"next_num":10,"trial_type":"ticket-choose","trial_index":105,"time_elapsed":2090245,"internal_node_id":"0.0-105.0"},{"result":186,"points":1,"place":4,"phase":1,"sequence":33,"prices":[192,165,171,178,188,217,172,195,197,186],"times":[1388,434,430,452,661,476,534,476,550,477],"next_num":10,"trial_type":"ticket-choose","trial_index":106,"time_elapsed":2102510,"internal_node_id":"0.0-106.0"},{"result":167,"points":1,"place":2,"phase":1,"sequence":34,"prices":[174,186,165,212,181,187,177,167,153,209],"times":[13767,565,1148,454,484,484,525,846],"next_num":8,"trial_type":"ticket-choose","trial_index":107,"time_elapsed":2124062,"internal_node_id":"0.0-107.0"},{"result":158,"points":2,"place":1,"phase":1,"sequence":35,"prices":[175,186,177,209,181,188,158,167,208,154],"times":[1080,476,502,629,525,523,813],"next_num":7,"trial_type":"ticket-choose","trial_index":108,"time_elapsed":2131614,"internal_node_id":"0.0-108.0"},{"result":157,"points":3,"place":0,"phase":1,"sequence":36,"prices":[201,187,157,184,198,179,188,185,178,170],"times":[11399,838,878],"next_num":3,"trial_type":"ticket-choose","trial_index":109,"time_elapsed":2147134,"internal_node_id":"0.0-109.0"},{"result":167,"points":2,"place":1,"phase":1,"sequence":37,"prices":[174,186,178,217,181,188,167,168,208,156],"times":[1523,523,555,635,526,482,1045],"next_num":7,"trial_type":"ticket-choose","trial_index":110,"time_elapsed":2155622,"internal_node_id":"0.0-110.0"},{"result":158,"points":2,"place":1,"phase":1,"sequence":38,"prices":[175,186,158,211,180,187,177,166,209,153],"times":[1179,549,852],"next_num":3,"trial_type":"ticket-choose","trial_index":111,"time_elapsed":2160381,"internal_node_id":"0.0-111.0"},{"result":165,"points":2,"place":1,"phase":1,"sequence":39,"prices":[175,186,177,210,179,187,165,166,153,208],"times":[923,462,457,501,498,491,828],"next_num":7,"trial_type":"ticket-choose","trial_index":112,"time_elapsed":2167509,"internal_node_id":"0.0-112.0"},{"result":149,"points":2,"place":1,"phase":1,"sequence":40,"prices":[180,159,149,175,185,141,163,174,178,207],"times":[1789,469,796],"next_num":3,"trial_type":"ticket-choose","trial_index":113,"time_elapsed":2172692,"internal_node_id":"0.0-113.0"},{"result":152,"points":3,"place":0,"phase":1,"sequence":41,"prices":[200,181,203,152,175,171,160,154,176,191],"times":[800,436,565,1077],"next_num":4,"trial_type":"ticket-choose","trial_index":114,"time_elapsed":2178077,"internal_node_id":"0.0-114.0"},{"result":155,"points":2,"place":1,"phase":1,"sequence":42,"prices":[201,207,155,158,156,165,167,135,178,177],"times":[1013,468,853],"next_num":3,"trial_type":"ticket-choose","trial_index":115,"time_elapsed":2182557,"internal_node_id":"0.0-115.0"},{"result":179,"points":1,"place":4,"phase":1,"sequence":43,"prices":[201,165,162,166,185,214,165,202,204,179],"times":[2020,516,613,533,564,556,484,556,501,765],"next_num":10,"trial_type":"ticket-choose","trial_index":116,"time_elapsed":2193629,"internal_node_id":"0.0-116.0"},{"result":153,"points":3,"place":0,"phase":1,"sequence":44,"prices":[175,186,176,210,179,187,163,166,153,208],"times":[11924,2442,537,486,405,58981,5853,395,687],"next_num":9,"trial_type":"ticket-choose","trial_index":117,"time_elapsed":2279140,"internal_node_id":"0.0-117.0"},{"result":188,"points":0,"place":5,"phase":1,"sequence":45,"prices":[193,169,171,187,190,224,174,194,165,188],"times":[42651,477,565,520,524,566,668,494,459,572],"next_num":11,"trial_type":"ticket-choose","trial_index":118,"time_elapsed":2330852,"internal_node_id":"0.0-118.0"},{"result":156,"points":3,"place":0,"phase":1,"sequence":46,"prices":[174,186,167,211,181,188,178,168,208,156],"times":[47208,476,460,527,461,462,502,444,877,540],"next_num":10,"trial_type":"ticket-choose","trial_index":119,"time_elapsed":2423540,"internal_node_id":"0.0-119.0"},{"result":165,"points":3,"place":0,"phase":1,"sequence":47,"prices":[185,170,182,201,173,199,171,188,165,168],"times":[42511,538,685,517,475,502,524,484,694],"next_num":9,"trial_type":"ticket-choose","trial_index":120,"time_elapsed":2474292,"internal_node_id":"0.0-120.0"},{"result":165,"points":2,"place":1,"phase":1,"sequence":48,"prices":[174,186,177,217,181,187,165,166,153,209],"times":[51396,513,438,524,998,500,872],"next_num":7,"trial_type":"ticket-choose","trial_index":121,"time_elapsed":2532828,"internal_node_id":"0.0-121.0"},{"result":147,"points":3,"place":0,"phase":1,"sequence":49,"prices":[181,215,169,147,182,193,177,184,176,179],"times":[2518,508,427,814],"next_num":4,"trial_type":"ticket-choose","trial_index":122,"time_elapsed":2539675,"internal_node_id":"0.0-122.0"},{"responses":[{"value":0,"offby":-1,"category":"$115 - $130","category_index":0},{"value":0,"offby":-5,"category":"$131 - $145","category_index":1},{"value":15,"offby":3,"category":"$146 - $160","category_index":2},{"value":58,"offby":36,"category":"$161 - $175","category_index":3},{"value":25,"offby":-9,"category":"$176 - $190","category_index":4},{"value":2,"offby":-13,"category":"$191 - $205","category_index":5},{"value":0,"offby":-11,"category":"$206 - $220","category_index":6}],"phase":1,"number":1,"trial_type":"bar-choose","trial_index":123,"time_elapsed":2566845,"internal_node_id":"0.0-123.0"},{"special_comment":"no","trial_type":"special_sequence","trial_index":124,"time_elapsed":2574795,"internal_node_id":"0.0-124.0"},{"during":"Nothing","bonus":308,"trial_type":"final","trial_index":125,"time_elapsed":2592863,"internal_node_id":"0.0-125.0"}],"bonus":308}