{"start_time":"2017-05-24 15:30:17","end_time":"2017-05-24 15:51:43","points_phase0":108,"points_phase1":108,"phase_order":0,"age":30,"gender":"m","tries":1,"during":"Nothing","worker_id":"A21M2USASL1O05","assignment_id":"3OSWBBLG1FQV4SHDHOQTMANMVVSDXM","data":[{"rt":24864,"url":"\/christiane\/tickets\/utils\/consent.html","trial_type":"html","trial_index":0,"time_elapsed":24986,"internal_node_id":"0.0-0.0"},{"age":30,"gender":"m","trial_type":"age","trial_index":1,"time_elapsed":29882,"internal_node_id":"0.0-1.0"},{"worker_id":"A21M2USASL1O05","trial_type":"workerid","trial_index":2,"time_elapsed":91058,"internal_node_id":"0.0-2.0"},{"tries":1,"trial_type":"instructions_check","trial_index":3,"time_elapsed":133776,"internal_node_id":"0.0-3.0"},{"rt":12907,"url":"\/christiane\/tickets\/utils\/start.html","trial_type":"html","trial_index":4,"time_elapsed":147799,"internal_node_id":"0.0-4.0"},{"trial_type":"number-animation","trial_index":5,"time_elapsed":161343,"internal_node_id":"0.0-5.0"},{"phase":0,"sequence":0,"avg":181,"response":178,"trial_type":"training_avg","trial_index":6,"time_elapsed":175596,"internal_node_id":"0.0-6.0"},{"trial_type":"number-animation","trial_index":7,"time_elapsed":187610,"internal_node_id":"0.0-7.0"},{"phase":0,"sequence":1,"avg":188,"response":180,"trial_type":"training_avg","trial_index":8,"time_elapsed":194619,"internal_node_id":"0.0-8.0"},{"trial_type":"number-animation","trial_index":9,"time_elapsed":204814,"internal_node_id":"0.0-9.0"},{"phase":0,"sequence":2,"avg":188,"response":176,"trial_type":"training_avg","trial_index":10,"time_elapsed":210065,"internal_node_id":"0.0-10.0"},{"trial_type":"number-animation","trial_index":11,"time_elapsed":219108,"internal_node_id":"0.0-11.0"},{"phase":0,"sequence":3,"avg":177,"response":167,"trial_type":"training_avg","trial_index":12,"time_elapsed":226046,"internal_node_id":"0.0-12.0"},{"trial_type":"number-animation","trial_index":13,"time_elapsed":234897,"internal_node_id":"0.0-13.0"},{"phase":0,"sequence":4,"avg":182,"response":184,"trial_type":"training_avg","trial_index":14,"time_elapsed":240930,"internal_node_id":"0.0-14.0"},{"responses":[{"value":0,"offby":-1,"category":"$115 - $130","category_index":0},{"value":7,"offby":2,"category":"$131 - $145","category_index":1},{"value":12,"offby":0,"category":"$146 - $160","category_index":2},{"value":27,"offby":5,"category":"$161 - $175","category_index":3},{"value":33,"offby":-1,"category":"$176 - $190","category_index":4},{"value":15,"offby":0,"category":"$191 - $205","category_index":5},{"value":6,"offby":-5,"category":"$206 - $220","category_index":6}],"phase":0,"number":0,"trial_type":"bar-choose","trial_index":15,"time_elapsed":316842,"internal_node_id":"0.0-15.0"},{"rt":14943,"url":"\/christiane\/tickets\/utils\/testing.html","trial_type":"html","trial_index":16,"time_elapsed":332912,"internal_node_id":"0.0-16.0"},{"phase":0,"order":[23,35,14,19,12,33,39,44,32,17,29,5,41,49,3,13,26,11,47,48,40,0,34,30,20,37,10,1,6,4,24,38,36,2,22,7,28,43,15,9,31,16,8,42,46,27,18,25,45,21],"trial_type":"store_order","trial_index":17,"time_elapsed":333913,"internal_node_id":"0.0-17.0"},{"result":165,"points":2,"place":1,"phase":0,"sequence":-1,"prices":[184,180,224,165,181,199,185,193,218,146],"times":[3682,1072,781,1751],"next_num":4,"trial_type":"ticket-choose","trial_index":18,"time_elapsed":345933,"internal_node_id":"0.0-18.0"},{"rt":17148,"url":"\/christiane\/tickets\/utils\/testing_after.html","trial_type":"html","trial_index":19,"time_elapsed":364215,"internal_node_id":"0.0-19.0"},{"result":158,"points":2,"place":1,"phase":0,"sequence":0,"prices":[176,187,177,225,181,187,158,165,208,153],"times":[1925,757,967,844,1188,749,1124],"next_num":7,"trial_type":"ticket-choose","trial_index":20,"time_elapsed":375914,"internal_node_id":"0.0-20.0"},{"result":154,"points":2,"place":1,"phase":0,"sequence":1,"prices":[168,154,172,185,195,144,184,211,177,227],"times":[1300,1350],"next_num":2,"trial_type":"ticket-choose","trial_index":21,"time_elapsed":381155,"internal_node_id":"0.0-21.0"},{"result":166,"points":1,"place":2,"phase":0,"sequence":2,"prices":[174,186,163,212,181,187,176,166,153,209],"times":[1147,611,551,625,677,583,1791,958],"next_num":8,"trial_type":"ticket-choose","trial_index":22,"time_elapsed":392002,"internal_node_id":"0.0-22.0"},{"result":154,"points":3,"place":0,"phase":0,"sequence":3,"prices":[175,186,158,209,181,188,177,167,208,154],"times":[947,644,2779,571,635,551,686,1271,625,926],"next_num":10,"trial_type":"ticket-choose","trial_index":23,"time_elapsed":406599,"internal_node_id":"0.0-23.0"},{"result":163,"points":2,"place":1,"phase":0,"sequence":4,"prices":[175,186,163,214,179,187,176,166,153,208],"times":[1393,571,2030],"next_num":3,"trial_type":"ticket-choose","trial_index":24,"time_elapsed":413162,"internal_node_id":"0.0-24.0"},{"result":167,"points":2,"place":1,"phase":0,"sequence":5,"prices":[183,182,192,168,173,205,167,187,165,170],"times":[1187,935,601,865,625,614,1303],"next_num":7,"trial_type":"ticket-choose","trial_index":25,"time_elapsed":422677,"internal_node_id":"0.0-25.0"},{"result":165,"points":3,"place":0,"phase":0,"sequence":6,"prices":[189,167,180,197,165,168,172,213,178,171],"times":[1176,998,981,603,1031],"next_num":5,"trial_type":"ticket-choose","trial_index":26,"time_elapsed":431026,"internal_node_id":"0.0-26.0"},{"result":159,"points":1,"place":2,"phase":0,"sequence":7,"prices":[180,159,149,175,185,141,163,174,178,207],"times":[1595,1236],"next_num":2,"trial_type":"ticket-choose","trial_index":27,"time_elapsed":436028,"internal_node_id":"0.0-27.0"},{"result":165,"points":3,"place":0,"phase":0,"sequence":8,"prices":[193,169,171,187,190,224,174,194,165,188],"times":[958,654,664,664,602,750,1028,644,1051],"next_num":9,"trial_type":"ticket-choose","trial_index":28,"time_elapsed":446980,"internal_node_id":"0.0-28.0"},{"result":163,"points":2,"place":1,"phase":0,"sequence":9,"prices":[174,186,176,217,181,187,163,166,153,209],"times":[2061,581,1082,569,612,530,1072],"next_num":7,"trial_type":"ticket-choose","trial_index":29,"time_elapsed":456624,"internal_node_id":"0.0-29.0"},{"result":171,"points":1,"place":3,"phase":0,"sequence":10,"prices":[185,170,182,201,173,199,171,188,165,168],"times":[918,715,654,643,938,687,1031],"next_num":7,"trial_type":"ticket-choose","trial_index":30,"time_elapsed":465565,"internal_node_id":"0.0-30.0"},{"result":167,"points":2,"place":1,"phase":0,"sequence":11,"prices":[175,186,178,212,179,187,167,169,209,153],"times":[885,582,561,592,572,687,1093],"next_num":7,"trial_type":"ticket-choose","trial_index":31,"time_elapsed":473639,"internal_node_id":"0.0-31.0"},{"result":155,"points":2,"place":1,"phase":0,"sequence":12,"prices":[201,207,155,158,156,165,167,135,178,177],"times":[813,571,1050],"next_num":3,"trial_type":"ticket-choose","trial_index":32,"time_elapsed":478361,"internal_node_id":"0.0-32.0"},{"result":148,"points":3,"place":0,"phase":0,"sequence":13,"prices":[183,163,185,180,166,148,160,186,176,184],"times":[834,1486,779,624,633,1093],"next_num":6,"trial_type":"ticket-choose","trial_index":33,"time_elapsed":487339,"internal_node_id":"0.0-33.0"},{"result":167,"points":2,"place":1,"phase":0,"sequence":14,"prices":[174,186,178,217,181,188,167,168,208,156],"times":[1574,728,1100,687,1199,698,1104],"next_num":7,"trial_type":"ticket-choose","trial_index":34,"time_elapsed":497604,"internal_node_id":"0.0-34.0"},{"result":163,"points":2,"place":1,"phase":0,"sequence":15,"prices":[175,187,163,209,180,188,176,165,154,208],"times":[1093,540,914],"next_num":3,"trial_type":"ticket-choose","trial_index":35,"time_elapsed":502512,"internal_node_id":"0.0-35.0"},{"result":161,"points":3,"place":0,"phase":0,"sequence":16,"prices":[200,165,165,173,182,207,161,202,204,180],"times":[835,860,581,581,717,570,1050],"next_num":7,"trial_type":"ticket-choose","trial_index":36,"time_elapsed":511029,"internal_node_id":"0.0-36.0"},{"result":165,"points":2,"place":1,"phase":0,"sequence":17,"prices":[174,186,177,217,181,187,165,166,153,209],"times":[826,559,591,582,664,674,886],"next_num":7,"trial_type":"ticket-choose","trial_index":37,"time_elapsed":518925,"internal_node_id":"0.0-37.0"},{"result":154,"points":2,"place":1,"phase":0,"sequence":18,"prices":[200,181,203,152,175,171,160,154,176,191],"times":[960,551,552,542,1278,602,1912,925],"next_num":8,"trial_type":"ticket-choose","trial_index":38,"time_elapsed":529745,"internal_node_id":"0.0-38.0"},{"result":147,"points":3,"place":0,"phase":0,"sequence":19,"prices":[181,215,169,147,182,193,177,184,176,179],"times":[959,715,552,1021],"next_num":4,"trial_type":"ticket-choose","trial_index":39,"time_elapsed":535834,"internal_node_id":"0.0-39.0"},{"result":150,"points":3,"place":0,"phase":0,"sequence":20,"prices":[189,150,175,160,188,207,158,194,178,199],"times":[825,923],"next_num":2,"trial_type":"ticket-choose","trial_index":40,"time_elapsed":539858,"internal_node_id":"0.0-40.0"},{"result":168,"points":1,"place":2,"phase":0,"sequence":21,"prices":[174,186,167,211,181,188,178,168,208,156],"times":[865,623,954,604,636,603,686,1323],"next_num":8,"trial_type":"ticket-choose","trial_index":41,"time_elapsed":549674,"internal_node_id":"0.0-41.0"},{"result":155,"points":2,"place":1,"phase":0,"sequence":22,"prices":[181,155,148,161,168,187,172,199,176,194],"times":[803,934],"next_num":2,"trial_type":"ticket-choose","trial_index":42,"time_elapsed":553448,"internal_node_id":"0.0-42.0"},{"result":169,"points":2,"place":1,"phase":0,"sequence":23,"prices":[191,172,169,175,182,203,170,195,165,176],"times":[1999,779,1469],"next_num":3,"trial_type":"ticket-choose","trial_index":43,"time_elapsed":561647,"internal_node_id":"0.0-43.0"},{"result":158,"points":2,"place":1,"phase":0,"sequence":24,"prices":[176,187,158,210,181,187,177,165,208,153],"times":[1427,631,977],"next_num":3,"trial_type":"ticket-choose","trial_index":44,"time_elapsed":567087,"internal_node_id":"0.0-44.0"},{"result":163,"points":2,"place":1,"phase":0,"sequence":25,"prices":[198,193,169,163,202,182,152,164,177,171],"times":[949,570,789,1060],"next_num":4,"trial_type":"ticket-choose","trial_index":45,"time_elapsed":572891,"internal_node_id":"0.0-45.0"},{"result":165,"points":2,"place":1,"phase":0,"sequence":26,"prices":[175,187,177,209,180,188,165,165,154,208],"times":[698,602,592,603,635,594,957],"next_num":7,"trial_type":"ticket-choose","trial_index":46,"time_elapsed":580760,"internal_node_id":"0.0-46.0"},{"result":168,"points":1,"place":2,"phase":0,"sequence":27,"prices":[175,185,167,224,181,186,178,168,208,156],"times":[970,747,978,563,605,625,623,2068],"next_num":8,"trial_type":"ticket-choose","trial_index":47,"time_elapsed":591343,"internal_node_id":"0.0-47.0"},{"result":165,"points":2,"place":1,"phase":0,"sequence":28,"prices":[175,186,165,214,179,187,177,166,153,208],"times":[927,696,1591],"next_num":3,"trial_type":"ticket-choose","trial_index":48,"time_elapsed":596785,"internal_node_id":"0.0-48.0"},{"result":156,"points":3,"place":0,"phase":0,"sequence":29,"prices":[175,185,178,215,181,186,167,168,208,156],"times":[792,654,632,622,623,757,1948,1821,591,810],"next_num":10,"trial_type":"ticket-choose","trial_index":49,"time_elapsed":610292,"internal_node_id":"0.0-49.0"},{"result":165,"points":3,"place":0,"phase":0,"sequence":30,"prices":[193,165,175,181,185,224,180,199,218,184],"times":[1011,1226],"next_num":2,"trial_type":"ticket-choose","trial_index":50,"time_elapsed":615220,"internal_node_id":"0.0-50.0"},{"result":163,"points":3,"place":0,"phase":0,"sequence":31,"prices":[168,199,196,198,185,195,227,163,177,166],"times":[1064,581,625,582,741,761,667,1092],"next_num":8,"trial_type":"ticket-choose","trial_index":51,"time_elapsed":624769,"internal_node_id":"0.0-51.0"},{"result":165,"points":2,"place":1,"phase":0,"sequence":32,"prices":[188,200,165,172,198,174,177,154,177,180],"times":[1093,591,987],"next_num":3,"trial_type":"ticket-choose","trial_index":52,"time_elapsed":629823,"internal_node_id":"0.0-52.0"},{"result":169,"points":1,"place":2,"phase":0,"sequence":33,"prices":[175,186,167,225,179,187,178,169,209,153],"times":[709,601,874,563,573,594,561,945],"next_num":8,"trial_type":"ticket-choose","trial_index":53,"time_elapsed":638485,"internal_node_id":"0.0-53.0"},{"result":158,"points":2,"place":1,"phase":0,"sequence":34,"prices":[175,186,177,209,181,188,158,167,208,154],"times":[813,695,592,573,687,594,1073],"next_num":7,"trial_type":"ticket-choose","trial_index":54,"time_elapsed":646691,"internal_node_id":"0.0-54.0"},{"result":165,"points":2,"place":1,"phase":0,"sequence":35,"prices":[175,187,165,209,180,188,177,166,154,208],"times":[1040,726,893],"next_num":3,"trial_type":"ticket-choose","trial_index":55,"time_elapsed":651558,"internal_node_id":"0.0-55.0"},{"result":165,"points":3,"place":0,"phase":0,"sequence":36,"prices":[196,165,170,184,187,211,171,201,202,185],"times":[813,882],"next_num":2,"trial_type":"ticket-choose","trial_index":56,"time_elapsed":655561,"internal_node_id":"0.0-56.0"},{"result":157,"points":3,"place":0,"phase":0,"sequence":37,"prices":[201,187,157,184,198,179,188,185,178,170],"times":[552,591,832],"next_num":3,"trial_type":"ticket-choose","trial_index":57,"time_elapsed":660013,"internal_node_id":"0.0-57.0"},{"result":163,"points":2,"place":1,"phase":0,"sequence":38,"prices":[175,186,176,210,179,187,163,166,153,208],"times":[594,622,561,581,779,665,905],"next_num":7,"trial_type":"ticket-choose","trial_index":58,"time_elapsed":667823,"internal_node_id":"0.0-58.0"},{"result":165,"points":2,"place":1,"phase":0,"sequence":39,"prices":[175,186,177,210,179,187,165,166,153,208],"times":[1074,622,592,590,798,624,894],"next_num":7,"trial_type":"ticket-choose","trial_index":59,"time_elapsed":676196,"internal_node_id":"0.0-59.0"},{"result":170,"points":1,"place":3,"phase":0,"sequence":40,"prices":[171,203,175,170,167,220,192,186,165,165],"times":[2927,553,635,959],"next_num":4,"trial_type":"ticket-choose","trial_index":60,"time_elapsed":683776,"internal_node_id":"0.0-60.0"},{"result":163,"points":2,"place":1,"phase":0,"sequence":41,"prices":[175,187,176,209,180,188,163,165,154,208],"times":[781,716,800,603,635,612,925],"next_num":7,"trial_type":"ticket-choose","trial_index":61,"time_elapsed":692003,"internal_node_id":"0.0-61.0"},{"result":165,"points":2,"place":1,"phase":0,"sequence":42,"prices":[174,186,165,212,181,187,177,167,153,209],"times":[773,747,924],"next_num":3,"trial_type":"ticket-choose","trial_index":62,"time_elapsed":696693,"internal_node_id":"0.0-62.0"},{"result":143,"points":3,"place":0,"phase":0,"sequence":43,"prices":[222,173,202,197,143,205,198,183,178,186],"times":[980,622,571,716,945],"next_num":5,"trial_type":"ticket-choose","trial_index":63,"time_elapsed":703255,"internal_node_id":"0.0-63.0"},{"result":158,"points":3,"place":0,"phase":0,"sequence":44,"prices":[210,184,226,193,215,158,199,175,176,208],"times":[751,582,581,624,727,1062],"next_num":6,"trial_type":"ticket-choose","trial_index":64,"time_elapsed":710579,"internal_node_id":"0.0-64.0"},{"result":165,"points":3,"place":0,"phase":0,"sequence":45,"prices":[192,165,171,178,188,217,172,195,197,186],"times":[771,894],"next_num":2,"trial_type":"ticket-choose","trial_index":65,"time_elapsed":714521,"internal_node_id":"0.0-65.0"},{"result":158,"points":2,"place":1,"phase":0,"sequence":46,"prices":[175,186,158,211,180,187,177,166,209,153],"times":[874,810,821],"next_num":3,"trial_type":"ticket-choose","trial_index":66,"time_elapsed":719305,"internal_node_id":"0.0-66.0"},{"result":165,"points":2,"place":1,"phase":0,"sequence":47,"prices":[201,165,162,166,185,214,165,202,204,179],"times":[657,862],"next_num":2,"trial_type":"ticket-choose","trial_index":67,"time_elapsed":723007,"internal_node_id":"0.0-67.0"},{"result":167,"points":2,"place":1,"phase":0,"sequence":48,"prices":[212,192,188,184,167,193,189,164,176,170],"times":[740,569,602,571,925],"next_num":5,"trial_type":"ticket-choose","trial_index":68,"time_elapsed":729218,"internal_node_id":"0.0-68.0"},{"result":158,"points":2,"place":1,"phase":0,"sequence":49,"prices":[175,186,177,221,180,187,158,166,209,153],"times":[1113,561,571,571,657,591,1060],"next_num":7,"trial_type":"ticket-choose","trial_index":69,"time_elapsed":737624,"internal_node_id":"0.0-69.0"},{"responses":[{"value":0,"offby":-1,"category":"$115 - $130","category_index":0},{"value":4,"offby":-1,"category":"$131 - $145","category_index":1},{"value":11,"offby":-1,"category":"$146 - $160","category_index":2},{"value":19,"offby":-3,"category":"$161 - $175","category_index":3},{"value":36,"offby":2,"category":"$176 - $190","category_index":4},{"value":25,"offby":10,"category":"$191 - $205","category_index":5},{"value":5,"offby":-6,"category":"$206 - $220","category_index":6}],"phase":1,"number":1,"trial_type":"bar-choose","trial_index":70,"time_elapsed":791152,"internal_node_id":"0.0-70.0"},{"rt":13041,"url":"\/christiane\/tickets\/utils\/testing2.html","trial_type":"point_update","trial_index":71,"time_elapsed":805431,"internal_node_id":"0.0-71.0"},{"phase":1,"order":[4,43,49,10,1,15,3,22,11,41,38,12,28,29,25,33,35,19,47,21,32,31,46,30,37,39,27,24,48,7,8,34,26,40,2,20,23,44,36,42,16,9,6,18,17,14,5,0,13,45],"trial_type":"store_order","trial_index":72,"time_elapsed":806433,"internal_node_id":"0.0-72.0"},{"result":167,"points":2,"place":1,"phase":1,"sequence":0,"prices":[178,175,185,215,167,181,186,168,208,156],"times":[1872,727,624,624,1164],"next_num":5,"trial_type":"ticket-choose","trial_index":73,"time_elapsed":815052,"internal_node_id":"0.0-73.0"},{"result":157,"points":3,"place":0,"phase":1,"sequence":1,"prices":[201,187,157,184,198,179,188,185,178,170],"times":[1146,664,976],"next_num":3,"trial_type":"ticket-choose","trial_index":74,"time_elapsed":820148,"internal_node_id":"0.0-74.0"},{"result":163,"points":1,"place":2,"phase":1,"sequence":2,"prices":[173,163,185,181,166,148,160,185,176,184],"times":[864,1683],"next_num":2,"trial_type":"ticket-choose","trial_index":75,"time_elapsed":824829,"internal_node_id":"0.0-75.0"},{"result":165,"points":2,"place":1,"phase":1,"sequence":3,"prices":[177,175,187,209,165,180,188,165,154,208],"times":[791,528,529,612,884],"next_num":5,"trial_type":"ticket-choose","trial_index":76,"time_elapsed":830746,"internal_node_id":"0.0-76.0"},{"result":156,"points":3,"place":0,"phase":1,"sequence":4,"prices":[167,175,185,224,178,181,186,168,208,156],"times":[1032,581,582,552,540,562,582,1550,552,749],"next_num":10,"trial_type":"ticket-choose","trial_index":77,"time_elapsed":841964,"internal_node_id":"0.0-77.0"},{"result":163,"points":2,"place":1,"phase":1,"sequence":5,"prices":[176,175,186,210,163,179,187,166,153,208],"times":[969,518,601,571,1289],"next_num":5,"trial_type":"ticket-choose","trial_index":78,"time_elapsed":848623,"internal_node_id":"0.0-78.0"},{"result":167,"points":2,"place":1,"phase":1,"sequence":6,"prices":[178,174,186,217,167,181,188,168,208,156],"times":[780,862,655,570,1083],"next_num":5,"trial_type":"ticket-choose","trial_index":79,"time_elapsed":855248,"internal_node_id":"0.0-79.0"},{"result":158,"points":2,"place":1,"phase":1,"sequence":7,"prices":[177,175,186,209,158,181,188,167,208,154],"times":[844,571,625,563,1050],"next_num":5,"trial_type":"ticket-choose","trial_index":80,"time_elapsed":861660,"internal_node_id":"0.0-80.0"},{"result":165,"points":2,"place":1,"phase":1,"sequence":8,"prices":[177,174,186,217,165,181,187,166,153,209],"times":[667,800,572,604,1153],"next_num":5,"trial_type":"ticket-choose","trial_index":81,"time_elapsed":868088,"internal_node_id":"0.0-81.0"},{"result":155,"points":2,"place":1,"phase":1,"sequence":9,"prices":[200,207,155,158,156,168,167,135,178,177],"times":[553,653,975],"next_num":3,"trial_type":"ticket-choose","trial_index":82,"time_elapsed":872518,"internal_node_id":"0.0-82.0"},{"result":166,"points":1,"place":2,"phase":1,"sequence":10,"prices":[163,199,196,199,185,195,227,163,177,166],"times":[522,581,645,559,666,654,633,2713,622,695],"next_num":10,"trial_type":"ticket-choose","trial_index":83,"time_elapsed":884595,"internal_node_id":"0.0-83.0"},{"result":208,"points":0,"place":8,"phase":1,"sequence":11,"prices":[163,175,186,214,176,179,187,166,153,208],"times":[1635,582,612,540,626,540,602,1247,580,623],"next_num":10,"trial_type":"ticket-choose","trial_index":84,"time_elapsed":896715,"internal_node_id":"0.0-84.0"},{"result":165,"points":3,"place":0,"phase":1,"sequence":12,"prices":[196,171,170,184,187,165,211,169,201,202],"times":[1115,1112,518,593,623,1029],"next_num":6,"trial_type":"ticket-choose","trial_index":85,"time_elapsed":905284,"internal_node_id":"0.0-85.0"},{"result":165,"points":1,"place":2,"phase":1,"sequence":13,"prices":[185,179,191,165,161,173,199,150,188,168],"times":[989,706,633,1425],"next_num":4,"trial_type":"ticket-choose","trial_index":86,"time_elapsed":911714,"internal_node_id":"0.0-86.0"},{"result":165,"points":2,"place":1,"phase":1,"sequence":14,"prices":[201,204,179,166,185,165,214,156,202,165],"times":[637,561,582,695,584,1123],"next_num":6,"trial_type":"ticket-choose","trial_index":87,"time_elapsed":918735,"internal_node_id":"0.0-87.0"},{"result":159,"points":3,"place":0,"phase":1,"sequence":15,"prices":[183,179,188,165,168,173,205,159,187,191],"times":[586,550,562,1220,864,605,625,989],"next_num":8,"trial_type":"ticket-choose","trial_index":88,"time_elapsed":928068,"internal_node_id":"0.0-88.0"},{"result":153,"points":2,"place":1,"phase":1,"sequence":16,"prices":[167,153,172,185,195,143,184,211,177,227],"times":[854,934],"next_num":2,"trial_type":"ticket-choose","trial_index":89,"time_elapsed":931905,"internal_node_id":"0.0-89.0"},{"result":167,"points":1,"place":2,"phase":1,"sequence":17,"prices":[158,175,186,209,177,181,188,167,208,154],"times":[876,592,935,696,550,851,761,1988],"next_num":8,"trial_type":"ticket-choose","trial_index":90,"time_elapsed":942446,"internal_node_id":"0.0-90.0"},{"result":152,"points":3,"place":0,"phase":1,"sequence":18,"prices":[200,180,203,152,175,170,160,154,176,191],"times":[1012,634,614,924],"next_num":4,"trial_type":"ticket-choose","trial_index":91,"time_elapsed":948085,"internal_node_id":"0.0-91.0"},{"result":158,"points":2,"place":1,"phase":1,"sequence":19,"prices":[177,175,186,221,158,180,187,166,209,153],"times":[906,570,654,593,1021],"next_num":5,"trial_type":"ticket-choose","trial_index":92,"time_elapsed":954496,"internal_node_id":"0.0-92.0"},{"result":161,"points":3,"place":0,"phase":1,"sequence":20,"prices":[193,174,224,165,187,190,224,161,194,195],"times":[616,572,561,1372,571,571,624,955],"next_num":8,"trial_type":"ticket-choose","trial_index":93,"time_elapsed":963720,"internal_node_id":"0.0-93.0"},{"result":165,"points":1,"place":2,"phase":1,"sequence":21,"prices":[171,169,186,165,163,167,220,148,187,165],"times":[1148,1381,560,1039],"next_num":4,"trial_type":"ticket-choose","trial_index":94,"time_elapsed":970273,"internal_node_id":"0.0-94.0"},{"result":158,"points":3,"place":0,"phase":1,"sequence":22,"prices":[214,184,226,192,215,158,199,175,176,208],"times":[1114,718,518,612,654,969],"next_num":6,"trial_type":"ticket-choose","trial_index":95,"time_elapsed":977785,"internal_node_id":"0.0-95.0"},{"result":157,"points":3,"place":0,"phase":1,"sequence":23,"prices":[191,170,182,165,175,182,203,157,195,200],"times":[949,581,675,936,581,603,602,926],"next_num":8,"trial_type":"ticket-choose","trial_index":96,"time_elapsed":987032,"internal_node_id":"0.0-96.0"},{"result":151,"points":3,"place":0,"phase":1,"sequence":24,"prices":[199,193,169,165,202,182,151,164,176,171],"times":[771,592,1174,1582,616,646,955],"next_num":7,"trial_type":"ticket-choose","trial_index":97,"time_elapsed":996484,"internal_node_id":"0.0-97.0"},{"result":165,"points":3,"place":0,"phase":1,"sequence":25,"prices":[189,167,180,197,165,168,172,213,178,171],"times":[700,2011,642,654,2133],"next_num":5,"trial_type":"ticket-choose","trial_index":98,"time_elapsed":1005424,"internal_node_id":"0.0-98.0"},{"result":165,"points":3,"place":0,"phase":1,"sequence":26,"prices":[192,172,171,178,188,165,217,168,195,197],"times":[1583,1049,851,633,1164,956],"next_num":6,"trial_type":"ticket-choose","trial_index":99,"time_elapsed":1014638,"internal_node_id":"0.0-99.0"},{"result":184,"points":1,"place":4,"phase":1,"sequence":27,"prices":[193,181,175,181,185,165,224,199,218,184],"times":[1032,581,613,625,646,937,612,613,562,757],"next_num":10,"trial_type":"ticket-choose","trial_index":100,"time_elapsed":1025662,"internal_node_id":"0.0-100.0"},{"result":147,"points":3,"place":0,"phase":1,"sequence":28,"prices":[181,214,169,147,182,193,178,184,176,179],"times":[1832,695,1185,1072],"next_num":4,"trial_type":"ticket-choose","trial_index":101,"time_elapsed":1033047,"internal_node_id":"0.0-101.0"},{"result":167,"points":1,"place":2,"phase":1,"sequence":29,"prices":[165,175,187,209,177,180,188,167,154,208],"times":[927,655,715,602,570,925,643,884],"next_num":8,"trial_type":"ticket-choose","trial_index":102,"time_elapsed":1042211,"internal_node_id":"0.0-102.0"},{"result":153,"points":3,"place":0,"phase":1,"sequence":30,"prices":[165,174,186,212,177,181,187,166,153,209],"times":[1020,519,615,599,740,595,705,1309,841],"next_num":9,"trial_type":"ticket-choose","trial_index":103,"time_elapsed":1052740,"internal_node_id":"0.0-103.0"},{"result":156,"points":2,"place":1,"phase":1,"sequence":31,"prices":[180,156,149,160,168,186,172,198,176,195],"times":[1209,863],"next_num":2,"trial_type":"ticket-choose","trial_index":104,"time_elapsed":1056765,"internal_node_id":"0.0-104.0"},{"result":152,"points":3,"place":0,"phase":1,"sequence":32,"prices":[200,173,182,169,207,165,152,202,161,204],"times":[990,603,655,696,603,851,945],"next_num":7,"trial_type":"ticket-choose","trial_index":105,"time_elapsed":1065074,"internal_node_id":"0.0-105.0"},{"result":150,"points":3,"place":0,"phase":1,"sequence":33,"prices":[190,150,175,161,188,207,157,194,178,199],"times":[670,892],"next_num":2,"trial_type":"ticket-choose","trial_index":106,"time_elapsed":1068704,"internal_node_id":"0.0-106.0"},{"result":153,"points":3,"place":0,"phase":1,"sequence":34,"prices":[167,175,186,225,178,179,187,169,209,153],"times":[625,631,561,633,559,582,698,2942,602,716],"next_num":10,"trial_type":"ticket-choose","trial_index":107,"time_elapsed":1081052,"internal_node_id":"0.0-107.0"},{"result":158,"points":2,"place":1,"phase":1,"sequence":35,"prices":[158,176,187,210,177,181,187,165,208,153],"times":[1093],"next_num":1,"trial_type":"ticket-choose","trial_index":108,"time_elapsed":1084265,"internal_node_id":"0.0-108.0"},{"result":158,"points":2,"place":1,"phase":1,"sequence":36,"prices":[177,176,187,225,158,181,187,165,208,153],"times":[740,581,726,687,1000],"next_num":5,"trial_type":"ticket-choose","trial_index":109,"time_elapsed":1090698,"internal_node_id":"0.0-109.0"},{"result":159,"points":1,"place":2,"phase":1,"sequence":37,"prices":[181,159,149,175,185,151,163,174,178,207],"times":[1125,986],"next_num":2,"trial_type":"ticket-choose","trial_index":110,"time_elapsed":1094869,"internal_node_id":"0.0-110.0"},{"result":154,"points":3,"place":0,"phase":1,"sequence":38,"prices":[187,201,165,172,196,174,178,154,172,180],"times":[635,628,768,552,646,581,814,800],"next_num":8,"trial_type":"ticket-choose","trial_index":111,"time_elapsed":1103686,"internal_node_id":"0.0-111.0"},{"result":186,"points":1,"place":4,"phase":1,"sequence":39,"prices":[220,173,201,197,169,205,198,183,178,186],"times":[690,623,602,603,685,623,623,696,622,1404],"next_num":10,"trial_type":"ticket-choose","trial_index":112,"time_elapsed":1114879,"internal_node_id":"0.0-112.0"},{"result":165,"points":1,"place":2,"phase":1,"sequence":40,"prices":[176,187,179,209,163,180,188,165,154,208],"times":[896,654,572,602,1008,593,580,882],"next_num":8,"trial_type":"ticket-choose","trial_index":113,"time_elapsed":1124000,"internal_node_id":"0.0-113.0"},{"result":166,"points":1,"place":2,"phase":1,"sequence":41,"prices":[177,175,186,210,165,179,187,166,153,208],"times":[770,550,593,581,664,1122,685,1601],"next_num":8,"trial_type":"ticket-choose","trial_index":114,"time_elapsed":1133943,"internal_node_id":"0.0-114.0"},{"result":153,"points":3,"place":0,"phase":1,"sequence":42,"prices":[165,175,186,214,177,179,187,166,153,208],"times":[1176,581,624,552,563,531,676,1070,924],"next_num":9,"trial_type":"ticket-choose","trial_index":115,"time_elapsed":1144194,"internal_node_id":"0.0-115.0"},{"result":166,"points":1,"place":2,"phase":1,"sequence":43,"prices":[158,175,186,211,177,180,187,166,209,153],"times":[1603,685,562,580,561,602,634,1748],"next_num":8,"trial_type":"ticket-choose","trial_index":116,"time_elapsed":1154524,"internal_node_id":"0.0-116.0"},{"result":153,"points":3,"place":0,"phase":1,"sequence":44,"prices":[176,186,178,217,163,181,187,166,153,209],"times":[760,529,530,603,969,573,551,1310,987],"next_num":9,"trial_type":"ticket-choose","trial_index":117,"time_elapsed":1164799,"internal_node_id":"0.0-117.0"},{"result":153,"points":3,"place":0,"phase":1,"sequence":45,"prices":[163,174,186,212,176,181,187,166,153,209],"times":[1177,518,592,541,570,624,678,1166,790],"next_num":9,"trial_type":"ticket-choose","trial_index":118,"time_elapsed":1174999,"internal_node_id":"0.0-118.0"},{"result":153,"points":3,"place":0,"phase":1,"sequence":46,"prices":[178,175,186,212,167,179,187,169,209,153],"times":[990,634,551,581,758,666,591,604,799,666],"next_num":10,"trial_type":"ticket-choose","trial_index":119,"time_elapsed":1185579,"internal_node_id":"0.0-119.0"},{"result":156,"points":3,"place":0,"phase":1,"sequence":47,"prices":[167,174,186,211,178,181,188,168,208,156],"times":[1022,582,633,571,572,601,592,913,594,664],"next_num":10,"trial_type":"ticket-choose","trial_index":120,"time_elapsed":1196116,"internal_node_id":"0.0-120.0"},{"result":154,"points":3,"place":0,"phase":1,"sequence":48,"prices":[163,175,187,209,176,180,188,165,154,208],"times":[876,529,508,602,550,592,592,1189,936],"next_num":9,"trial_type":"ticket-choose","trial_index":121,"time_elapsed":1205918,"internal_node_id":"0.0-121.0"},{"result":170,"points":1,"place":2,"phase":1,"sequence":49,"prices":[199,191,188,174,167,193,189,164,176,170],"times":[905,540,540,592,560,633,541,1018,674,706],"next_num":10,"trial_type":"ticket-choose","trial_index":122,"time_elapsed":1216520,"internal_node_id":"0.0-122.0"},{"responses":[{"value":0,"offby":-1,"category":"$115 - $130","category_index":0},{"value":0,"offby":-5,"category":"$131 - $145","category_index":1},{"value":10,"offby":-2,"category":"$146 - $160","category_index":2},{"value":17,"offby":-5,"category":"$161 - $175","category_index":3},{"value":22,"offby":-12,"category":"$176 - $190","category_index":4},{"value":33,"offby":18,"category":"$191 - $205","category_index":5},{"value":18,"offby":7,"category":"$206 - $220","category_index":6}],"phase":1,"number":1,"trial_type":"bar-choose","trial_index":123,"time_elapsed":1237510,"internal_node_id":"0.0-123.0"},{"special_comment":"I noticed the better priced tended to be towards the end of the options ","trial_type":"special_sequence","trial_index":124,"time_elapsed":1262659,"internal_node_id":"0.0-124.0"},{"during":"Nothing","bonus":288,"trial_type":"final","trial_index":125,"time_elapsed":1284063,"internal_node_id":"0.0-125.0"}],"bonus":288}