{"start_time":"2017-05-24 13:08:41","end_time":"2017-05-24 13:38:47","points_phase0":113,"points_phase1":119,"phase_order":0,"age":29,"gender":"m","tries":1,"during":"Nothing","worker_id":"A222XREQ12K58P","assignment_id":"3X66WABAJXBM0EKQZPKDLF1F1RQG3G","data":[{"rt":13748,"url":"\/christiane\/tickets\/utils\/consent.html","trial_type":"html","trial_index":0,"time_elapsed":13899,"internal_node_id":"0.0-0.0"},{"age":29,"gender":"m","trial_type":"age","trial_index":1,"time_elapsed":41022,"internal_node_id":"0.0-1.0"},{"worker_id":"A222XREQ12K58P","trial_type":"workerid","trial_index":2,"time_elapsed":46347,"internal_node_id":"0.0-2.0"},{"tries":1,"trial_type":"instructions_check","trial_index":3,"time_elapsed":84997,"internal_node_id":"0.0-3.0"},{"rt":19031,"url":"\/christiane\/tickets\/utils\/start.html","trial_type":"html","trial_index":4,"time_elapsed":105185,"internal_node_id":"0.0-4.0"},{"trial_type":"number-animation","trial_index":5,"time_elapsed":137660,"internal_node_id":"0.0-5.0"},{"phase":0,"sequence":0,"avg":181,"response":182,"trial_type":"training_avg","trial_index":6,"time_elapsed":153041,"internal_node_id":"0.0-6.0"},{"trial_type":"number-animation","trial_index":7,"time_elapsed":181931,"internal_node_id":"0.0-7.0"},{"phase":0,"sequence":1,"avg":188,"response":188,"trial_type":"training_avg","trial_index":8,"time_elapsed":194482,"internal_node_id":"0.0-8.0"},{"trial_type":"number-animation","trial_index":9,"time_elapsed":217947,"internal_node_id":"0.0-9.0"},{"phase":0,"sequence":2,"avg":188,"response":192,"trial_type":"training_avg","trial_index":10,"time_elapsed":227764,"internal_node_id":"0.0-10.0"},{"trial_type":"number-animation","trial_index":11,"time_elapsed":243852,"internal_node_id":"0.0-11.0"},{"phase":0,"sequence":3,"avg":177,"response":173,"trial_type":"training_avg","trial_index":12,"time_elapsed":251021,"internal_node_id":"0.0-12.0"},{"trial_type":"number-animation","trial_index":13,"time_elapsed":265035,"internal_node_id":"0.0-13.0"},{"phase":0,"sequence":4,"avg":182,"response":186,"trial_type":"training_avg","trial_index":14,"time_elapsed":272582,"internal_node_id":"0.0-14.0"},{"responses":[{"value":1,"offby":0,"category":"$115 - $130","category_index":0},{"value":4,"offby":-1,"category":"$131 - $145","category_index":1},{"value":8,"offby":-4,"category":"$146 - $160","category_index":2},{"value":22,"offby":0,"category":"$161 - $175","category_index":3},{"value":36,"offby":2,"category":"$176 - $190","category_index":4},{"value":17,"offby":2,"category":"$191 - $205","category_index":5},{"value":12,"offby":1,"category":"$206 - $220","category_index":6}],"phase":0,"number":0,"trial_type":"bar-choose","trial_index":15,"time_elapsed":409280,"internal_node_id":"0.0-15.0"},{"rt":38633,"url":"\/christiane\/tickets\/utils\/testing.html","trial_type":"html","trial_index":16,"time_elapsed":449072,"internal_node_id":"0.0-16.0"},{"phase":0,"order":[47,9,4,30,22,6,39,44,37,42,31,48,35,13,19,36,26,14,40,20,41,10,17,25,15,49,5,7,23,43,27,3,11,24,18,21,46,0,33,16,2,12,38,45,29,1,28,34,8,32],"trial_type":"store_order","trial_index":17,"time_elapsed":450073,"internal_node_id":"0.0-17.0"},{"result":165,"points":2,"place":1,"phase":0,"sequence":-1,"prices":[184,180,224,165,181,199,185,193,218,146],"times":[3203,1670,991,1840],"next_num":4,"trial_type":"ticket-choose","trial_index":18,"time_elapsed":461623,"internal_node_id":"0.0-18.0"},{"rt":29588,"url":"\/christiane\/tickets\/utils\/testing_after.html","trial_type":"html","trial_index":19,"time_elapsed":492369,"internal_node_id":"0.0-19.0"},{"result":152,"points":3,"place":0,"phase":0,"sequence":0,"prices":[200,181,203,152,175,171,160,154,176,191],"times":[2437,981,632,1809],"next_num":4,"trial_type":"ticket-choose","trial_index":20,"time_elapsed":502820,"internal_node_id":"0.0-20.0"},{"result":165,"points":2,"place":1,"phase":0,"sequence":1,"prices":[175,186,177,210,179,187,165,166,153,208],"times":[1081,630,663,541,1198,631,1283],"next_num":7,"trial_type":"ticket-choose","trial_index":21,"time_elapsed":512333,"internal_node_id":"0.0-21.0"},{"result":167,"points":2,"place":1,"phase":0,"sequence":2,"prices":[175,185,178,215,181,186,167,168,208,156],"times":[1151,446,457,468,941,638,2081],"next_num":7,"trial_type":"ticket-choose","trial_index":22,"time_elapsed":521949,"internal_node_id":"0.0-22.0"},{"result":165,"points":3,"place":0,"phase":0,"sequence":3,"prices":[191,172,169,175,182,203,170,195,165,176],"times":[601,477,2151,679,518,582,1005,542,1160],"next_num":9,"trial_type":"ticket-choose","trial_index":23,"time_elapsed":534009,"internal_node_id":"0.0-23.0"},{"result":158,"points":2,"place":1,"phase":0,"sequence":4,"prices":[175,186,177,209,181,188,158,167,208,154],"times":[900,487,423,568,5814,479,1380],"next_num":7,"trial_type":"ticket-choose","trial_index":24,"time_elapsed":547338,"internal_node_id":"0.0-24.0"},{"result":166,"points":1,"place":2,"phase":0,"sequence":5,"prices":[175,186,165,214,179,187,177,166,153,208],"times":[466,440,892,471,549,510,599,1449],"next_num":8,"trial_type":"ticket-choose","trial_index":25,"time_elapsed":556271,"internal_node_id":"0.0-25.0"},{"result":171,"points":1,"place":3,"phase":0,"sequence":6,"prices":[189,167,180,197,165,168,172,213,178,171],"times":[1006,861,430,478,2806,711,535,551,990,1110],"next_num":10,"trial_type":"ticket-choose","trial_index":26,"time_elapsed":569451,"internal_node_id":"0.0-26.0"},{"result":159,"points":1,"place":2,"phase":0,"sequence":7,"prices":[180,159,149,175,185,141,163,174,178,207],"times":[872,1200],"next_num":2,"trial_type":"ticket-choose","trial_index":27,"time_elapsed":573763,"internal_node_id":"0.0-27.0"},{"result":163,"points":2,"place":1,"phase":0,"sequence":8,"prices":[198,193,169,163,202,182,152,164,177,171],"times":[489,326,590,1807],"next_num":4,"trial_type":"ticket-choose","trial_index":28,"time_elapsed":579514,"internal_node_id":"0.0-28.0"},{"result":143,"points":3,"place":0,"phase":0,"sequence":9,"prices":[222,173,202,197,143,205,198,183,178,186],"times":[505,462,424,493,1146],"next_num":5,"trial_type":"ticket-choose","trial_index":29,"time_elapsed":585477,"internal_node_id":"0.0-29.0"},{"result":165,"points":3,"place":0,"phase":0,"sequence":10,"prices":[171,203,175,170,167,220,192,186,165,165],"times":[439,446,414,406,727,509,566,656,1314],"next_num":9,"trial_type":"ticket-choose","trial_index":30,"time_elapsed":594701,"internal_node_id":"0.0-30.0"},{"result":147,"points":3,"place":0,"phase":0,"sequence":11,"prices":[181,215,169,147,182,193,177,184,176,179],"times":[1295,670,711,1068],"next_num":4,"trial_type":"ticket-choose","trial_index":31,"time_elapsed":600970,"internal_node_id":"0.0-31.0"},{"result":154,"points":2,"place":1,"phase":0,"sequence":12,"prices":[168,154,172,185,195,144,184,211,177,227],"times":[530,1250],"next_num":2,"trial_type":"ticket-choose","trial_index":32,"time_elapsed":604935,"internal_node_id":"0.0-32.0"},{"result":165,"points":1,"place":2,"phase":0,"sequence":13,"prices":[175,187,163,209,180,188,176,165,154,208],"times":[431,455,1645,487,463,446,445,1329],"next_num":8,"trial_type":"ticket-choose","trial_index":33,"time_elapsed":614150,"internal_node_id":"0.0-33.0"},{"result":158,"points":2,"place":1,"phase":0,"sequence":14,"prices":[175,186,158,209,181,188,177,167,208,154],"times":[567,454,1031],"next_num":3,"trial_type":"ticket-choose","trial_index":34,"time_elapsed":618493,"internal_node_id":"0.0-34.0"},{"result":154,"points":3,"place":0,"phase":0,"sequence":15,"prices":[188,200,165,172,198,174,177,154,177,180],"times":[455,520,806,480,468,534,518,1141],"next_num":8,"trial_type":"ticket-choose","trial_index":35,"time_elapsed":626612,"internal_node_id":"0.0-35.0"},{"result":161,"points":3,"place":0,"phase":0,"sequence":16,"prices":[200,165,165,173,182,207,161,202,204,180],"times":[825,680,677,664,573,632,1159],"next_num":7,"trial_type":"ticket-choose","trial_index":36,"time_elapsed":634985,"internal_node_id":"0.0-36.0"},{"result":163,"points":2,"place":1,"phase":0,"sequence":17,"prices":[174,186,163,212,181,187,176,166,153,209],"times":[19300,536,1591],"next_num":3,"trial_type":"ticket-choose","trial_index":37,"time_elapsed":658674,"internal_node_id":"0.0-37.0"},{"result":150,"points":3,"place":0,"phase":0,"sequence":18,"prices":[189,150,175,160,188,207,158,194,178,199],"times":[459,856],"next_num":2,"trial_type":"ticket-choose","trial_index":38,"time_elapsed":662113,"internal_node_id":"0.0-38.0"},{"result":158,"points":2,"place":1,"phase":0,"sequence":19,"prices":[176,187,158,210,181,187,177,165,208,153],"times":[421,414,861],"next_num":3,"trial_type":"ticket-choose","trial_index":39,"time_elapsed":666015,"internal_node_id":"0.0-39.0"},{"result":155,"points":2,"place":1,"phase":0,"sequence":20,"prices":[201,207,155,158,156,165,167,135,178,177],"times":[413,375,871],"next_num":3,"trial_type":"ticket-choose","trial_index":40,"time_elapsed":669919,"internal_node_id":"0.0-40.0"},{"result":154,"points":3,"place":0,"phase":0,"sequence":21,"prices":[175,187,177,209,180,188,165,165,154,208],"times":[391,430,408,461,431,383,407,455,904],"next_num":9,"trial_type":"ticket-choose","trial_index":41,"time_elapsed":677483,"internal_node_id":"0.0-41.0"},{"result":163,"points":2,"place":1,"phase":0,"sequence":22,"prices":[174,186,176,217,181,187,163,166,153,209],"times":[642,398,425,501,495,422,981],"next_num":7,"trial_type":"ticket-choose","trial_index":42,"time_elapsed":684452,"internal_node_id":"0.0-42.0"},{"result":162,"points":3,"place":0,"phase":0,"sequence":23,"prices":[201,165,162,166,185,214,165,202,204,179],"times":[328,535,2750],"next_num":3,"trial_type":"ticket-choose","trial_index":43,"time_elapsed":690297,"internal_node_id":"0.0-43.0"},{"result":163,"points":2,"place":1,"phase":0,"sequence":24,"prices":[175,186,176,210,179,187,163,166,153,208],"times":[459,343,462,464,431,415,1411],"next_num":7,"trial_type":"ticket-choose","trial_index":44,"time_elapsed":697430,"internal_node_id":"0.0-44.0"},{"result":148,"points":3,"place":0,"phase":0,"sequence":25,"prices":[183,163,185,180,166,148,160,186,176,184],"times":[477,792,462,453,3303,1054],"next_num":6,"trial_type":"ticket-choose","trial_index":45,"time_elapsed":706825,"internal_node_id":"0.0-45.0"},{"result":167,"points":2,"place":1,"phase":0,"sequence":26,"prices":[175,186,178,212,179,187,167,169,209,153],"times":[474,415,415,593,422,416,1250],"next_num":7,"trial_type":"ticket-choose","trial_index":46,"time_elapsed":713829,"internal_node_id":"0.0-46.0"},{"result":154,"points":3,"place":0,"phase":0,"sequence":27,"prices":[175,187,165,209,180,188,177,166,154,208],"times":[360,351,302,455,455,495,703,896,973],"next_num":9,"trial_type":"ticket-choose","trial_index":47,"time_elapsed":722221,"internal_node_id":"0.0-47.0"},{"result":158,"points":2,"place":1,"phase":0,"sequence":28,"prices":[176,187,177,225,181,187,158,165,208,153],"times":[604,367,582,1185,636,455,994],"next_num":7,"trial_type":"ticket-choose","trial_index":48,"time_elapsed":730195,"internal_node_id":"0.0-48.0"},{"result":157,"points":3,"place":0,"phase":0,"sequence":29,"prices":[201,187,157,184,198,179,188,185,178,170],"times":[200047,558,2064],"next_num":3,"trial_type":"ticket-choose","trial_index":49,"time_elapsed":935232,"internal_node_id":"0.0-49.0"},{"result":186,"points":1,"place":4,"phase":0,"sequence":30,"prices":[192,165,171,178,188,217,172,195,197,186],"times":[470,558,431,399,609,549,495,519,503,1016],"next_num":10,"trial_type":"ticket-choose","trial_index":50,"time_elapsed":944687,"internal_node_id":"0.0-50.0"},{"result":167,"points":2,"place":1,"phase":0,"sequence":31,"prices":[174,186,178,217,181,188,167,168,208,156],"times":[646,431,430,470,440,415,1198],"next_num":7,"trial_type":"ticket-choose","trial_index":51,"time_elapsed":951892,"internal_node_id":"0.0-51.0"},{"result":165,"points":2,"place":1,"phase":0,"sequence":32,"prices":[174,186,177,217,181,187,165,166,153,209],"times":[570,399,383,432,399,385,996],"next_num":7,"trial_type":"ticket-choose","trial_index":52,"time_elapsed":958403,"internal_node_id":"0.0-52.0"},{"result":184,"points":1,"place":4,"phase":0,"sequence":33,"prices":[193,165,175,181,185,224,180,199,218,184],"times":[665,357,399,365,519,535,464,503,503,1127],"next_num":10,"trial_type":"ticket-choose","trial_index":53,"time_elapsed":967639,"internal_node_id":"0.0-53.0"},{"result":158,"points":2,"place":1,"phase":0,"sequence":34,"prices":[175,186,158,211,180,187,177,166,209,153],"times":[519,438,1035],"next_num":3,"trial_type":"ticket-choose","trial_index":54,"time_elapsed":971771,"internal_node_id":"0.0-54.0"},{"result":158,"points":2,"place":1,"phase":0,"sequence":35,"prices":[175,186,177,221,180,187,158,166,209,153],"times":[403,423,407,437,439,406,968],"next_num":7,"trial_type":"ticket-choose","trial_index":55,"time_elapsed":978107,"internal_node_id":"0.0-55.0"},{"result":158,"points":3,"place":0,"phase":0,"sequence":36,"prices":[210,184,226,193,215,158,199,175,176,208],"times":[417,606,448,407,391,1017],"next_num":6,"trial_type":"ticket-choose","trial_index":56,"time_elapsed":984382,"internal_node_id":"0.0-56.0"},{"result":167,"points":2,"place":1,"phase":0,"sequence":37,"prices":[174,186,167,211,181,188,178,168,208,156],"times":[608,1735,1782],"next_num":3,"trial_type":"ticket-choose","trial_index":57,"time_elapsed":990571,"internal_node_id":"0.0-57.0"},{"result":167,"points":2,"place":1,"phase":0,"sequence":38,"prices":[183,182,192,168,173,205,167,187,165,170],"times":[288,336,446,679,511,495,1561],"next_num":7,"trial_type":"ticket-choose","trial_index":58,"time_elapsed":997891,"internal_node_id":"0.0-58.0"},{"result":163,"points":2,"place":1,"phase":0,"sequence":39,"prices":[175,187,176,209,180,188,163,165,154,208],"times":[414,391,372,406,1712,432,1541],"next_num":7,"trial_type":"ticket-choose","trial_index":59,"time_elapsed":1006083,"internal_node_id":"0.0-59.0"},{"result":169,"points":1,"place":2,"phase":0,"sequence":40,"prices":[175,186,167,225,179,187,178,169,209,153],"times":[1354,400,335,383,494,511,463,1337],"next_num":8,"trial_type":"ticket-choose","trial_index":60,"time_elapsed":1014882,"internal_node_id":"0.0-60.0"},{"result":153,"points":3,"place":0,"phase":0,"sequence":41,"prices":[175,186,163,214,179,187,176,166,153,208],"times":[539,376,1670,375,391,416,543,1509,872],"next_num":9,"trial_type":"ticket-choose","trial_index":61,"time_elapsed":1024795,"internal_node_id":"0.0-61.0"},{"result":163,"points":3,"place":0,"phase":0,"sequence":42,"prices":[168,199,196,198,185,195,227,163,177,166],"times":[954,448,471,391,431,455,472,1253],"next_num":8,"trial_type":"ticket-choose","trial_index":62,"time_elapsed":1032819,"internal_node_id":"0.0-62.0"},{"result":164,"points":3,"place":0,"phase":0,"sequence":43,"prices":[212,192,188,184,167,193,189,164,176,170],"times":[546,292,295,309,358,407,391,1098],"next_num":8,"trial_type":"ticket-choose","trial_index":63,"time_elapsed":1039603,"internal_node_id":"0.0-63.0"},{"result":165,"points":3,"place":0,"phase":0,"sequence":44,"prices":[185,170,182,201,173,199,171,188,165,168],"times":[593,375,320,494,383,528,1885,463,757],"next_num":9,"trial_type":"ticket-choose","trial_index":64,"time_elapsed":1048763,"internal_node_id":"0.0-64.0"},{"result":156,"points":3,"place":0,"phase":0,"sequence":45,"prices":[175,185,167,224,181,186,178,168,208,156],"times":[2913,414,776,391,374,384,406,1478,527,635],"next_num":10,"trial_type":"ticket-choose","trial_index":65,"time_elapsed":1060771,"internal_node_id":"0.0-65.0"},{"result":185,"points":1,"place":4,"phase":0,"sequence":46,"prices":[196,165,170,184,187,211,171,201,202,185],"times":[747,726,311,367,383,454,375,423,455,814],"next_num":10,"trial_type":"ticket-choose","trial_index":66,"time_elapsed":1069387,"internal_node_id":"0.0-66.0"},{"result":155,"points":2,"place":1,"phase":0,"sequence":47,"prices":[181,155,148,161,168,187,172,199,176,194],"times":[643,1710],"next_num":2,"trial_type":"ticket-choose","trial_index":67,"time_elapsed":1073731,"internal_node_id":"0.0-67.0"},{"result":153,"points":3,"place":0,"phase":0,"sequence":48,"prices":[174,186,165,212,181,187,177,167,153,209],"times":[530,414,375,367,359,382,391,1902,576],"next_num":9,"trial_type":"ticket-choose","trial_index":68,"time_elapsed":1082923,"internal_node_id":"0.0-68.0"},{"result":165,"points":3,"place":0,"phase":0,"sequence":49,"prices":[193,169,171,187,190,224,174,194,165,188],"times":[1269,965,358,382,463,495,479,471,1279],"next_num":9,"trial_type":"ticket-choose","trial_index":69,"time_elapsed":1092827,"internal_node_id":"0.0-69.0"},{"responses":[{"value":1,"offby":0,"category":"$115 - $130","category_index":0},{"value":5,"offby":0,"category":"$131 - $145","category_index":1},{"value":14,"offby":2,"category":"$146 - $160","category_index":2},{"value":20,"offby":-2,"category":"$161 - $175","category_index":3},{"value":28,"offby":-6,"category":"$176 - $190","category_index":4},{"value":20,"offby":5,"category":"$191 - $205","category_index":5},{"value":12,"offby":1,"category":"$206 - $220","category_index":6}],"phase":1,"number":1,"trial_type":"bar-choose","trial_index":70,"time_elapsed":1169062,"internal_node_id":"0.0-70.0"},{"rt":30585,"url":"\/christiane\/tickets\/utils\/testing2.html","trial_type":"point_update","trial_index":71,"time_elapsed":1200933,"internal_node_id":"0.0-71.0"},{"phase":1,"order":[48,29,1,32,17,27,9,33,6,30,26,10,12,2,35,37,19,46,18,25,47,11,43,38,3,49,28,8,21,40,39,44,0,24,15,7,36,4,42,41,20,45,16,31,14,34,13,5,23,22],"trial_type":"store_order","trial_index":72,"time_elapsed":1201935,"internal_node_id":"0.0-72.0"},{"result":179,"points":1,"place":4,"phase":1,"sequence":0,"prices":[181,214,169,147,182,193,178,184,176,179],"times":[1495,1430,1270,351,1007,430,486,487,502,996],"next_num":10,"trial_type":"ticket-choose","trial_index":73,"time_elapsed":1213899,"internal_node_id":"0.0-73.0"},{"result":161,"points":2,"place":1,"phase":1,"sequence":1,"prices":[185,179,191,165,161,173,199,150,188,168],"times":[542,391,424,613,948],"next_num":5,"trial_type":"ticket-choose","trial_index":74,"time_elapsed":1219275,"internal_node_id":"0.0-74.0"},{"result":168,"points":1,"place":2,"phase":1,"sequence":2,"prices":[167,175,185,224,178,181,186,168,208,156],"times":[410,512,525,512,447,455,463,1081],"next_num":8,"trial_type":"ticket-choose","trial_index":75,"time_elapsed":1226835,"internal_node_id":"0.0-75.0"},{"result":161,"points":3,"place":0,"phase":1,"sequence":3,"prices":[193,174,224,165,187,190,224,161,194,195],"times":[257,329,501,686,391,439,382,736],"next_num":8,"trial_type":"ticket-choose","trial_index":76,"time_elapsed":1233603,"internal_node_id":"0.0-76.0"},{"result":153,"points":3,"place":0,"phase":1,"sequence":4,"prices":[176,186,178,217,163,181,187,166,153,209],"times":[282,256,277,359,360,446,399,719,807],"next_num":9,"trial_type":"ticket-choose","trial_index":77,"time_elapsed":1240675,"internal_node_id":"0.0-77.0"},{"result":197,"points":0,"place":8,"phase":1,"sequence":5,"prices":[192,172,171,178,188,165,217,168,195,197],"times":[536,286,213,239,319,766,478,735,592,937],"next_num":10,"trial_type":"ticket-choose","trial_index":78,"time_elapsed":1249291,"internal_node_id":"0.0-78.0"},{"result":166,"points":1,"place":2,"phase":1,"sequence":6,"prices":[177,175,186,210,165,179,187,166,153,208],"times":[640,373,359,382,1239,431,415,1068],"next_num":8,"trial_type":"ticket-choose","trial_index":79,"time_elapsed":1257355,"internal_node_id":"0.0-79.0"},{"result":159,"points":3,"place":0,"phase":1,"sequence":7,"prices":[183,179,188,165,168,173,205,159,187,191],"times":[442,302,311,735,350,327,351,1106],"next_num":8,"trial_type":"ticket-choose","trial_index":80,"time_elapsed":1264667,"internal_node_id":"0.0-80.0"},{"result":166,"points":1,"place":2,"phase":1,"sequence":8,"prices":[165,175,186,214,177,179,187,166,153,208],"times":[810,301,302,527,407,383,471,1175],"next_num":8,"trial_type":"ticket-choose","trial_index":81,"time_elapsed":1272411,"internal_node_id":"0.0-81.0"},{"result":157,"points":3,"place":0,"phase":1,"sequence":9,"prices":[191,170,182,165,175,182,203,157,195,200],"times":[19369,383,371,318,335,399,485,932],"next_num":8,"trial_type":"ticket-choose","trial_index":82,"time_elapsed":1298147,"internal_node_id":"0.0-82.0"},{"result":152,"points":3,"place":0,"phase":1,"sequence":10,"prices":[200,173,182,169,207,165,152,202,161,204],"times":[594,277,230,223,359,343,1082],"next_num":7,"trial_type":"ticket-choose","trial_index":83,"time_elapsed":1304099,"internal_node_id":"0.0-83.0"},{"result":154,"points":3,"place":0,"phase":1,"sequence":11,"prices":[177,175,187,209,165,180,188,165,154,208],"times":[585,311,288,270,1039,391,423,1432,684],"next_num":9,"trial_type":"ticket-choose","trial_index":84,"time_elapsed":1312867,"internal_node_id":"0.0-84.0"},{"result":153,"points":3,"place":0,"phase":1,"sequence":12,"prices":[163,175,186,214,176,179,187,166,153,208],"times":[1133,380,375,383,391,422,414,927,956],"next_num":9,"trial_type":"ticket-choose","trial_index":85,"time_elapsed":1321531,"internal_node_id":"0.0-85.0"},{"result":153,"points":3,"place":0,"phase":1,"sequence":13,"prices":[167,175,186,225,178,179,187,169,209,153],"times":[4153,710,366,463,399,423,440,1247,518,994],"next_num":10,"trial_type":"ticket-choose","trial_index":86,"time_elapsed":1334915,"internal_node_id":"0.0-86.0"},{"result":153,"points":2,"place":1,"phase":1,"sequence":14,"prices":[167,153,172,185,195,143,184,211,177,227],"times":[620,1775],"next_num":2,"trial_type":"ticket-choose","trial_index":87,"time_elapsed":1339299,"internal_node_id":"0.0-87.0"},{"result":151,"points":3,"place":0,"phase":1,"sequence":15,"prices":[199,193,169,165,202,182,151,164,176,171],"times":[426,288,310,433,509,449,1192],"next_num":7,"trial_type":"ticket-choose","trial_index":88,"time_elapsed":1345820,"internal_node_id":"0.0-88.0"},{"result":154,"points":3,"place":0,"phase":1,"sequence":16,"prices":[158,175,186,209,177,181,188,167,208,154],"times":[430,438,287,303,367,408,526,455,510,993],"next_num":10,"trial_type":"ticket-choose","trial_index":89,"time_elapsed":1355220,"internal_node_id":"0.0-89.0"},{"result":158,"points":3,"place":0,"phase":1,"sequence":17,"prices":[214,184,226,192,215,158,199,175,176,208],"times":[1873,511,566,592,423,1098],"next_num":6,"trial_type":"ticket-choose","trial_index":90,"time_elapsed":1363172,"internal_node_id":"0.0-90.0"},{"result":158,"points":2,"place":1,"phase":1,"sequence":18,"prices":[158,175,186,211,177,180,187,166,209,153],"times":[1828],"next_num":1,"trial_type":"ticket-choose","trial_index":91,"time_elapsed":1366882,"internal_node_id":"0.0-91.0"},{"result":156,"points":3,"place":0,"phase":1,"sequence":19,"prices":[201,204,179,166,185,165,214,156,202,165],"times":[450,358,377,412,343,446,559,1695],"next_num":8,"trial_type":"ticket-choose","trial_index":92,"time_elapsed":1374820,"internal_node_id":"0.0-92.0"},{"result":152,"points":3,"place":0,"phase":1,"sequence":20,"prices":[200,180,203,152,175,170,160,154,176,191],"times":[459,311,415,1026],"next_num":4,"trial_type":"ticket-choose","trial_index":93,"time_elapsed":1379268,"internal_node_id":"0.0-93.0"},{"result":153,"points":3,"place":0,"phase":1,"sequence":21,"prices":[177,174,186,217,165,181,187,166,153,209],"times":[579,598,1528,494,774,406,431,542,1175],"next_num":9,"trial_type":"ticket-choose","trial_index":94,"time_elapsed":1389036,"internal_node_id":"0.0-94.0"},{"result":157,"points":3,"place":0,"phase":1,"sequence":22,"prices":[201,187,157,184,198,179,188,185,178,170],"times":[434,336,1263],"next_num":3,"trial_type":"ticket-choose","trial_index":95,"time_elapsed":1393180,"internal_node_id":"0.0-95.0"},{"result":163,"points":3,"place":0,"phase":1,"sequence":23,"prices":[163,199,196,199,185,195,227,163,177,166],"times":[411,317,431,382,439,487,639,3486],"next_num":8,"trial_type":"ticket-choose","trial_index":96,"time_elapsed":1403044,"internal_node_id":"0.0-96.0"},{"result":156,"points":3,"place":0,"phase":1,"sequence":24,"prices":[178,174,186,217,167,181,188,168,208,156],"times":[634,407,566,1446,623,422,431,1607,543,581],"next_num":10,"trial_type":"ticket-choose","trial_index":97,"time_elapsed":1413732,"internal_node_id":"0.0-97.0"},{"result":160,"points":2,"place":1,"phase":1,"sequence":25,"prices":[173,163,185,181,166,148,160,185,176,184],"times":[498,542,383,423,641,398,1870],"next_num":7,"trial_type":"ticket-choose","trial_index":98,"time_elapsed":1421436,"internal_node_id":"0.0-98.0"},{"result":202,"points":0,"place":8,"phase":1,"sequence":26,"prices":[196,171,170,184,187,165,211,169,201,202],"times":[713,447,367,487,392,1751,493,489,572,1743],"next_num":10,"trial_type":"ticket-choose","trial_index":99,"time_elapsed":1432516,"internal_node_id":"0.0-99.0"},{"result":153,"points":3,"place":0,"phase":1,"sequence":27,"prices":[165,174,186,212,177,181,187,166,153,209],"times":[593,518,439,536,478,503,463,2246,584],"next_num":9,"trial_type":"ticket-choose","trial_index":100,"time_elapsed":1442108,"internal_node_id":"0.0-100.0"},{"result":158,"points":2,"place":1,"phase":1,"sequence":28,"prices":[177,175,186,221,158,180,187,166,209,153],"times":[745,479,431,415,1359],"next_num":5,"trial_type":"ticket-choose","trial_index":101,"time_elapsed":1448060,"internal_node_id":"0.0-101.0"},{"result":150,"points":3,"place":0,"phase":1,"sequence":29,"prices":[190,150,175,161,188,207,157,194,178,199],"times":[344,1153],"next_num":2,"trial_type":"ticket-choose","trial_index":102,"time_elapsed":1451468,"internal_node_id":"0.0-102.0"},{"result":171,"points":1,"place":3,"phase":1,"sequence":30,"prices":[189,167,180,197,165,168,172,213,178,171],"times":[383,382,391,406,510,520,608,565,806,1141],"next_num":10,"trial_type":"ticket-choose","trial_index":103,"time_elapsed":1460772,"internal_node_id":"0.0-103.0"},{"result":159,"points":1,"place":2,"phase":1,"sequence":31,"prices":[181,159,149,175,185,151,163,174,178,207],"times":[586,1369],"next_num":2,"trial_type":"ticket-choose","trial_index":104,"time_elapsed":1464555,"internal_node_id":"0.0-104.0"},{"result":156,"points":3,"place":0,"phase":1,"sequence":32,"prices":[167,174,186,211,178,181,188,168,208,156],"times":[330,319,407,462,400,478,439,470,494,694],"next_num":10,"trial_type":"ticket-choose","trial_index":105,"time_elapsed":1472460,"internal_node_id":"0.0-105.0"},{"result":184,"points":1,"place":4,"phase":1,"sequence":33,"prices":[193,181,175,181,185,165,224,199,218,184],"times":[490,543,494,431,398,671,463,456,493,884],"next_num":10,"trial_type":"ticket-choose","trial_index":106,"time_elapsed":1481220,"internal_node_id":"0.0-106.0"},{"result":153,"points":3,"place":0,"phase":1,"sequence":34,"prices":[176,175,186,210,163,179,187,166,153,208],"times":[471,472,423,405,1509,439,439,463,1016],"next_num":9,"trial_type":"ticket-choose","trial_index":107,"time_elapsed":1490051,"internal_node_id":"0.0-107.0"},{"result":154,"points":3,"place":0,"phase":1,"sequence":35,"prices":[165,175,187,209,177,180,188,167,154,208],"times":[895,424,413,455,415,431,559,1614,557],"next_num":9,"trial_type":"ticket-choose","trial_index":108,"time_elapsed":1499035,"internal_node_id":"0.0-108.0"},{"result":154,"points":3,"place":0,"phase":1,"sequence":36,"prices":[187,201,165,172,196,174,178,154,172,180],"times":[4275,526,622,687,544,526,415,882],"next_num":8,"trial_type":"ticket-choose","trial_index":109,"time_elapsed":1510563,"internal_node_id":"0.0-109.0"},{"result":156,"points":3,"place":0,"phase":1,"sequence":37,"prices":[178,175,185,215,167,181,186,168,208,156],"times":[467,263,326,447,429,423,406,727,567,685],"next_num":10,"trial_type":"ticket-choose","trial_index":110,"time_elapsed":1518723,"internal_node_id":"0.0-110.0"},{"result":186,"points":1,"place":4,"phase":1,"sequence":38,"prices":[220,173,201,197,169,205,198,183,178,186],"times":[818,1182,575,57159,654,481,557,501,751,980],"next_num":10,"trial_type":"ticket-choose","trial_index":111,"time_elapsed":1586147,"internal_node_id":"0.0-111.0"},{"result":155,"points":2,"place":1,"phase":1,"sequence":39,"prices":[200,207,155,158,156,168,167,135,178,177],"times":[54330,366,1883],"next_num":3,"trial_type":"ticket-choose","trial_index":112,"time_elapsed":1644828,"internal_node_id":"0.0-112.0"},{"result":153,"points":3,"place":0,"phase":1,"sequence":40,"prices":[158,176,187,210,177,181,187,165,208,153],"times":[601,327,225,300,399,398,415,423,485,994],"next_num":10,"trial_type":"ticket-choose","trial_index":113,"time_elapsed":1652940,"internal_node_id":"0.0-113.0"},{"result":164,"points":3,"place":0,"phase":1,"sequence":41,"prices":[199,191,188,174,167,193,189,164,176,170],"times":[610,310,367,375,423,470,478,2003],"next_num":8,"trial_type":"ticket-choose","trial_index":114,"time_elapsed":1661228,"internal_node_id":"0.0-114.0"},{"result":154,"points":3,"place":0,"phase":1,"sequence":42,"prices":[176,187,179,209,163,180,188,165,154,208],"times":[584,319,286,239,262,351,430,2110,538],"next_num":9,"trial_type":"ticket-choose","trial_index":115,"time_elapsed":1669556,"internal_node_id":"0.0-115.0"},{"result":163,"points":2,"place":1,"phase":1,"sequence":43,"prices":[171,169,186,165,163,167,220,148,187,165],"times":[483,223,1464,605,1397],"next_num":5,"trial_type":"ticket-choose","trial_index":116,"time_elapsed":1676332,"internal_node_id":"0.0-116.0"},{"result":153,"points":3,"place":0,"phase":1,"sequence":44,"prices":[163,174,186,212,176,181,187,166,153,209],"times":[1033,383,351,503,367,374,383,1401,862],"next_num":9,"trial_type":"ticket-choose","trial_index":117,"time_elapsed":1685140,"internal_node_id":"0.0-117.0"},{"result":149,"points":3,"place":0,"phase":1,"sequence":45,"prices":[180,156,149,160,168,186,172,198,176,195],"times":[538,247,1151],"next_num":3,"trial_type":"ticket-choose","trial_index":118,"time_elapsed":1689014,"internal_node_id":"0.0-118.0"},{"result":154,"points":3,"place":0,"phase":1,"sequence":46,"prices":[163,175,187,209,176,180,188,165,154,208],"times":[673,318,295,495,386,348,399,830,879],"next_num":9,"trial_type":"ticket-choose","trial_index":119,"time_elapsed":1696852,"internal_node_id":"0.0-119.0"},{"result":153,"points":3,"place":0,"phase":1,"sequence":47,"prices":[178,175,186,212,167,179,187,169,209,153],"times":[2490,502,487,479,510,423,479,598,574,657],"next_num":10,"trial_type":"ticket-choose","trial_index":120,"time_elapsed":1707411,"internal_node_id":"0.0-120.0"},{"result":158,"points":2,"place":1,"phase":1,"sequence":48,"prices":[177,176,187,225,158,181,187,165,208,153],"times":[698,417,469,487,1042],"next_num":5,"trial_type":"ticket-choose","trial_index":121,"time_elapsed":1713148,"internal_node_id":"0.0-121.0"},{"result":158,"points":2,"place":1,"phase":1,"sequence":49,"prices":[177,175,186,209,158,181,188,167,208,154],"times":[689,430,527,471,1371],"next_num":5,"trial_type":"ticket-choose","trial_index":122,"time_elapsed":1719315,"internal_node_id":"0.0-122.0"},{"responses":[{"value":1,"offby":0,"category":"$115 - $130","category_index":0},{"value":5,"offby":0,"category":"$131 - $145","category_index":1},{"value":18,"offby":6,"category":"$146 - $160","category_index":2},{"value":25,"offby":3,"category":"$161 - $175","category_index":3},{"value":27,"offby":-7,"category":"$176 - $190","category_index":4},{"value":15,"offby":0,"category":"$191 - $205","category_index":5},{"value":9,"offby":-2,"category":"$206 - $220","category_index":6}],"phase":1,"number":1,"trial_type":"bar-choose","trial_index":123,"time_elapsed":1762329,"internal_node_id":"0.0-123.0"},{"special_comment":"No","trial_type":"special_sequence","trial_index":124,"time_elapsed":1773805,"internal_node_id":"0.0-124.0"},{"during":"Nothing","bonus":308,"trial_type":"final","trial_index":125,"time_elapsed":1801908,"internal_node_id":"0.0-125.0"}],"bonus":308}