{"start_time":"2017-05-24 15:53:45","end_time":"2017-05-24 16:34:38","points_phase0":97,"points_phase1":98,"phase_order":1,"age":49,"gender":"f","tries":1,"during":"Nothing","worker_id":"A27A4ZFYJ5JHY4","assignment_id":"3ZPPDN2SLWPAV2DFA3VZCPJPO429ES","data":[{"rt":59723,"url":"\/christiane\/tickets\/utils\/consent.html","trial_type":"html","trial_index":0,"time_elapsed":59802,"internal_node_id":"0.0-0.0"},{"age":49,"gender":"f","trial_type":"age","trial_index":1,"time_elapsed":68514,"internal_node_id":"0.0-1.0"},{"worker_id":"A27A4ZFYJ5JHY4","trial_type":"workerid","trial_index":2,"time_elapsed":146014,"internal_node_id":"0.0-2.0"},{"tries":1,"trial_type":"instructions_check","trial_index":3,"time_elapsed":185606,"internal_node_id":"0.0-3.0"},{"rt":53812,"url":"\/christiane\/tickets\/utils\/start.html","trial_type":"html","trial_index":4,"time_elapsed":240531,"internal_node_id":"0.0-4.0"},{"trial_type":"number-animation","trial_index":5,"time_elapsed":325718,"internal_node_id":"0.0-5.0"},{"phase":0,"sequence":0,"avg":181,"response":181,"trial_type":"training_avg","trial_index":6,"time_elapsed":355137,"internal_node_id":"0.0-6.0"},{"trial_type":"number-animation","trial_index":7,"time_elapsed":427279,"internal_node_id":"0.0-7.0"},{"phase":0,"sequence":1,"avg":188,"response":188,"trial_type":"training_avg","trial_index":8,"time_elapsed":475172,"internal_node_id":"0.0-8.0"},{"trial_type":"number-animation","trial_index":9,"time_elapsed":550786,"internal_node_id":"0.0-9.0"},{"phase":0,"sequence":2,"avg":188,"response":188,"trial_type":"training_avg","trial_index":10,"time_elapsed":628136,"internal_node_id":"0.0-10.0"},{"trial_type":"number-animation","trial_index":11,"time_elapsed":706551,"internal_node_id":"0.0-11.0"},{"phase":0,"sequence":3,"avg":177,"response":177,"trial_type":"training_avg","trial_index":12,"time_elapsed":724571,"internal_node_id":"0.0-12.0"},{"trial_type":"number-animation","trial_index":13,"time_elapsed":763530,"internal_node_id":"0.0-13.0"},{"phase":0,"sequence":4,"avg":182,"response":181,"trial_type":"training_avg","trial_index":14,"time_elapsed":798495,"internal_node_id":"0.0-14.0"},{"responses":[{"value":0,"offby":-1,"category":"$115 - $130","category_index":0},{"value":1,"offby":-4,"category":"$131 - $145","category_index":1},{"value":4,"offby":-8,"category":"$146 - $160","category_index":2},{"value":6,"offby":-16,"category":"$161 - $175","category_index":3},{"value":15,"offby":-19,"category":"$176 - $190","category_index":4},{"value":71,"offby":56,"category":"$191 - $205","category_index":5},{"value":3,"offby":-8,"category":"$206 - $220","category_index":6}],"phase":0,"number":0,"trial_type":"bar-choose","trial_index":15,"time_elapsed":1392461,"internal_node_id":"0.0-15.0"},{"rt":26302,"url":"\/christiane\/tickets\/utils\/testing.html","trial_type":"html","trial_index":16,"time_elapsed":1419870,"internal_node_id":"0.0-16.0"},{"phase":0,"order":[29,44,17,18,22,14,11,7,28,27,19,23,36,3,42,4,33,5,6,43,2,0,48,41,49,20,37,46,32,31,24,9,39,34,16,30,1,13,21,26,40,47,25,35,12,38,45,8,10,15],"trial_type":"store_order","trial_index":17,"time_elapsed":1420871,"internal_node_id":"0.0-17.0"},{"result":184,"points":1,"place":4,"phase":0,"sequence":-1,"prices":[184,180,224,165,181,199,185,193,218,146],"times":[7109],"next_num":1,"trial_type":"ticket-choose","trial_index":18,"time_elapsed":1431514,"internal_node_id":"0.0-18.0"},{"rt":74015,"url":"\/christiane\/tickets\/utils\/testing_after.html","trial_type":"html","trial_index":19,"time_elapsed":1506646,"internal_node_id":"0.0-19.0"},{"result":167,"points":2,"place":1,"phase":0,"sequence":0,"prices":[167,174,186,211,178,181,188,168,208,156],"times":[3175],"next_num":1,"trial_type":"ticket-choose","trial_index":20,"time_elapsed":1513188,"internal_node_id":"0.0-20.0"},{"result":169,"points":0,"place":5,"phase":0,"sequence":1,"prices":[171,169,186,165,163,167,220,148,187,165],"times":[3398,1396],"next_num":2,"trial_type":"ticket-choose","trial_index":21,"time_elapsed":1521432,"internal_node_id":"0.0-21.0"},{"result":163,"points":2,"place":1,"phase":0,"sequence":2,"prices":[163,174,186,212,176,181,187,166,153,209],"times":[2177],"next_num":1,"trial_type":"ticket-choose","trial_index":22,"time_elapsed":1527028,"internal_node_id":"0.0-22.0"},{"result":163,"points":2,"place":1,"phase":0,"sequence":3,"prices":[176,186,178,217,163,181,187,166,153,209],"times":[3055,1257,1530,1202,1350],"next_num":5,"trial_type":"ticket-choose","trial_index":23,"time_elapsed":1539106,"internal_node_id":"0.0-23.0"},{"result":169,"points":1,"place":3,"phase":0,"sequence":4,"prices":[200,173,182,169,207,165,152,202,161,204],"times":[2177,1246,1379,1979],"next_num":4,"trial_type":"ticket-choose","trial_index":24,"time_elapsed":1549168,"internal_node_id":"0.0-24.0"},{"result":158,"points":2,"place":1,"phase":0,"sequence":5,"prices":[177,176,187,225,158,181,187,165,208,153],"times":[2182,1199,1236,939,1372],"next_num":5,"trial_type":"ticket-choose","trial_index":25,"time_elapsed":1559632,"internal_node_id":"0.0-25.0"},{"result":167,"points":2,"place":1,"phase":0,"sequence":6,"prices":[189,167,180,197,165,168,172,213,178,171],"times":[1761,2180],"next_num":2,"trial_type":"ticket-choose","trial_index":26,"time_elapsed":1566213,"internal_node_id":"0.0-26.0"},{"result":184,"points":1,"place":4,"phase":0,"sequence":7,"prices":[193,181,175,181,185,165,224,199,218,184],"times":[3323,927,836,1017,1048,1528,744,761,1448,1106],"next_num":11,"trial_type":"ticket-choose","trial_index":27,"time_elapsed":1584437,"internal_node_id":"0.0-27.0"},{"result":165,"points":2,"place":1,"phase":0,"sequence":8,"prices":[177,174,186,217,165,181,187,166,153,209],"times":[1801,1888,682,679,1167],"next_num":5,"trial_type":"ticket-choose","trial_index":28,"time_elapsed":1600053,"internal_node_id":"0.0-28.0"},{"result":165,"points":2,"place":1,"phase":0,"sequence":9,"prices":[165,175,186,214,177,179,187,166,153,208],"times":[15023],"next_num":1,"trial_type":"ticket-choose","trial_index":29,"time_elapsed":1617898,"internal_node_id":"0.0-29.0"},{"result":165,"points":1,"place":2,"phase":0,"sequence":10,"prices":[185,179,191,165,161,173,199,150,188,168],"times":[3433,1162,746,1401],"next_num":4,"trial_type":"ticket-choose","trial_index":30,"time_elapsed":1627886,"internal_node_id":"0.0-30.0"},{"result":158,"points":2,"place":1,"phase":0,"sequence":11,"prices":[158,175,186,209,177,181,188,167,208,154],"times":[1836],"next_num":1,"trial_type":"ticket-choose","trial_index":31,"time_elapsed":1632160,"internal_node_id":"0.0-31.0"},{"result":170,"points":1,"place":2,"phase":0,"sequence":12,"prices":[196,171,170,184,187,165,211,169,201,202],"times":[1707,892,2170],"next_num":3,"trial_type":"ticket-choose","trial_index":32,"time_elapsed":1640078,"internal_node_id":"0.0-32.0"},{"result":163,"points":2,"place":1,"phase":0,"sequence":13,"prices":[176,175,186,210,163,179,187,166,153,208],"times":[3248,1275,736,685,1474],"next_num":5,"trial_type":"ticket-choose","trial_index":33,"time_elapsed":1650994,"internal_node_id":"0.0-33.0"},{"result":165,"points":2,"place":1,"phase":0,"sequence":14,"prices":[187,201,165,172,196,174,178,154,172,180],"times":[1835,746,1377],"next_num":3,"trial_type":"ticket-choose","trial_index":34,"time_elapsed":1657803,"internal_node_id":"0.0-34.0"},{"result":159,"points":1,"place":2,"phase":0,"sequence":15,"prices":[181,159,149,175,185,151,163,174,178,207],"times":[4330,1292],"next_num":2,"trial_type":"ticket-choose","trial_index":35,"time_elapsed":1665905,"internal_node_id":"0.0-35.0"},{"result":167,"points":2,"place":1,"phase":0,"sequence":16,"prices":[167,175,185,224,178,181,186,168,208,156],"times":[2292],"next_num":1,"trial_type":"ticket-choose","trial_index":36,"time_elapsed":1671382,"internal_node_id":"0.0-36.0"},{"result":165,"points":2,"place":1,"phase":0,"sequence":17,"prices":[177,175,187,209,165,180,188,165,154,208],"times":[2417,1396,631,679,1245],"next_num":5,"trial_type":"ticket-choose","trial_index":37,"time_elapsed":1680918,"internal_node_id":"0.0-37.0"},{"result":157,"points":3,"place":0,"phase":0,"sequence":18,"prices":[201,187,157,184,198,179,188,185,178,170],"times":[1748,820,1494],"next_num":3,"trial_type":"ticket-choose","trial_index":38,"time_elapsed":1688358,"internal_node_id":"0.0-38.0"},{"result":155,"points":2,"place":1,"phase":0,"sequence":19,"prices":[200,207,155,158,156,168,167,135,178,177],"times":[2452,648,1441],"next_num":3,"trial_type":"ticket-choose","trial_index":39,"time_elapsed":1695634,"internal_node_id":"0.0-39.0"},{"result":165,"points":3,"place":0,"phase":0,"sequence":20,"prices":[192,172,171,178,188,165,217,168,195,197],"times":[1673,1198,1054,804,1052,1253],"next_num":6,"trial_type":"ticket-choose","trial_index":40,"time_elapsed":1706598,"internal_node_id":"0.0-40.0"},{"result":165,"points":1,"place":2,"phase":0,"sequence":21,"prices":[199,193,169,165,202,182,151,164,176,171],"times":[1633,1458,1806,1311],"next_num":4,"trial_type":"ticket-choose","trial_index":41,"time_elapsed":1715988,"internal_node_id":"0.0-41.0"},{"result":165,"points":2,"place":1,"phase":0,"sequence":22,"prices":[193,174,224,165,187,190,224,161,194,195],"times":[1740,1199,780,1412],"next_num":4,"trial_type":"ticket-choose","trial_index":42,"time_elapsed":1723964,"internal_node_id":"0.0-42.0"},{"result":158,"points":2,"place":1,"phase":0,"sequence":23,"prices":[177,175,186,209,158,181,188,167,208,154],"times":[1846,924,674,779,1267],"next_num":5,"trial_type":"ticket-choose","trial_index":43,"time_elapsed":1732915,"internal_node_id":"0.0-43.0"},{"result":163,"points":1,"place":2,"phase":0,"sequence":24,"prices":[173,163,185,181,166,148,160,185,176,184],"times":[1964,1183],"next_num":2,"trial_type":"ticket-choose","trial_index":44,"time_elapsed":1738585,"internal_node_id":"0.0-44.0"},{"result":158,"points":2,"place":1,"phase":0,"sequence":25,"prices":[158,175,186,211,177,180,187,166,209,153],"times":[1616],"next_num":1,"trial_type":"ticket-choose","trial_index":45,"time_elapsed":1742605,"internal_node_id":"0.0-45.0"},{"result":150,"points":3,"place":0,"phase":0,"sequence":26,"prices":[190,150,175,161,188,207,157,194,178,199],"times":[1560,1253],"next_num":2,"trial_type":"ticket-choose","trial_index":46,"time_elapsed":1748150,"internal_node_id":"0.0-46.0"},{"result":165,"points":2,"place":1,"phase":0,"sequence":27,"prices":[191,170,182,165,175,182,203,157,195,200],"times":[1569,687,746,1428],"next_num":4,"trial_type":"ticket-choose","trial_index":47,"time_elapsed":1755528,"internal_node_id":"0.0-47.0"},{"result":152,"points":3,"place":0,"phase":0,"sequence":28,"prices":[200,180,203,152,175,170,160,154,176,191],"times":[1899,772,667,1260],"next_num":4,"trial_type":"ticket-choose","trial_index":48,"time_elapsed":1763112,"internal_node_id":"0.0-48.0"},{"result":167,"points":2,"place":1,"phase":0,"sequence":29,"prices":[178,174,186,217,167,181,188,168,208,156],"times":[1461,836,744,714,1633],"next_num":5,"trial_type":"ticket-choose","trial_index":49,"time_elapsed":1771562,"internal_node_id":"0.0-49.0"},{"result":165,"points":2,"place":1,"phase":0,"sequence":30,"prices":[183,179,188,165,168,173,205,159,187,191],"times":[1680,825,636,1116],"next_num":4,"trial_type":"ticket-choose","trial_index":50,"time_elapsed":1778699,"internal_node_id":"0.0-50.0"},{"result":165,"points":2,"place":1,"phase":0,"sequence":31,"prices":[177,175,186,210,165,179,187,166,153,208],"times":[2034,714,741,654,1121],"next_num":5,"trial_type":"ticket-choose","trial_index":51,"time_elapsed":1787052,"internal_node_id":"0.0-51.0"},{"result":163,"points":2,"place":1,"phase":0,"sequence":32,"prices":[163,175,186,214,176,179,187,166,153,208],"times":[1709],"next_num":1,"trial_type":"ticket-choose","trial_index":52,"time_elapsed":1790983,"internal_node_id":"0.0-52.0"},{"result":165,"points":2,"place":1,"phase":0,"sequence":33,"prices":[201,204,179,166,185,165,214,156,202,165],"times":[1654,624,730,1019,750,1190],"next_num":6,"trial_type":"ticket-choose","trial_index":53,"time_elapsed":1800231,"internal_node_id":"0.0-53.0"},{"result":153,"points":3,"place":0,"phase":0,"sequence":34,"prices":[167,175,186,225,178,179,187,169,209,153],"times":[7346,710,645,652,652,1793,741,1540,726,948],"next_num":10,"trial_type":"ticket-choose","trial_index":54,"time_elapsed":1820175,"internal_node_id":"0.0-54.0"},{"result":165,"points":2,"place":1,"phase":0,"sequence":35,"prices":[165,175,187,209,177,180,188,167,154,208],"times":[2149],"next_num":1,"trial_type":"ticket-choose","trial_index":55,"time_elapsed":1824663,"internal_node_id":"0.0-55.0"},{"result":163,"points":2,"place":1,"phase":0,"sequence":36,"prices":[176,187,179,209,163,180,188,165,154,208],"times":[1692,625,600,652,1034],"next_num":5,"trial_type":"ticket-choose","trial_index":56,"time_elapsed":1832245,"internal_node_id":"0.0-56.0"},{"result":169,"points":3,"place":0,"phase":0,"sequence":37,"prices":[220,173,201,197,169,205,198,183,178,186],"times":[1437,623,664,625,1498],"next_num":5,"trial_type":"ticket-choose","trial_index":57,"time_elapsed":1841086,"internal_node_id":"0.0-57.0"},{"result":169,"points":2,"place":1,"phase":0,"sequence":38,"prices":[181,214,169,147,182,193,178,184,176,179],"times":[1572,820,1393],"next_num":3,"trial_type":"ticket-choose","trial_index":58,"time_elapsed":1847546,"internal_node_id":"0.0-58.0"},{"result":167,"points":2,"place":1,"phase":0,"sequence":39,"prices":[178,175,186,212,167,179,187,169,209,153],"times":[1664,1059,805,726,1353],"next_num":5,"trial_type":"ticket-choose","trial_index":59,"time_elapsed":1856163,"internal_node_id":"0.0-59.0"},{"result":163,"points":2,"place":1,"phase":0,"sequence":40,"prices":[163,175,187,209,176,180,188,165,154,208],"times":[1631],"next_num":1,"trial_type":"ticket-choose","trial_index":60,"time_elapsed":1860098,"internal_node_id":"0.0-60.0"},{"result":156,"points":2,"place":1,"phase":0,"sequence":41,"prices":[180,156,149,160,168,186,172,198,176,195],"times":[1371,1221],"next_num":2,"trial_type":"ticket-choose","trial_index":61,"time_elapsed":1865215,"internal_node_id":"0.0-61.0"},{"result":158,"points":3,"place":0,"phase":0,"sequence":42,"prices":[214,184,226,192,215,158,199,175,176,208],"times":[1563,632,680,775,693,1023],"next_num":6,"trial_type":"ticket-choose","trial_index":62,"time_elapsed":1873846,"internal_node_id":"0.0-62.0"},{"result":163,"points":3,"place":0,"phase":0,"sequence":43,"prices":[163,199,196,199,185,195,227,163,177,166],"times":[2063],"next_num":1,"trial_type":"ticket-choose","trial_index":63,"time_elapsed":1878784,"internal_node_id":"0.0-63.0"},{"result":158,"points":2,"place":1,"phase":0,"sequence":44,"prices":[158,176,187,210,177,181,187,165,208,153],"times":[1926],"next_num":1,"trial_type":"ticket-choose","trial_index":64,"time_elapsed":1882987,"internal_node_id":"0.0-64.0"},{"result":158,"points":2,"place":1,"phase":0,"sequence":45,"prices":[177,175,186,221,158,180,187,166,209,153],"times":[1734,1405,710,653,1116],"next_num":5,"trial_type":"ticket-choose","trial_index":65,"time_elapsed":1891653,"internal_node_id":"0.0-65.0"},{"result":168,"points":1,"place":2,"phase":0,"sequence":46,"prices":[178,175,185,215,167,181,186,168,208,156],"times":[1634,1001,812,748,1074,748,726,1576],"next_num":8,"trial_type":"ticket-choose","trial_index":66,"time_elapsed":1903750,"internal_node_id":"0.0-66.0"},{"result":167,"points":2,"place":1,"phase":0,"sequence":47,"prices":[199,191,188,174,167,193,189,164,176,170],"times":[1599,654,986,932,1228],"next_num":5,"trial_type":"ticket-choose","trial_index":67,"time_elapsed":1912252,"internal_node_id":"0.0-67.0"},{"result":167,"points":1,"place":2,"phase":0,"sequence":48,"prices":[167,153,172,185,195,143,184,211,177,227],"times":[2515],"next_num":1,"trial_type":"ticket-choose","trial_index":68,"time_elapsed":1917032,"internal_node_id":"0.0-68.0"},{"result":165,"points":2,"place":1,"phase":0,"sequence":49,"prices":[165,174,186,212,177,181,187,166,153,209],"times":[1899],"next_num":1,"trial_type":"ticket-choose","trial_index":69,"time_elapsed":1923414,"internal_node_id":"0.0-69.0"},{"responses":[{"value":5,"offby":4,"category":"$115 - $130","category_index":0},{"value":6,"offby":1,"category":"$131 - $145","category_index":1},{"value":7,"offby":-5,"category":"$146 - $160","category_index":2},{"value":28,"offby":6,"category":"$161 - $175","category_index":3},{"value":32,"offby":-2,"category":"$176 - $190","category_index":4},{"value":13,"offby":-2,"category":"$191 - $205","category_index":5},{"value":9,"offby":-2,"category":"$206 - $220","category_index":6}],"phase":1,"number":1,"trial_type":"bar-choose","trial_index":70,"time_elapsed":2010959,"internal_node_id":"0.0-70.0"},{"rt":13173,"url":"\/christiane\/tickets\/utils\/testing2.html","trial_type":"point_update","trial_index":71,"time_elapsed":2025348,"internal_node_id":"0.0-71.0"},{"phase":1,"order":[0,31,14,17,26,23,39,24,11,6,29,19,28,15,36,44,1,10,43,41,27,37,32,22,49,18,40,30,47,3,33,9,12,25,2,7,16,42,48,5,13,34,46,38,20,21,4,45,35,8],"trial_type":"store_order","trial_index":72,"time_elapsed":2026349,"internal_node_id":"0.0-72.0"},{"result":165,"points":3,"place":0,"phase":1,"sequence":0,"prices":[185,170,182,201,173,199,171,188,165,168],"times":[1670,706,597,591,640,628,675,692,1056],"next_num":9,"trial_type":"ticket-choose","trial_index":73,"time_elapsed":2037757,"internal_node_id":"0.0-73.0"},{"result":159,"points":1,"place":2,"phase":1,"sequence":1,"prices":[180,159,149,175,185,141,163,174,178,207],"times":[1579,1134],"next_num":2,"trial_type":"ticket-choose","trial_index":74,"time_elapsed":2042787,"internal_node_id":"0.0-74.0"},{"result":163,"points":2,"place":1,"phase":1,"sequence":2,"prices":[174,186,176,217,181,187,163,166,153,209],"times":[1599,571,649,640,670,607,994],"next_num":7,"trial_type":"ticket-choose","trial_index":75,"time_elapsed":2051835,"internal_node_id":"0.0-75.0"},{"result":158,"points":2,"place":1,"phase":1,"sequence":3,"prices":[175,186,158,211,180,187,177,166,209,153],"times":[1625,604,969],"next_num":3,"trial_type":"ticket-choose","trial_index":76,"time_elapsed":2057620,"internal_node_id":"0.0-76.0"},{"result":158,"points":2,"place":1,"phase":1,"sequence":4,"prices":[175,186,177,209,181,188,158,167,208,154],"times":[1331,654,586,600,574,616,1089],"next_num":7,"trial_type":"ticket-choose","trial_index":77,"time_elapsed":2066403,"internal_node_id":"0.0-77.0"},{"result":163,"points":2,"place":1,"phase":1,"sequence":5,"prices":[174,186,163,212,181,187,176,166,153,209],"times":[1397,606,1045],"next_num":3,"trial_type":"ticket-choose","trial_index":78,"time_elapsed":2071851,"internal_node_id":"0.0-78.0"},{"result":165,"points":2,"place":1,"phase":1,"sequence":6,"prices":[174,186,177,217,181,187,165,166,153,209],"times":[1549,583,651,584,581,640,1007],"next_num":7,"trial_type":"ticket-choose","trial_index":79,"time_elapsed":2080716,"internal_node_id":"0.0-79.0"},{"result":165,"points":2,"place":1,"phase":1,"sequence":7,"prices":[175,187,165,209,180,188,177,166,154,208],"times":[1621,495,1037],"next_num":3,"trial_type":"ticket-choose","trial_index":80,"time_elapsed":2086652,"internal_node_id":"0.0-80.0"},{"result":185,"points":1,"place":4,"phase":1,"sequence":8,"prices":[196,165,170,184,187,211,171,201,202,185],"times":[1444,575,617,641,612,611,624,708,671,949],"next_num":11,"trial_type":"ticket-choose","trial_index":81,"time_elapsed":2098344,"internal_node_id":"0.0-81.0"},{"result":165,"points":3,"place":0,"phase":1,"sequence":9,"prices":[192,165,171,178,188,217,172,195,197,186],"times":[1381,1001],"next_num":2,"trial_type":"ticket-choose","trial_index":82,"time_elapsed":2102966,"internal_node_id":"0.0-82.0"},{"result":158,"points":2,"place":1,"phase":1,"sequence":10,"prices":[175,186,158,209,181,188,177,167,208,154],"times":[1344,564,1583],"next_num":3,"trial_type":"ticket-choose","trial_index":83,"time_elapsed":2108922,"internal_node_id":"0.0-83.0"},{"result":158,"points":2,"place":1,"phase":1,"sequence":11,"prices":[176,187,177,225,181,187,158,165,208,153],"times":[1303,638,584,994,571,591,973],"next_num":7,"trial_type":"ticket-choose","trial_index":84,"time_elapsed":2117822,"internal_node_id":"0.0-84.0"},{"result":165,"points":2,"place":1,"phase":1,"sequence":12,"prices":[188,200,165,172,198,174,177,154,177,180],"times":[1478,680,1076],"next_num":3,"trial_type":"ticket-choose","trial_index":85,"time_elapsed":2123476,"internal_node_id":"0.0-85.0"},{"result":167,"points":2,"place":1,"phase":1,"sequence":13,"prices":[174,186,178,217,181,188,167,168,208,156],"times":[1401,520,600,616,588,594,1036],"next_num":7,"trial_type":"ticket-choose","trial_index":86,"time_elapsed":2132088,"internal_node_id":"0.0-86.0"},{"result":186,"points":1,"place":4,"phase":1,"sequence":14,"prices":[222,173,202,197,143,205,198,183,178,186],"times":[1395,507,574,610,560,1749,634,644,690,827],"next_num":11,"trial_type":"ticket-choose","trial_index":87,"time_elapsed":2144362,"internal_node_id":"0.0-87.0"},{"result":167,"points":2,"place":1,"phase":1,"sequence":15,"prices":[175,185,178,215,181,186,167,168,208,156],"times":[1525,546,601,647,702,784,1344],"next_num":7,"trial_type":"ticket-choose","trial_index":88,"time_elapsed":2153870,"internal_node_id":"0.0-88.0"},{"result":168,"points":1,"place":2,"phase":1,"sequence":16,"prices":[183,182,192,168,173,205,167,187,165,170],"times":[1573,606,586,1107],"next_num":4,"trial_type":"ticket-choose","trial_index":89,"time_elapsed":2160334,"internal_node_id":"0.0-89.0"},{"result":167,"points":2,"place":1,"phase":1,"sequence":17,"prices":[175,186,178,212,179,187,167,169,209,153],"times":[1516,644,595,637,611,628,990],"next_num":7,"trial_type":"ticket-choose","trial_index":90,"time_elapsed":2169151,"internal_node_id":"0.0-90.0"},{"result":165,"points":2,"place":1,"phase":1,"sequence":18,"prices":[175,186,165,214,179,187,177,166,153,208],"times":[1298,771,1122],"next_num":3,"trial_type":"ticket-choose","trial_index":91,"time_elapsed":2174708,"internal_node_id":"0.0-91.0"},{"result":157,"points":3,"place":0,"phase":1,"sequence":19,"prices":[201,187,157,184,198,179,188,185,178,170],"times":[1442,635,1069],"next_num":3,"trial_type":"ticket-choose","trial_index":92,"time_elapsed":2180261,"internal_node_id":"0.0-92.0"},{"result":167,"points":2,"place":1,"phase":1,"sequence":20,"prices":[175,186,167,225,179,187,178,169,209,153],"times":[1470,640,1793],"next_num":3,"trial_type":"ticket-choose","trial_index":93,"time_elapsed":2186548,"internal_node_id":"0.0-93.0"},{"result":167,"points":2,"place":1,"phase":1,"sequence":21,"prices":[174,186,167,211,181,188,178,168,208,156],"times":[1356,585,1248],"next_num":3,"trial_type":"ticket-choose","trial_index":94,"time_elapsed":2192181,"internal_node_id":"0.0-94.0"},{"result":169,"points":2,"place":1,"phase":1,"sequence":22,"prices":[181,215,169,147,182,193,177,184,176,179],"times":[1327,662,1170],"next_num":3,"trial_type":"ticket-choose","trial_index":95,"time_elapsed":2197967,"internal_node_id":"0.0-95.0"},{"result":155,"points":2,"place":1,"phase":1,"sequence":23,"prices":[201,207,155,158,156,165,167,135,178,177],"times":[1415,604,1125],"next_num":3,"trial_type":"ticket-choose","trial_index":96,"time_elapsed":2203689,"internal_node_id":"0.0-96.0"},{"result":166,"points":1,"place":3,"phase":1,"sequence":24,"prices":[183,163,185,180,166,148,160,186,176,184],"times":[1472,500,900,604,1039],"next_num":5,"trial_type":"ticket-choose","trial_index":97,"time_elapsed":2211416,"internal_node_id":"0.0-97.0"},{"result":158,"points":2,"place":1,"phase":1,"sequence":25,"prices":[176,187,158,210,181,187,177,165,208,153],"times":[1528,646,1060],"next_num":3,"trial_type":"ticket-choose","trial_index":98,"time_elapsed":2217465,"internal_node_id":"0.0-98.0"},{"result":169,"points":1,"place":3,"phase":1,"sequence":26,"prices":[198,193,169,163,202,182,152,164,177,171],"times":[1412,784,1776],"next_num":3,"trial_type":"ticket-choose","trial_index":99,"time_elapsed":2223909,"internal_node_id":"0.0-99.0"},{"result":158,"points":3,"place":0,"phase":1,"sequence":27,"prices":[210,184,226,193,215,158,199,175,176,208],"times":[1516,757,766,646,665,1082],"next_num":6,"trial_type":"ticket-choose","trial_index":100,"time_elapsed":2233548,"internal_node_id":"0.0-100.0"},{"result":169,"points":2,"place":1,"phase":1,"sequence":28,"prices":[193,169,171,187,190,224,174,194,165,188],"times":[1453,1077],"next_num":2,"trial_type":"ticket-choose","trial_index":101,"time_elapsed":2238309,"internal_node_id":"0.0-101.0"},{"result":167,"points":1,"place":2,"phase":1,"sequence":29,"prices":[171,203,175,170,167,220,192,186,165,165],"times":[1335,595,641,604,1174],"next_num":5,"trial_type":"ticket-choose","trial_index":102,"time_elapsed":2245679,"internal_node_id":"0.0-102.0"},{"result":165,"points":3,"place":0,"phase":1,"sequence":30,"prices":[193,165,175,181,185,224,180,199,218,184],"times":[1522,1020],"next_num":2,"trial_type":"ticket-choose","trial_index":103,"time_elapsed":2250469,"internal_node_id":"0.0-103.0"},{"result":165,"points":2,"place":1,"phase":1,"sequence":31,"prices":[175,186,177,210,179,187,165,166,153,208],"times":[1232,608,645,769,573,803,913],"next_num":7,"trial_type":"ticket-choose","trial_index":104,"time_elapsed":2259371,"internal_node_id":"0.0-104.0"},{"result":167,"points":2,"place":1,"phase":1,"sequence":32,"prices":[189,167,180,197,165,168,172,213,178,171],"times":[1328,1161],"next_num":2,"trial_type":"ticket-choose","trial_index":105,"time_elapsed":2264121,"internal_node_id":"0.0-105.0"},{"result":155,"points":2,"place":1,"phase":1,"sequence":33,"prices":[181,155,148,161,168,187,172,199,176,194],"times":[1235,1041],"next_num":2,"trial_type":"ticket-choose","trial_index":106,"time_elapsed":2268593,"internal_node_id":"0.0-106.0"},{"result":163,"points":2,"place":1,"phase":1,"sequence":34,"prices":[175,187,176,209,180,188,163,165,154,208],"times":[1332,572,664,612,639,701,1016],"next_num":7,"trial_type":"ticket-choose","trial_index":107,"time_elapsed":2277951,"internal_node_id":"0.0-107.0"},{"result":169,"points":2,"place":1,"phase":1,"sequence":35,"prices":[191,172,169,175,182,203,170,195,165,176],"times":[1350,558,1012],"next_num":3,"trial_type":"ticket-choose","trial_index":108,"time_elapsed":2283218,"internal_node_id":"0.0-108.0"},{"result":167,"points":2,"place":1,"phase":1,"sequence":36,"prices":[175,185,167,224,181,186,178,168,208,156],"times":[1599,635,976],"next_num":3,"trial_type":"ticket-choose","trial_index":109,"time_elapsed":2288742,"internal_node_id":"0.0-109.0"},{"result":163,"points":2,"place":1,"phase":1,"sequence":37,"prices":[175,187,163,209,180,188,176,165,154,208],"times":[1364,838,1051],"next_num":3,"trial_type":"ticket-choose","trial_index":110,"time_elapsed":2294314,"internal_node_id":"0.0-110.0"},{"result":158,"points":2,"place":1,"phase":1,"sequence":38,"prices":[175,186,177,221,180,187,158,166,209,153],"times":[1353,661,722,636,818,661,994],"next_num":7,"trial_type":"ticket-choose","trial_index":111,"time_elapsed":2303406,"internal_node_id":"0.0-111.0"},{"result":165,"points":2,"place":1,"phase":1,"sequence":39,"prices":[200,165,165,173,182,207,161,202,204,180],"times":[1364,1032],"next_num":2,"trial_type":"ticket-choose","trial_index":112,"time_elapsed":2307974,"internal_node_id":"0.0-112.0"},{"result":150,"points":3,"place":0,"phase":1,"sequence":40,"prices":[189,150,175,160,188,207,158,194,178,199],"times":[1328,1068],"next_num":2,"trial_type":"ticket-choose","trial_index":113,"time_elapsed":2312685,"internal_node_id":"0.0-113.0"},{"result":152,"points":3,"place":0,"phase":1,"sequence":41,"prices":[200,181,203,152,175,171,160,154,176,191],"times":[2059,1290,681,1186],"next_num":4,"trial_type":"ticket-choose","trial_index":114,"time_elapsed":2330327,"internal_node_id":"0.0-114.0"},{"result":165,"points":2,"place":1,"phase":1,"sequence":42,"prices":[201,165,162,166,185,214,165,202,204,179],"times":[1606,1149],"next_num":2,"trial_type":"ticket-choose","trial_index":115,"time_elapsed":2335646,"internal_node_id":"0.0-115.0"},{"result":168,"points":1,"place":2,"phase":1,"sequence":43,"prices":[168,154,172,185,195,144,184,211,177,227],"times":[1769],"next_num":1,"trial_type":"ticket-choose","trial_index":116,"time_elapsed":2339920,"internal_node_id":"0.0-116.0"},{"result":163,"points":2,"place":1,"phase":1,"sequence":44,"prices":[175,186,163,214,179,187,176,166,153,208],"times":[4232,630,994],"next_num":3,"trial_type":"ticket-choose","trial_index":117,"time_elapsed":2351090,"internal_node_id":"0.0-117.0"},{"result":168,"points":1,"place":2,"phase":1,"sequence":45,"prices":[168,199,196,198,185,195,227,163,177,166],"times":[1767],"next_num":1,"trial_type":"ticket-choose","trial_index":118,"time_elapsed":2355236,"internal_node_id":"0.0-118.0"},{"result":167,"points":2,"place":1,"phase":1,"sequence":46,"prices":[212,192,188,184,167,193,189,164,176,170],"times":[1964,686,562,648,1134],"next_num":5,"trial_type":"ticket-choose","trial_index":119,"time_elapsed":2363134,"internal_node_id":"0.0-119.0"},{"result":165,"points":2,"place":1,"phase":1,"sequence":47,"prices":[174,186,165,212,181,187,177,167,153,209],"times":[1555,575,1026],"next_num":3,"trial_type":"ticket-choose","trial_index":120,"time_elapsed":2368784,"internal_node_id":"0.0-120.0"},{"result":165,"points":2,"place":1,"phase":1,"sequence":48,"prices":[175,187,177,209,180,188,165,165,154,208],"times":[1475,608,592,609,589,613,1037],"next_num":7,"trial_type":"ticket-choose","trial_index":121,"time_elapsed":2377628,"internal_node_id":"0.0-121.0"},{"result":163,"points":2,"place":1,"phase":1,"sequence":49,"prices":[175,186,176,210,179,187,163,166,153,208],"times":[1449,611,621,601,788,661,1064],"next_num":7,"trial_type":"ticket-choose","trial_index":122,"time_elapsed":2387300,"internal_node_id":"0.0-122.0"},{"responses":[{"value":6,"offby":5,"category":"$115 - $130","category_index":0},{"value":7,"offby":2,"category":"$131 - $145","category_index":1},{"value":8,"offby":-4,"category":"$146 - $160","category_index":2},{"value":25,"offby":3,"category":"$161 - $175","category_index":3},{"value":30,"offby":-4,"category":"$176 - $190","category_index":4},{"value":15,"offby":0,"category":"$191 - $205","category_index":5},{"value":9,"offby":-2,"category":"$206 - $220","category_index":6}],"phase":1,"number":1,"trial_type":"bar-choose","trial_index":123,"time_elapsed":2424540,"internal_node_id":"0.0-123.0"},{"special_comment":"NO","trial_type":"special_sequence","trial_index":124,"time_elapsed":2430884,"internal_node_id":"0.0-124.0"},{"during":"Nothing","bonus":260,"trial_type":"final","trial_index":125,"time_elapsed":2450111,"internal_node_id":"0.0-125.0"}],"bonus":260}