{"start_time":"2017-05-24 15:54:55","end_time":"2017-05-24 16:33:02","points_phase0":113,"points_phase1":114,"phase_order":0,"age":47,"gender":"m","tries":1,"during":"Nothing","worker_id":"A289D98Z4GAZ28","assignment_id":"3VFJCI1K40SEJG5SAFL93D4V76NGR3","data":[{"rt":45252,"url":"\/christiane\/tickets\/utils\/consent.html","trial_type":"html","trial_index":0,"time_elapsed":45467,"internal_node_id":"0.0-0.0"},{"age":47,"gender":"m","trial_type":"age","trial_index":1,"time_elapsed":54977,"internal_node_id":"0.0-1.0"},{"worker_id":"A289D98Z4GAZ28","trial_type":"workerid","trial_index":2,"time_elapsed":95026,"internal_node_id":"0.0-2.0"},{"tries":1,"trial_type":"instructions_check","trial_index":3,"time_elapsed":156145,"internal_node_id":"0.0-3.0"},{"rt":82119,"url":"\/christiane\/tickets\/utils\/start.html","trial_type":"html","trial_index":4,"time_elapsed":239389,"internal_node_id":"0.0-4.0"},{"trial_type":"number-animation","trial_index":5,"time_elapsed":306471,"internal_node_id":"0.0-5.0"},{"phase":0,"sequence":0,"avg":181,"response":180,"trial_type":"training_avg","trial_index":6,"time_elapsed":322317,"internal_node_id":"0.0-6.0"},{"trial_type":"number-animation","trial_index":7,"time_elapsed":407113,"internal_node_id":"0.0-7.0"},{"phase":0,"sequence":1,"avg":188,"response":185,"trial_type":"training_avg","trial_index":8,"time_elapsed":420163,"internal_node_id":"0.0-8.0"},{"trial_type":"number-animation","trial_index":9,"time_elapsed":521557,"internal_node_id":"0.0-9.0"},{"phase":0,"sequence":2,"avg":188,"response":190,"trial_type":"training_avg","trial_index":10,"time_elapsed":530736,"internal_node_id":"0.0-10.0"},{"trial_type":"number-animation","trial_index":11,"time_elapsed":617361,"internal_node_id":"0.0-11.0"},{"phase":0,"sequence":3,"avg":177,"response":165,"trial_type":"training_avg","trial_index":12,"time_elapsed":625794,"internal_node_id":"0.0-12.0"},{"trial_type":"number-animation","trial_index":13,"time_elapsed":711556,"internal_node_id":"0.0-13.0"},{"phase":0,"sequence":4,"avg":182,"response":188,"trial_type":"training_avg","trial_index":14,"time_elapsed":723359,"internal_node_id":"0.0-14.0"},{"responses":[{"value":0,"offby":-1,"category":"$115 - $130","category_index":0},{"value":0,"offby":-5,"category":"$131 - $145","category_index":1},{"value":5,"offby":-7,"category":"$146 - $160","category_index":2},{"value":10,"offby":-12,"category":"$161 - $175","category_index":3},{"value":70,"offby":36,"category":"$176 - $190","category_index":4},{"value":10,"offby":-5,"category":"$191 - $205","category_index":5},{"value":5,"offby":-6,"category":"$206 - $220","category_index":6}],"phase":0,"number":0,"trial_type":"bar-choose","trial_index":15,"time_elapsed":813812,"internal_node_id":"0.0-15.0"},{"rt":37547,"url":"\/christiane\/tickets\/utils\/testing.html","trial_type":"html","trial_index":16,"time_elapsed":852487,"internal_node_id":"0.0-16.0"},{"phase":0,"order":[43,18,40,39,34,19,28,4,9,44,24,10,13,31,14,2,25,30,21,38,15,16,33,17,48,41,32,20,49,45,6,8,1,35,7,11,42,3,46,36,0,26,37,47,23,27,12,22,29,5],"trial_type":"store_order","trial_index":17,"time_elapsed":853488,"internal_node_id":"0.0-17.0"},{"result":165,"points":2,"place":1,"phase":0,"sequence":-1,"prices":[184,180,224,165,181,199,185,193,218,146],"times":[4640,2783,771,7070],"next_num":4,"trial_type":"ticket-choose","trial_index":18,"time_elapsed":874577,"internal_node_id":"0.0-18.0"},{"rt":38567,"url":"\/christiane\/tickets\/utils\/testing_after.html","trial_type":"html","trial_index":19,"time_elapsed":914281,"internal_node_id":"0.0-19.0"},{"result":170,"points":2,"place":1,"phase":0,"sequence":0,"prices":[201,187,157,184,198,179,188,185,178,170],"times":[3913,1572,2430,2334,1894,2371,1990,2045,2256,2632],"next_num":11,"trial_type":"ticket-choose","trial_index":20,"time_elapsed":948145,"internal_node_id":"0.0-20.0"},{"result":175,"points":1,"place":3,"phase":0,"sequence":1,"prices":[175,186,158,211,180,187,177,166,209,153],"times":[3977],"next_num":1,"trial_type":"ticket-choose","trial_index":21,"time_elapsed":956687,"internal_node_id":"0.0-21.0"},{"result":150,"points":3,"place":0,"phase":0,"sequence":2,"prices":[189,150,175,160,188,207,158,194,178,199],"times":[2496,1276],"next_num":2,"trial_type":"ticket-choose","trial_index":22,"time_elapsed":965871,"internal_node_id":"0.0-22.0"},{"result":165,"points":3,"place":0,"phase":0,"sequence":3,"prices":[189,167,180,197,165,168,172,213,178,171],"times":[2312,3668,1340,1363,4699],"next_num":5,"trial_type":"ticket-choose","trial_index":23,"time_elapsed":984076,"internal_node_id":"0.0-23.0"},{"result":155,"points":2,"place":1,"phase":0,"sequence":4,"prices":[181,155,148,161,168,187,172,199,176,194],"times":[6521,1222],"next_num":2,"trial_type":"ticket-choose","trial_index":24,"time_elapsed":995088,"internal_node_id":"0.0-24.0"},{"result":158,"points":2,"place":1,"phase":0,"sequence":5,"prices":[175,186,158,209,181,188,177,167,208,154],"times":[1947,725,1119],"next_num":3,"trial_type":"ticket-choose","trial_index":25,"time_elapsed":1002834,"internal_node_id":"0.0-25.0"},{"result":185,"points":1,"place":4,"phase":0,"sequence":6,"prices":[196,165,170,184,187,211,171,201,202,185],"times":[3278,1381,1378,1078,1110,1058,1814,1148,991,3713],"next_num":10,"trial_type":"ticket-choose","trial_index":26,"time_elapsed":1025207,"internal_node_id":"0.0-26.0"},{"result":167,"points":2,"place":1,"phase":0,"sequence":7,"prices":[175,185,178,215,181,186,167,168,208,156],"times":[1715,1146,1060,1064,1118,1096,1474],"next_num":7,"trial_type":"ticket-choose","trial_index":27,"time_elapsed":1037877,"internal_node_id":"0.0-27.0"},{"result":166,"points":1,"place":2,"phase":0,"sequence":8,"prices":[175,186,177,210,179,187,165,166,153,208],"times":[1536,1047,996,1054,946,961,972,3352],"next_num":8,"trial_type":"ticket-choose","trial_index":28,"time_elapsed":1053119,"internal_node_id":"0.0-28.0"},{"result":159,"points":1,"place":2,"phase":0,"sequence":9,"prices":[180,159,149,175,185,141,163,174,178,207],"times":[1126,1304],"next_num":2,"trial_type":"ticket-choose","trial_index":29,"time_elapsed":1058079,"internal_node_id":"0.0-29.0"},{"result":184,"points":1,"place":4,"phase":0,"sequence":10,"prices":[193,165,175,181,185,224,180,199,218,184],"times":[909,1080,1677,941,771,714,768,733,719,1339],"next_num":11,"trial_type":"ticket-choose","trial_index":30,"time_elapsed":1074092,"internal_node_id":"0.0-30.0"},{"result":177,"points":1,"place":4,"phase":0,"sequence":11,"prices":[175,187,177,209,180,188,165,165,154,208],"times":[2107,872,1193],"next_num":3,"trial_type":"ticket-choose","trial_index":31,"time_elapsed":1081812,"internal_node_id":"0.0-31.0"},{"result":163,"points":2,"place":1,"phase":0,"sequence":12,"prices":[175,187,163,209,180,188,176,165,154,208],"times":[803,767,1980],"next_num":3,"trial_type":"ticket-choose","trial_index":32,"time_elapsed":1088167,"internal_node_id":"0.0-32.0"},{"result":170,"points":1,"place":3,"phase":0,"sequence":13,"prices":[171,203,175,170,167,220,192,186,165,165],"times":[852,900,808,1447],"next_num":4,"trial_type":"ticket-choose","trial_index":33,"time_elapsed":1095127,"internal_node_id":"0.0-33.0"},{"result":166,"points":1,"place":2,"phase":0,"sequence":14,"prices":[174,186,163,212,181,187,176,166,153,209],"times":[1140,715,1358,670,695,716,786,1701],"next_num":8,"trial_type":"ticket-choose","trial_index":34,"time_elapsed":1106999,"internal_node_id":"0.0-34.0"},{"result":169,"points":1,"place":2,"phase":0,"sequence":15,"prices":[175,186,167,225,179,187,178,169,209,153],"times":[1033,833,1262,675,746,726,664,1454],"next_num":8,"trial_type":"ticket-choose","trial_index":35,"time_elapsed":1118219,"internal_node_id":"0.0-35.0"},{"result":162,"points":3,"place":0,"phase":0,"sequence":16,"prices":[201,165,162,166,185,214,165,202,204,179],"times":[1509,1193,1352],"next_num":3,"trial_type":"ticket-choose","trial_index":36,"time_elapsed":1125310,"internal_node_id":"0.0-36.0"},{"result":165,"points":3,"place":0,"phase":0,"sequence":17,"prices":[191,172,169,175,182,203,170,195,165,176],"times":[947,1882,1352,731,658,679,617,667,1066],"next_num":9,"trial_type":"ticket-choose","trial_index":37,"time_elapsed":1137840,"internal_node_id":"0.0-37.0"},{"result":158,"points":2,"place":1,"phase":0,"sequence":18,"prices":[175,186,177,221,180,187,158,166,209,153],"times":[883,1086,1777,647,635,668,1132],"next_num":7,"trial_type":"ticket-choose","trial_index":38,"time_elapsed":1148225,"internal_node_id":"0.0-38.0"},{"result":163,"points":3,"place":0,"phase":0,"sequence":19,"prices":[168,199,196,198,185,195,227,163,177,166],"times":[703,572,743,686,1020,799,931,1205],"next_num":8,"trial_type":"ticket-choose","trial_index":39,"time_elapsed":1159285,"internal_node_id":"0.0-39.0"},{"result":163,"points":2,"place":1,"phase":0,"sequence":20,"prices":[175,186,176,210,179,187,163,166,153,208],"times":[1219,618,1140,707,1057,625,1391],"next_num":7,"trial_type":"ticket-choose","trial_index":40,"time_elapsed":1169660,"internal_node_id":"0.0-40.0"},{"result":163,"points":2,"place":1,"phase":0,"sequence":21,"prices":[175,187,176,209,180,188,163,165,154,208],"times":[855,745,1243,683,753,735,1615],"next_num":7,"trial_type":"ticket-choose","trial_index":41,"time_elapsed":1180052,"internal_node_id":"0.0-41.0"},{"result":167,"points":2,"place":1,"phase":0,"sequence":22,"prices":[183,182,192,168,173,205,167,187,165,170],"times":[1322,724,880,4078,695,722,1796],"next_num":7,"trial_type":"ticket-choose","trial_index":42,"time_elapsed":1194033,"internal_node_id":"0.0-42.0"},{"result":163,"points":2,"place":1,"phase":0,"sequence":23,"prices":[174,186,176,217,181,187,163,166,153,209],"times":[1104,1336,1072,884,1131,828,2064],"next_num":7,"trial_type":"ticket-choose","trial_index":43,"time_elapsed":1205835,"internal_node_id":"0.0-43.0"},{"result":147,"points":3,"place":0,"phase":0,"sequence":24,"prices":[181,215,169,147,182,193,177,184,176,179],"times":[1011,1149,1671,1230],"next_num":4,"trial_type":"ticket-choose","trial_index":44,"time_elapsed":1213935,"internal_node_id":"0.0-44.0"},{"result":135,"points":3,"place":0,"phase":0,"sequence":25,"prices":[201,207,155,158,156,165,167,135,178,177],"times":[1067,1092,5451,1009,996,898,911,1320],"next_num":8,"trial_type":"ticket-choose","trial_index":45,"time_elapsed":1230718,"internal_node_id":"0.0-45.0"},{"result":165,"points":3,"place":0,"phase":0,"sequence":26,"prices":[193,169,171,187,190,224,174,194,165,188],"times":[1146,1137,1567,1031,796,953,970,1379,2059],"next_num":9,"trial_type":"ticket-choose","trial_index":46,"time_elapsed":1246163,"internal_node_id":"0.0-46.0"},{"result":153,"points":3,"place":0,"phase":0,"sequence":27,"prices":[176,187,158,210,181,187,177,165,208,153],"times":[1066,958,2722,678,710,696,933,1154,928,1200],"next_num":10,"trial_type":"ticket-choose","trial_index":47,"time_elapsed":1261783,"internal_node_id":"0.0-47.0"},{"result":148,"points":3,"place":0,"phase":0,"sequence":28,"prices":[183,163,185,180,166,148,160,186,176,184],"times":[1288,1679,1157,731,1292,1109],"next_num":6,"trial_type":"ticket-choose","trial_index":48,"time_elapsed":1272271,"internal_node_id":"0.0-48.0"},{"result":164,"points":3,"place":0,"phase":0,"sequence":29,"prices":[212,192,188,184,167,193,189,164,176,170],"times":[1134,924,2696,1341,1695,743,804,1137],"next_num":8,"trial_type":"ticket-choose","trial_index":49,"time_elapsed":1286655,"internal_node_id":"0.0-49.0"},{"result":153,"points":3,"place":0,"phase":0,"sequence":30,"prices":[175,186,165,214,179,187,177,166,153,208],"times":[1065,977,2025,671,913,884,836,1791,1259],"next_num":9,"trial_type":"ticket-choose","trial_index":50,"time_elapsed":1301280,"internal_node_id":"0.0-50.0"},{"result":153,"points":3,"place":0,"phase":0,"sequence":31,"prices":[174,186,165,212,181,187,177,167,153,209],"times":[2432,1313,1241,698,1024,675,1059,1122,1226],"next_num":9,"trial_type":"ticket-choose","trial_index":51,"time_elapsed":1315878,"internal_node_id":"0.0-51.0"},{"result":156,"points":3,"place":0,"phase":0,"sequence":32,"prices":[175,185,167,224,181,186,178,168,208,156],"times":[1367,1085,2103,730,788,750,736,1708,1033,987],"next_num":10,"trial_type":"ticket-choose","trial_index":52,"time_elapsed":1331220,"internal_node_id":"0.0-52.0"},{"result":154,"points":2,"place":1,"phase":0,"sequence":33,"prices":[168,154,172,185,195,144,184,211,177,227],"times":[916,1480],"next_num":2,"trial_type":"ticket-choose","trial_index":53,"time_elapsed":1335989,"internal_node_id":"0.0-53.0"},{"result":154,"points":3,"place":0,"phase":0,"sequence":34,"prices":[175,187,165,209,180,188,177,166,154,208],"times":[816,673,909,775,814,879,1021,2108,1231],"next_num":9,"trial_type":"ticket-choose","trial_index":54,"time_elapsed":1349147,"internal_node_id":"0.0-54.0"},{"result":153,"points":3,"place":0,"phase":0,"sequence":35,"prices":[174,186,177,217,181,187,165,166,153,209],"times":[1078,627,1391,1537,1128,1971,919,851,1233],"next_num":9,"trial_type":"ticket-choose","trial_index":55,"time_elapsed":1363949,"internal_node_id":"0.0-55.0"},{"result":143,"points":3,"place":0,"phase":0,"sequence":36,"prices":[222,173,202,197,143,205,198,183,178,186],"times":[1610,2563,738,881,1350],"next_num":5,"trial_type":"ticket-choose","trial_index":56,"time_elapsed":1374225,"internal_node_id":"0.0-56.0"},{"result":167,"points":2,"place":1,"phase":0,"sequence":37,"prices":[174,186,178,217,181,188,167,168,208,156],"times":[1037,919,4699,846,714,665,1463],"next_num":7,"trial_type":"ticket-choose","trial_index":57,"time_elapsed":1388715,"internal_node_id":"0.0-57.0"},{"result":158,"points":3,"place":0,"phase":0,"sequence":38,"prices":[210,184,226,193,215,158,199,175,176,208],"times":[1214,852,729,1082,763,3448],"next_num":6,"trial_type":"ticket-choose","trial_index":58,"time_elapsed":1400014,"internal_node_id":"0.0-58.0"},{"result":154,"points":3,"place":0,"phase":0,"sequence":39,"prices":[188,200,165,172,198,174,177,154,177,180],"times":[1471,806,1753,680,688,719,814,1291],"next_num":8,"trial_type":"ticket-choose","trial_index":59,"time_elapsed":1412394,"internal_node_id":"0.0-59.0"},{"result":156,"points":3,"place":0,"phase":0,"sequence":40,"prices":[174,186,167,211,181,188,178,168,208,156],"times":[1927,1158,1183,761,843,768,878,2981,776,883],"next_num":10,"trial_type":"ticket-choose","trial_index":60,"time_elapsed":1429455,"internal_node_id":"0.0-60.0"},{"result":180,"points":1,"place":4,"phase":0,"sequence":41,"prices":[200,165,165,173,182,207,161,202,204,180],"times":[1423,1130,602,819,678,801,1341,787,1170,1121],"next_num":10,"trial_type":"ticket-choose","trial_index":61,"time_elapsed":1443300,"internal_node_id":"0.0-61.0"},{"result":152,"points":3,"place":0,"phase":0,"sequence":42,"prices":[198,193,169,163,202,182,152,164,177,171],"times":[1715,956,999,994,1025,1222,1080],"next_num":7,"trial_type":"ticket-choose","trial_index":62,"time_elapsed":1455349,"internal_node_id":"0.0-62.0"},{"result":152,"points":3,"place":0,"phase":0,"sequence":43,"prices":[200,181,203,152,175,171,160,154,176,191],"times":[937,906,725,1215],"next_num":4,"trial_type":"ticket-choose","trial_index":63,"time_elapsed":1461805,"internal_node_id":"0.0-63.0"},{"result":158,"points":2,"place":1,"phase":0,"sequence":44,"prices":[176,187,177,225,181,187,158,165,208,153],"times":[1294,970,753,782,951,794,1282],"next_num":7,"trial_type":"ticket-choose","trial_index":64,"time_elapsed":1472220,"internal_node_id":"0.0-64.0"},{"result":186,"points":1,"place":4,"phase":0,"sequence":45,"prices":[192,165,171,178,188,217,172,195,197,186],"times":[1234,848,771,793,786,960,1262,914,763,1434],"next_num":11,"trial_type":"ticket-choose","trial_index":65,"time_elapsed":1486754,"internal_node_id":"0.0-65.0"},{"result":153,"points":3,"place":0,"phase":0,"sequence":46,"prices":[175,186,163,214,179,187,176,166,153,208],"times":[1844,2920,1321,766,946,959,768,1232,1229],"next_num":9,"trial_type":"ticket-choose","trial_index":66,"time_elapsed":1502924,"internal_node_id":"0.0-66.0"},{"result":158,"points":2,"place":1,"phase":0,"sequence":47,"prices":[175,186,177,209,181,188,158,167,208,154],"times":[1971,835,631,763,654,684,1310],"next_num":7,"trial_type":"ticket-choose","trial_index":67,"time_elapsed":1513346,"internal_node_id":"0.0-67.0"},{"result":168,"points":2,"place":1,"phase":0,"sequence":48,"prices":[185,170,182,201,173,199,171,188,165,168],"times":[1496,668,717,719,688,664,872,718,1091,783],"next_num":11,"trial_type":"ticket-choose","trial_index":68,"time_elapsed":1526502,"internal_node_id":"0.0-68.0"},{"result":153,"points":3,"place":0,"phase":0,"sequence":49,"prices":[175,186,178,212,179,187,167,169,209,153],"times":[1651,1074,1230,836,863,967,1308,878,782,1121],"next_num":10,"trial_type":"ticket-choose","trial_index":69,"time_elapsed":1542091,"internal_node_id":"0.0-69.0"},{"responses":[{"value":4,"offby":3,"category":"$115 - $130","category_index":0},{"value":8,"offby":3,"category":"$131 - $145","category_index":1},{"value":12,"offby":0,"category":"$146 - $160","category_index":2},{"value":25,"offby":3,"category":"$161 - $175","category_index":3},{"value":28,"offby":-6,"category":"$176 - $190","category_index":4},{"value":15,"offby":0,"category":"$191 - $205","category_index":5},{"value":8,"offby":-3,"category":"$206 - $220","category_index":6}],"phase":1,"number":1,"trial_type":"bar-choose","trial_index":70,"time_elapsed":1602470,"internal_node_id":"0.0-70.0"},{"rt":60597,"url":"\/christiane\/tickets\/utils\/testing2.html","trial_type":"point_update","trial_index":71,"time_elapsed":1664321,"internal_node_id":"0.0-71.0"},{"phase":1,"order":[26,12,37,32,7,1,3,36,34,43,23,10,35,30,13,45,15,14,18,41,8,38,2,4,46,5,9,0,29,17,31,49,33,24,25,42,21,22,16,28,39,27,44,20,47,6,48,40,19,11],"trial_type":"store_order","trial_index":72,"time_elapsed":1665326,"internal_node_id":"0.0-72.0"},{"result":152,"points":3,"place":0,"phase":1,"sequence":0,"prices":[200,173,182,169,207,165,152,202,161,204],"times":[1953,1232,602,546,654,543,1141],"next_num":7,"trial_type":"ticket-choose","trial_index":73,"time_elapsed":1675411,"internal_node_id":"0.0-73.0"},{"result":163,"points":2,"place":1,"phase":1,"sequence":1,"prices":[163,175,186,214,176,179,187,166,153,208],"times":[1501],"next_num":1,"trial_type":"ticket-choose","trial_index":74,"time_elapsed":1679492,"internal_node_id":"0.0-74.0"},{"result":151,"points":3,"place":0,"phase":1,"sequence":2,"prices":[199,193,169,165,202,182,151,164,176,171],"times":[926,608,612,753,670,631,1065],"next_num":7,"trial_type":"ticket-choose","trial_index":75,"time_elapsed":1688252,"internal_node_id":"0.0-75.0"},{"result":165,"points":2,"place":1,"phase":1,"sequence":3,"prices":[193,174,224,165,187,190,224,161,194,195],"times":[908,599,457,1287],"next_num":4,"trial_type":"ticket-choose","trial_index":76,"time_elapsed":1694109,"internal_node_id":"0.0-76.0"},{"result":167,"points":1,"place":2,"phase":1,"sequence":4,"prices":[165,175,187,209,177,180,188,167,154,208],"times":[1178,864,840,622,638,638,891,1092],"next_num":8,"trial_type":"ticket-choose","trial_index":77,"time_elapsed":1704330,"internal_node_id":"0.0-77.0"},{"result":156,"points":3,"place":0,"phase":1,"sequence":5,"prices":[167,175,185,224,178,181,186,168,208,156],"times":[1544,451,668,677,719,765,849,2297,752,904],"next_num":10,"trial_type":"ticket-choose","trial_index":78,"time_elapsed":1718282,"internal_node_id":"0.0-78.0"},{"result":168,"points":1,"place":2,"phase":1,"sequence":6,"prices":[178,174,186,217,167,181,188,168,208,156],"times":[1376,1956,751,897,700,682,653,1254],"next_num":8,"trial_type":"ticket-choose","trial_index":79,"time_elapsed":1730235,"internal_node_id":"0.0-79.0"},{"result":165,"points":2,"place":1,"phase":1,"sequence":7,"prices":[187,201,165,172,196,174,178,154,172,180],"times":[1385,502,1241],"next_num":3,"trial_type":"ticket-choose","trial_index":80,"time_elapsed":1735639,"internal_node_id":"0.0-80.0"},{"result":156,"points":2,"place":1,"phase":1,"sequence":8,"prices":[180,156,149,160,168,186,172,198,176,195],"times":[638,1029],"next_num":2,"trial_type":"ticket-choose","trial_index":81,"time_elapsed":1739502,"internal_node_id":"0.0-81.0"},{"result":157,"points":3,"place":0,"phase":1,"sequence":9,"prices":[201,187,157,184,198,179,188,185,178,170],"times":[572,644,1044],"next_num":3,"trial_type":"ticket-choose","trial_index":82,"time_elapsed":1744225,"internal_node_id":"0.0-82.0"},{"result":158,"points":2,"place":1,"phase":1,"sequence":10,"prices":[177,176,187,225,158,181,187,165,208,153],"times":[867,1657,844,806,1559],"next_num":5,"trial_type":"ticket-choose","trial_index":83,"time_elapsed":1755725,"internal_node_id":"0.0-83.0"},{"result":154,"points":3,"place":0,"phase":1,"sequence":11,"prices":[177,175,187,209,165,180,188,165,154,208],"times":[1526,1088,601,878,965,707,616,705,1122],"next_num":9,"trial_type":"ticket-choose","trial_index":84,"time_elapsed":1767465,"internal_node_id":"0.0-84.0"},{"result":153,"points":2,"place":1,"phase":1,"sequence":12,"prices":[167,153,172,185,195,143,184,211,177,227],"times":[1137,1042],"next_num":2,"trial_type":"ticket-choose","trial_index":85,"time_elapsed":1772024,"internal_node_id":"0.0-85.0"},{"result":157,"points":3,"place":0,"phase":1,"sequence":13,"prices":[191,170,182,165,175,182,203,157,195,200],"times":[1073,905,712,964,846,676,739,1085],"next_num":8,"trial_type":"ticket-choose","trial_index":86,"time_elapsed":1782446,"internal_node_id":"0.0-86.0"},{"result":154,"points":3,"place":0,"phase":1,"sequence":14,"prices":[163,175,187,209,176,180,188,165,154,208],"times":[966,675,761,701,870,700,905,811,932],"next_num":9,"trial_type":"ticket-choose","trial_index":87,"time_elapsed":1793453,"internal_node_id":"0.0-87.0"},{"result":170,"points":1,"place":2,"phase":1,"sequence":15,"prices":[199,191,188,174,167,193,189,164,176,170],"times":[1446,578,592,703,1663,674,652,763,740,1080],"next_num":10,"trial_type":"ticket-choose","trial_index":88,"time_elapsed":1806213,"internal_node_id":"0.0-88.0"},{"result":153,"points":3,"place":0,"phase":1,"sequence":16,"prices":[176,175,186,210,163,179,187,166,153,208],"times":[817,632,733,660,767,695,841,744,947],"next_num":9,"trial_type":"ticket-choose","trial_index":89,"time_elapsed":1816866,"internal_node_id":"0.0-89.0"},{"result":153,"points":3,"place":0,"phase":1,"sequence":17,"prices":[163,174,186,212,176,181,187,166,153,209],"times":[911,1368,788,709,826,1109,583,909,967],"next_num":9,"trial_type":"ticket-choose","trial_index":90,"time_elapsed":1828853,"internal_node_id":"0.0-90.0"},{"result":158,"points":2,"place":1,"phase":1,"sequence":18,"prices":[158,175,186,211,177,180,187,166,209,153],"times":[1385],"next_num":1,"trial_type":"ticket-choose","trial_index":91,"time_elapsed":1832137,"internal_node_id":"0.0-91.0"},{"result":155,"points":2,"place":1,"phase":1,"sequence":19,"prices":[200,207,155,158,156,168,167,135,178,177],"times":[1090,517,1040],"next_num":3,"trial_type":"ticket-choose","trial_index":92,"time_elapsed":1837173,"internal_node_id":"0.0-92.0"},{"result":166,"points":1,"place":2,"phase":1,"sequence":20,"prices":[165,174,186,212,177,181,187,166,153,209],"times":[967,621,610,644,626,589,571,2579],"next_num":8,"trial_type":"ticket-choose","trial_index":93,"time_elapsed":1847801,"internal_node_id":"0.0-93.0"},{"result":166,"points":1,"place":2,"phase":1,"sequence":21,"prices":[163,199,196,199,185,195,227,163,177,166],"times":[1187,627,577,655,763,697,727,878,629,1271],"next_num":10,"trial_type":"ticket-choose","trial_index":94,"time_elapsed":1859626,"internal_node_id":"0.0-94.0"},{"result":153,"points":3,"place":0,"phase":1,"sequence":22,"prices":[167,175,186,225,178,179,187,169,209,153],"times":[1899,517,624,694,638,621,765,1065,894,797],"next_num":10,"trial_type":"ticket-choose","trial_index":95,"time_elapsed":1872156,"internal_node_id":"0.0-95.0"},{"result":156,"points":3,"place":0,"phase":1,"sequence":23,"prices":[178,175,185,215,167,181,186,168,208,156],"times":[1316,1141,777,1270,1325,688,664,650,933,1053],"next_num":10,"trial_type":"ticket-choose","trial_index":96,"time_elapsed":1885931,"internal_node_id":"0.0-96.0"},{"result":158,"points":3,"place":0,"phase":1,"sequence":24,"prices":[214,184,226,192,215,158,199,175,176,208],"times":[971,594,801,714,870,1049],"next_num":6,"trial_type":"ticket-choose","trial_index":97,"time_elapsed":1893795,"internal_node_id":"0.0-97.0"},{"result":153,"points":3,"place":0,"phase":1,"sequence":25,"prices":[178,175,186,212,167,179,187,169,209,153],"times":[791,873,869,805,1309,605,912,775,813,859],"next_num":10,"trial_type":"ticket-choose","trial_index":98,"time_elapsed":1906252,"internal_node_id":"0.0-98.0"},{"result":153,"points":3,"place":0,"phase":1,"sequence":26,"prices":[177,175,186,210,165,179,187,166,153,208],"times":[938,756,768,664,854,840,812,1147,1025],"next_num":9,"trial_type":"ticket-choose","trial_index":99,"time_elapsed":1917855,"internal_node_id":"0.0-99.0"},{"result":156,"points":3,"place":0,"phase":1,"sequence":27,"prices":[167,174,186,211,178,181,188,168,208,156],"times":[832,696,584,633,634,640,769,759,677,1221],"next_num":10,"trial_type":"ticket-choose","trial_index":100,"time_elapsed":1929636,"internal_node_id":"0.0-100.0"},{"result":150,"points":3,"place":0,"phase":1,"sequence":28,"prices":[185,179,191,165,161,173,199,150,188,168],"times":[1406,701,812,1967,691,649,670,1112],"next_num":8,"trial_type":"ticket-choose","trial_index":101,"time_elapsed":1941060,"internal_node_id":"0.0-101.0"},{"result":153,"points":3,"place":0,"phase":1,"sequence":29,"prices":[176,186,178,217,163,181,187,166,153,209],"times":[972,662,689,852,820,634,657,706,959],"next_num":9,"trial_type":"ticket-choose","trial_index":102,"time_elapsed":1951846,"internal_node_id":"0.0-102.0"},{"result":148,"points":3,"place":0,"phase":1,"sequence":30,"prices":[171,169,186,165,163,167,220,148,187,165],"times":[2105,955,882,942,969,969,903,1376],"next_num":8,"trial_type":"ticket-choose","trial_index":103,"time_elapsed":1964712,"internal_node_id":"0.0-103.0"},{"result":148,"points":3,"place":0,"phase":1,"sequence":31,"prices":[173,163,185,181,166,148,160,185,176,184],"times":[1099,562,593,597,560,1420],"next_num":6,"trial_type":"ticket-choose","trial_index":104,"time_elapsed":1972656,"internal_node_id":"0.0-104.0"},{"result":159,"points":3,"place":0,"phase":1,"sequence":32,"prices":[183,179,188,165,168,173,205,159,187,191],"times":[934,933,619,1267,1023,653,734,1455],"next_num":8,"trial_type":"ticket-choose","trial_index":105,"time_elapsed":1983616,"internal_node_id":"0.0-105.0"},{"result":165,"points":3,"place":0,"phase":1,"sequence":33,"prices":[193,181,175,181,185,165,224,199,218,184],"times":[2177,567,538,611,880,1125],"next_num":6,"trial_type":"ticket-choose","trial_index":106,"time_elapsed":1992388,"internal_node_id":"0.0-106.0"},{"result":156,"points":3,"place":0,"phase":1,"sequence":34,"prices":[201,204,179,166,185,165,214,156,202,165],"times":[1422,647,828,964,655,903,716,1211],"next_num":8,"trial_type":"ticket-choose","trial_index":107,"time_elapsed":2003111,"internal_node_id":"0.0-107.0"},{"result":186,"points":1,"place":4,"phase":1,"sequence":35,"prices":[220,173,201,197,169,205,198,183,178,186],"times":[556,695,754,1160,1118,1258,639,760,690,699],"next_num":11,"trial_type":"ticket-choose","trial_index":108,"time_elapsed":2015930,"internal_node_id":"0.0-108.0"},{"result":158,"points":2,"place":1,"phase":1,"sequence":36,"prices":[177,175,186,221,158,180,187,166,209,153],"times":[1501,680,827,785,1044],"next_num":5,"trial_type":"ticket-choose","trial_index":109,"time_elapsed":2024321,"internal_node_id":"0.0-109.0"},{"result":158,"points":2,"place":1,"phase":1,"sequence":37,"prices":[177,175,186,209,158,181,188,167,208,154],"times":[1054,685,682,644,1062],"next_num":5,"trial_type":"ticket-choose","trial_index":110,"time_elapsed":2035805,"internal_node_id":"0.0-110.0"},{"result":154,"points":3,"place":0,"phase":1,"sequence":38,"prices":[176,187,179,209,163,180,188,165,154,208],"times":[1408,780,786,801,1546,606,611,1059,1086],"next_num":9,"trial_type":"ticket-choose","trial_index":111,"time_elapsed":2048188,"internal_node_id":"0.0-111.0"},{"result":202,"points":0,"place":8,"phase":1,"sequence":39,"prices":[196,171,170,184,187,165,211,169,201,202],"times":[923,616,637,763,728,1185,779,865,778,2412],"next_num":10,"trial_type":"ticket-choose","trial_index":112,"time_elapsed":2061891,"internal_node_id":"0.0-112.0"},{"result":171,"points":1,"place":3,"phase":1,"sequence":40,"prices":[189,167,180,197,165,168,172,213,178,171],"times":[1310,1024,680,733,893,765,723,714,917,2338],"next_num":10,"trial_type":"ticket-choose","trial_index":113,"time_elapsed":2075880,"internal_node_id":"0.0-113.0"},{"result":197,"points":0,"place":8,"phase":1,"sequence":41,"prices":[192,172,171,178,188,165,217,168,195,197],"times":[1280,643,687,590,642,887,702,981,818,1496],"next_num":10,"trial_type":"ticket-choose","trial_index":114,"time_elapsed":2088628,"internal_node_id":"0.0-114.0"},{"result":159,"points":1,"place":2,"phase":1,"sequence":42,"prices":[181,159,149,175,185,151,163,174,178,207],"times":[1017,913],"next_num":2,"trial_type":"ticket-choose","trial_index":115,"time_elapsed":2092647,"internal_node_id":"0.0-115.0"},{"result":158,"points":2,"place":1,"phase":1,"sequence":43,"prices":[158,176,187,210,177,181,187,165,208,153],"times":[1360],"next_num":1,"trial_type":"ticket-choose","trial_index":116,"time_elapsed":2095865,"internal_node_id":"0.0-116.0"},{"result":152,"points":3,"place":0,"phase":1,"sequence":44,"prices":[200,180,203,152,175,170,160,154,176,191],"times":[1263,715,663,911],"next_num":4,"trial_type":"ticket-choose","trial_index":117,"time_elapsed":2101815,"internal_node_id":"0.0-117.0"},{"result":166,"points":1,"place":2,"phase":1,"sequence":45,"prices":[165,175,186,214,177,179,187,166,153,208],"times":[1603,590,604,646,635,717,766,1530],"next_num":8,"trial_type":"ticket-choose","trial_index":118,"time_elapsed":2112218,"internal_node_id":"0.0-118.0"},{"result":147,"points":3,"place":0,"phase":1,"sequence":46,"prices":[181,214,169,147,182,193,178,184,176,179],"times":[1028,623,694,1232],"next_num":4,"trial_type":"ticket-choose","trial_index":119,"time_elapsed":2118225,"internal_node_id":"0.0-119.0"},{"result":150,"points":3,"place":0,"phase":1,"sequence":47,"prices":[190,150,175,161,188,207,157,194,178,199],"times":[939,1111],"next_num":2,"trial_type":"ticket-choose","trial_index":120,"time_elapsed":2122400,"internal_node_id":"0.0-120.0"},{"result":158,"points":2,"place":1,"phase":1,"sequence":48,"prices":[158,175,186,209,177,181,188,167,208,154],"times":[1100],"next_num":1,"trial_type":"ticket-choose","trial_index":121,"time_elapsed":2125516,"internal_node_id":"0.0-121.0"},{"result":153,"points":3,"place":0,"phase":1,"sequence":49,"prices":[177,174,186,217,165,181,187,166,153,209],"times":[1316,649,765,679,709,909,659,1445,1261],"next_num":9,"trial_type":"ticket-choose","trial_index":122,"time_elapsed":2137879,"internal_node_id":"0.0-122.0"},{"responses":[{"value":1,"offby":0,"category":"$115 - $130","category_index":0},{"value":8,"offby":3,"category":"$131 - $145","category_index":1},{"value":15,"offby":3,"category":"$146 - $160","category_index":2},{"value":21,"offby":-1,"category":"$161 - $175","category_index":3},{"value":30,"offby":-4,"category":"$176 - $190","category_index":4},{"value":22,"offby":7,"category":"$191 - $205","category_index":5},{"value":3,"offby":-8,"category":"$206 - $220","category_index":6}],"phase":1,"number":1,"trial_type":"bar-choose","trial_index":123,"time_elapsed":2184165,"internal_node_id":"0.0-123.0"},{"special_comment":"The lowest numbers were in the $140 to $150 range","trial_type":"special_sequence","trial_index":124,"time_elapsed":2235983,"internal_node_id":"0.0-124.0"},{"during":"Nothing","bonus":304,"trial_type":"final","trial_index":125,"time_elapsed":2284487,"internal_node_id":"0.0-125.0"}],"bonus":304}