{"start_time":"2017-05-24 08:46:36","end_time":"2017-05-24 09:04:16","points_phase0":101,"points_phase1":103,"phase_order":0,"age":44,"gender":"m","tries":2,"during":"Nothing","worker_id":"A2B8HPIZDKYKDR","assignment_id":"3BEFOD78W7M7AKZGA6NR8PDIBCHM4W","data":[{"rt":11674,"url":"\/christiane\/tickets\/utils\/consent.html","trial_type":"html","trial_index":0,"time_elapsed":11744,"internal_node_id":"0.0-0.0"},{"age":44,"gender":"m","trial_type":"age","trial_index":1,"time_elapsed":16424,"internal_node_id":"0.0-1.0"},{"worker_id":"A2B8HPIZDKYKDR","trial_type":"workerid","trial_index":2,"time_elapsed":26167,"internal_node_id":"0.0-2.0"},{"tries":2,"trial_type":"instructions_check","trial_index":3,"time_elapsed":55626,"internal_node_id":"0.0-3.0"},{"rt":8488,"url":"\/christiane\/tickets\/utils\/start.html","trial_type":"html","trial_index":4,"time_elapsed":65198,"internal_node_id":"0.0-4.0"},{"trial_type":"number-animation","trial_index":5,"time_elapsed":76038,"internal_node_id":"0.0-5.0"},{"phase":0,"sequence":0,"avg":181,"response":180,"trial_type":"training_avg","trial_index":6,"time_elapsed":82867,"internal_node_id":"0.0-6.0"},{"trial_type":"number-animation","trial_index":7,"time_elapsed":89965,"internal_node_id":"0.0-7.0"},{"phase":0,"sequence":1,"avg":188,"response":190,"trial_type":"training_avg","trial_index":8,"time_elapsed":97535,"internal_node_id":"0.0-8.0"},{"trial_type":"number-animation","trial_index":9,"time_elapsed":103875,"internal_node_id":"0.0-9.0"},{"phase":0,"sequence":2,"avg":188,"response":188,"trial_type":"training_avg","trial_index":10,"time_elapsed":111595,"internal_node_id":"0.0-10.0"},{"trial_type":"number-animation","trial_index":11,"time_elapsed":118959,"internal_node_id":"0.0-11.0"},{"phase":0,"sequence":3,"avg":177,"response":172,"trial_type":"training_avg","trial_index":12,"time_elapsed":124705,"internal_node_id":"0.0-12.0"},{"trial_type":"number-animation","trial_index":13,"time_elapsed":131324,"internal_node_id":"0.0-13.0"},{"phase":0,"sequence":4,"avg":182,"response":178,"trial_type":"training_avg","trial_index":14,"time_elapsed":136983,"internal_node_id":"0.0-14.0"},{"responses":[{"value":2,"offby":1,"category":"$115 - $130","category_index":0},{"value":8,"offby":3,"category":"$131 - $145","category_index":1},{"value":10,"offby":-2,"category":"$146 - $160","category_index":2},{"value":15,"offby":-7,"category":"$161 - $175","category_index":3},{"value":45,"offby":11,"category":"$176 - $190","category_index":4},{"value":10,"offby":-5,"category":"$191 - $205","category_index":5},{"value":10,"offby":-1,"category":"$206 - $220","category_index":6}],"phase":0,"number":0,"trial_type":"bar-choose","trial_index":15,"time_elapsed":188956,"internal_node_id":"0.0-15.0"},{"rt":12576,"url":"\/christiane\/tickets\/utils\/testing.html","trial_type":"html","trial_index":16,"time_elapsed":202615,"internal_node_id":"0.0-16.0"},{"phase":0,"order":[19,13,22,11,12,21,7,6,45,47,33,27,4,49,29,23,26,3,41,5,36,38,31,2,39,14,18,20,43,24,48,1,46,9,34,44,42,28,40,37,35,10,32,8,0,16,30,15,17,25],"trial_type":"store_order","trial_index":17,"time_elapsed":203616,"internal_node_id":"0.0-17.0"},{"result":165,"points":2,"place":1,"phase":0,"sequence":-1,"prices":[184,180,224,165,181,199,185,193,218,146],"times":[1495,858,586,1203],"next_num":4,"trial_type":"ticket-choose","trial_index":18,"time_elapsed":210700,"internal_node_id":"0.0-18.0"},{"rt":12199,"url":"\/christiane\/tickets\/utils\/testing_after.html","trial_type":"html","trial_index":19,"time_elapsed":223982,"internal_node_id":"0.0-19.0"},{"result":167,"points":1,"place":2,"phase":0,"sequence":0,"prices":[175,186,158,209,181,188,177,167,208,154],"times":[1147,342,439,533,646,493,518,1029],"next_num":8,"trial_type":"ticket-choose","trial_index":20,"time_elapsed":232738,"internal_node_id":"0.0-20.0"},{"result":163,"points":2,"place":1,"phase":0,"sequence":1,"prices":[175,187,163,209,180,188,176,165,154,208],"times":[701,446,999],"next_num":3,"trial_type":"ticket-choose","trial_index":21,"time_elapsed":237247,"internal_node_id":"0.0-21.0"},{"result":158,"points":2,"place":1,"phase":0,"sequence":2,"prices":[175,186,177,209,181,188,158,167,208,154],"times":[615,557,500,492,535,477,975],"next_num":7,"trial_type":"ticket-choose","trial_index":22,"time_elapsed":244641,"internal_node_id":"0.0-22.0"},{"result":165,"points":2,"place":1,"phase":0,"sequence":3,"prices":[174,186,177,217,181,187,165,166,153,209],"times":[739,433,395,504,488,494,1600],"next_num":7,"trial_type":"ticket-choose","trial_index":23,"time_elapsed":252431,"internal_node_id":"0.0-23.0"},{"result":163,"points":2,"place":1,"phase":0,"sequence":4,"prices":[175,186,163,214,179,187,176,166,153,208],"times":[797,409,989],"next_num":3,"trial_type":"ticket-choose","trial_index":24,"time_elapsed":257017,"internal_node_id":"0.0-24.0"},{"result":158,"points":2,"place":1,"phase":0,"sequence":5,"prices":[175,186,177,221,180,187,158,166,209,153],"times":[498,605,446,482,534,521,1080],"next_num":7,"trial_type":"ticket-choose","trial_index":25,"time_elapsed":264287,"internal_node_id":"0.0-25.0"},{"result":154,"points":3,"place":0,"phase":0,"sequence":6,"prices":[175,187,165,209,180,188,177,166,154,208],"times":[506,382,255,377,227,279,373,747,909],"next_num":9,"trial_type":"ticket-choose","trial_index":26,"time_elapsed":272164,"internal_node_id":"0.0-26.0"},{"result":166,"points":1,"place":2,"phase":0,"sequence":7,"prices":[175,186,165,214,179,187,177,166,153,208],"times":[715,316,465,495,333,335,470,1205],"next_num":8,"trial_type":"ticket-choose","trial_index":27,"time_elapsed":279749,"internal_node_id":"0.0-27.0"},{"result":164,"points":3,"place":0,"phase":0,"sequence":8,"prices":[212,192,188,184,167,193,189,164,176,170],"times":[513,502,475,547,1047,447,497,996],"next_num":8,"trial_type":"ticket-choose","trial_index":28,"time_elapsed":288106,"internal_node_id":"0.0-28.0"},{"result":152,"points":3,"place":0,"phase":0,"sequence":9,"prices":[200,181,203,152,175,171,160,154,176,191],"times":[501,593,535,1649],"next_num":4,"trial_type":"ticket-choose","trial_index":29,"time_elapsed":293857,"internal_node_id":"0.0-29.0"},{"result":167,"points":2,"place":1,"phase":0,"sequence":10,"prices":[183,182,192,168,173,205,167,187,165,170],"times":[491,502,593,1234,490,531,911],"next_num":7,"trial_type":"ticket-choose","trial_index":30,"time_elapsed":301646,"internal_node_id":"0.0-30.0"},{"result":165,"points":3,"place":0,"phase":0,"sequence":11,"prices":[192,165,171,178,188,217,172,195,197,186],"times":[477,972],"next_num":2,"trial_type":"ticket-choose","trial_index":31,"time_elapsed":305142,"internal_node_id":"0.0-31.0"},{"result":167,"points":2,"place":1,"phase":0,"sequence":12,"prices":[175,185,178,215,181,186,167,168,208,156],"times":[697,531,691,534,503,618,1040],"next_num":7,"trial_type":"ticket-choose","trial_index":32,"time_elapsed":312826,"internal_node_id":"0.0-32.0"},{"result":163,"points":1,"place":2,"phase":0,"sequence":13,"prices":[183,163,185,180,166,148,160,186,176,184],"times":[835,1275],"next_num":2,"trial_type":"ticket-choose","trial_index":33,"time_elapsed":316951,"internal_node_id":"0.0-33.0"},{"result":165,"points":3,"place":0,"phase":0,"sequence":14,"prices":[185,170,182,201,173,199,171,188,165,168],"times":[443,447,483,610,507,525,532,578,954],"next_num":9,"trial_type":"ticket-choose","trial_index":34,"time_elapsed":325390,"internal_node_id":"0.0-34.0"},{"result":158,"points":2,"place":1,"phase":0,"sequence":15,"prices":[176,187,177,225,181,187,158,165,208,153],"times":[8973,504,627,464,529,495,853],"next_num":7,"trial_type":"ticket-choose","trial_index":35,"time_elapsed":341024,"internal_node_id":"0.0-35.0"},{"result":161,"points":3,"place":0,"phase":0,"sequence":16,"prices":[200,165,165,173,182,207,161,202,204,180],"times":[2764,264,359,523,507,513,896],"next_num":7,"trial_type":"ticket-choose","trial_index":36,"time_elapsed":349927,"internal_node_id":"0.0-36.0"},{"result":167,"points":2,"place":1,"phase":0,"sequence":17,"prices":[174,186,178,217,181,188,167,168,208,156],"times":[434,294,429,511,444,474,924],"next_num":7,"trial_type":"ticket-choose","trial_index":37,"time_elapsed":356442,"internal_node_id":"0.0-37.0"},{"result":155,"points":2,"place":1,"phase":0,"sequence":18,"prices":[201,207,155,158,156,165,167,135,178,177],"times":[452,303,931],"next_num":3,"trial_type":"ticket-choose","trial_index":38,"time_elapsed":360203,"internal_node_id":"0.0-38.0"},{"result":167,"points":2,"place":1,"phase":0,"sequence":19,"prices":[175,186,178,212,179,187,167,169,209,153],"times":[434,437,219,484,524,543,916],"next_num":7,"trial_type":"ticket-choose","trial_index":39,"time_elapsed":366687,"internal_node_id":"0.0-39.0"},{"result":165,"points":2,"place":1,"phase":0,"sequence":20,"prices":[188,200,165,172,198,174,177,154,177,180],"times":[418,269,932],"next_num":3,"trial_type":"ticket-choose","trial_index":40,"time_elapsed":370557,"internal_node_id":"0.0-40.0"},{"result":163,"points":3,"place":0,"phase":0,"sequence":21,"prices":[168,199,196,198,185,195,227,163,177,166],"times":[430,298,457,312,429,509,516,1044],"next_num":8,"trial_type":"ticket-choose","trial_index":41,"time_elapsed":377778,"internal_node_id":"0.0-41.0"},{"result":165,"points":3,"place":0,"phase":0,"sequence":22,"prices":[171,203,175,170,167,220,192,186,165,165],"times":[563,472,425,483,343,367,561,492,925],"next_num":9,"trial_type":"ticket-choose","trial_index":42,"time_elapsed":385831,"internal_node_id":"0.0-42.0"},{"result":153,"points":3,"place":0,"phase":0,"sequence":23,"prices":[175,186,167,225,179,187,178,169,209,153],"times":[4271,312,388,437,481,524,493,1138,566,769],"next_num":10,"trial_type":"ticket-choose","trial_index":43,"time_elapsed":398883,"internal_node_id":"0.0-43.0"},{"result":171,"points":1,"place":3,"phase":0,"sequence":24,"prices":[189,167,180,197,165,168,172,213,178,171],"times":[440,246,394,738,1097,664,724,497,625,1242],"next_num":10,"trial_type":"ticket-choose","trial_index":44,"time_elapsed":409402,"internal_node_id":"0.0-44.0"},{"result":166,"points":1,"place":2,"phase":0,"sequence":25,"prices":[174,186,163,212,181,187,176,166,153,209],"times":[1026,433,497,561,462,449,304,1099],"next_num":8,"trial_type":"ticket-choose","trial_index":45,"time_elapsed":417456,"internal_node_id":"0.0-45.0"},{"result":166,"points":1,"place":2,"phase":0,"sequence":26,"prices":[175,186,158,211,180,187,177,166,209,153],"times":[445,393,422,216,539,436,672,931],"next_num":8,"trial_type":"ticket-choose","trial_index":46,"time_elapsed":424744,"internal_node_id":"0.0-46.0"},{"result":158,"points":2,"place":1,"phase":0,"sequence":27,"prices":[176,187,158,210,181,187,177,165,208,153],"times":[741,528,886],"next_num":3,"trial_type":"ticket-choose","trial_index":47,"time_elapsed":429076,"internal_node_id":"0.0-47.0"},{"result":157,"points":3,"place":0,"phase":0,"sequence":28,"prices":[201,187,157,184,198,179,188,185,178,170],"times":[409,329,904],"next_num":3,"trial_type":"ticket-choose","trial_index":48,"time_elapsed":432848,"internal_node_id":"0.0-48.0"},{"result":184,"points":1,"place":4,"phase":0,"sequence":29,"prices":[193,165,175,181,185,224,180,199,218,184],"times":[399,552,577,513,502,511,548,527,515,804],"next_num":10,"trial_type":"ticket-choose","trial_index":49,"time_elapsed":442102,"internal_node_id":"0.0-49.0"},{"result":169,"points":2,"place":1,"phase":0,"sequence":30,"prices":[181,215,169,147,182,193,177,184,176,179],"times":[916,654,1015],"next_num":3,"trial_type":"ticket-choose","trial_index":50,"time_elapsed":446886,"internal_node_id":"0.0-50.0"},{"result":156,"points":3,"place":0,"phase":0,"sequence":31,"prices":[175,185,167,224,181,186,178,168,208,156],"times":[403,492,774,396,542,462,483,967,467,882],"next_num":10,"trial_type":"ticket-choose","trial_index":51,"time_elapsed":456495,"internal_node_id":"0.0-51.0"},{"result":208,"points":0,"place":6,"phase":0,"sequence":32,"prices":[210,184,226,193,215,158,199,175,176,208],"times":[1143,282,301,263,334,393,356,252,251,529],"next_num":11,"trial_type":"ticket-choose","trial_index":52,"time_elapsed":464650,"internal_node_id":"0.0-52.0"},{"result":165,"points":2,"place":1,"phase":0,"sequence":33,"prices":[175,186,177,210,179,187,165,166,153,208],"times":[976,500,554,483,521,514,937],"next_num":7,"trial_type":"ticket-choose","trial_index":53,"time_elapsed":472108,"internal_node_id":"0.0-53.0"},{"result":194,"points":0,"place":8,"phase":0,"sequence":34,"prices":[181,155,148,161,168,187,172,199,176,194],"times":[516,387,455,629,926,673,573,563,511,1235],"next_num":10,"trial_type":"ticket-choose","trial_index":54,"time_elapsed":482224,"internal_node_id":"0.0-54.0"},{"result":159,"points":1,"place":2,"phase":0,"sequence":35,"prices":[180,159,149,175,185,141,163,174,178,207],"times":[686,950],"next_num":2,"trial_type":"ticket-choose","trial_index":55,"time_elapsed":485758,"internal_node_id":"0.0-55.0"},{"result":143,"points":3,"place":0,"phase":0,"sequence":36,"prices":[222,173,202,197,143,205,198,183,178,186],"times":[644,688,497,566,1043],"next_num":5,"trial_type":"ticket-choose","trial_index":56,"time_elapsed":491799,"internal_node_id":"0.0-56.0"},{"result":185,"points":1,"place":4,"phase":0,"sequence":37,"prices":[196,165,170,184,187,211,171,201,202,185],"times":[638,1216,393,549,507,498,527,613,484,919],"next_num":10,"trial_type":"ticket-choose","trial_index":57,"time_elapsed":501839,"internal_node_id":"0.0-57.0"},{"result":150,"points":3,"place":0,"phase":0,"sequence":38,"prices":[189,150,175,160,188,207,158,194,178,199],"times":[505,917],"next_num":2,"trial_type":"ticket-choose","trial_index":58,"time_elapsed":505159,"internal_node_id":"0.0-58.0"},{"result":163,"points":2,"place":1,"phase":0,"sequence":39,"prices":[198,193,169,163,202,182,152,164,177,171],"times":[433,575,1191,1018],"next_num":4,"trial_type":"ticket-choose","trial_index":59,"time_elapsed":510806,"internal_node_id":"0.0-59.0"},{"result":154,"points":2,"place":1,"phase":0,"sequence":40,"prices":[168,154,172,185,195,144,184,211,177,227],"times":[485,894],"next_num":2,"trial_type":"ticket-choose","trial_index":60,"time_elapsed":514103,"internal_node_id":"0.0-60.0"},{"result":165,"points":2,"place":1,"phase":0,"sequence":41,"prices":[175,187,177,209,180,188,165,165,154,208],"times":[502,478,557,551,522,656,856],"next_num":7,"trial_type":"ticket-choose","trial_index":61,"time_elapsed":521150,"internal_node_id":"0.0-61.0"},{"result":169,"points":2,"place":1,"phase":0,"sequence":42,"prices":[193,169,171,187,190,224,174,194,165,188],"times":[609,988],"next_num":2,"trial_type":"ticket-choose","trial_index":62,"time_elapsed":524980,"internal_node_id":"0.0-62.0"},{"result":153,"points":3,"place":0,"phase":0,"sequence":43,"prices":[174,186,165,212,181,187,177,167,153,209],"times":[772,581,652,576,509,582,551,1233,773],"next_num":9,"trial_type":"ticket-choose","trial_index":63,"time_elapsed":534624,"internal_node_id":"0.0-63.0"},{"result":168,"points":1,"place":2,"phase":0,"sequence":44,"prices":[174,186,167,211,181,188,178,168,208,156],"times":[575,484,812,514,576,491,642,1026],"next_num":8,"trial_type":"ticket-choose","trial_index":64,"time_elapsed":542926,"internal_node_id":"0.0-64.0"},{"result":154,"points":3,"place":0,"phase":0,"sequence":45,"prices":[175,187,176,209,180,188,163,165,154,208],"times":[453,538,566,547,637,551,1000,848,1001],"next_num":9,"trial_type":"ticket-choose","trial_index":65,"time_elapsed":552511,"internal_node_id":"0.0-65.0"},{"result":165,"points":3,"place":0,"phase":0,"sequence":46,"prices":[191,172,169,175,182,203,170,195,165,176],"times":[545,431,566,574,574,613,537,715,941],"next_num":9,"trial_type":"ticket-choose","trial_index":66,"time_elapsed":561672,"internal_node_id":"0.0-66.0"},{"result":163,"points":2,"place":1,"phase":0,"sequence":47,"prices":[175,186,176,210,179,187,163,166,153,208],"times":[435,644,654,482,533,576,1091],"next_num":7,"trial_type":"ticket-choose","trial_index":67,"time_elapsed":569103,"internal_node_id":"0.0-67.0"},{"result":163,"points":2,"place":1,"phase":0,"sequence":48,"prices":[174,186,176,217,181,187,163,166,153,209],"times":[517,1203,483,573,817,559,954],"next_num":7,"trial_type":"ticket-choose","trial_index":68,"time_elapsed":577523,"internal_node_id":"0.0-68.0"},{"result":179,"points":1,"place":4,"phase":0,"sequence":49,"prices":[201,165,162,166,185,214,165,202,204,179],"times":[752,1412,493,685,549,593,954,518,565,972],"next_num":10,"trial_type":"ticket-choose","trial_index":69,"time_elapsed":588818,"internal_node_id":"0.0-69.0"},{"responses":[{"value":2,"offby":1,"category":"$115 - $130","category_index":0},{"value":5,"offby":0,"category":"$131 - $145","category_index":1},{"value":13,"offby":1,"category":"$146 - $160","category_index":2},{"value":15,"offby":-7,"category":"$161 - $175","category_index":3},{"value":45,"offby":11,"category":"$176 - $190","category_index":4},{"value":15,"offby":0,"category":"$191 - $205","category_index":5},{"value":5,"offby":-6,"category":"$206 - $220","category_index":6}],"phase":1,"number":1,"trial_type":"bar-choose","trial_index":70,"time_elapsed":619365,"internal_node_id":"0.0-70.0"},{"rt":10274,"url":"\/christiane\/tickets\/utils\/testing2.html","trial_type":"point_update","trial_index":71,"time_elapsed":630825,"internal_node_id":"0.0-71.0"},{"phase":1,"order":[47,32,40,41,33,42,34,44,23,17,15,29,18,21,28,24,2,16,4,11,22,5,19,35,38,39,31,9,8,37,3,12,45,25,27,49,20,6,7,1,43,14,0,36,10,30,13,26,46,48],"trial_type":"store_order","trial_index":72,"time_elapsed":631826,"internal_node_id":"0.0-72.0"},{"result":152,"points":3,"place":0,"phase":1,"sequence":0,"prices":[200,180,203,152,175,170,160,154,176,191],"times":[1445,626,412,895],"next_num":4,"trial_type":"ticket-choose","trial_index":73,"time_elapsed":637811,"internal_node_id":"0.0-73.0"},{"result":161,"points":3,"place":0,"phase":1,"sequence":1,"prices":[193,174,224,165,187,190,224,161,194,195],"times":[783,731,254,336,406,500,476,948],"next_num":8,"trial_type":"ticket-choose","trial_index":74,"time_elapsed":645575,"internal_node_id":"0.0-74.0"},{"result":150,"points":3,"place":0,"phase":1,"sequence":2,"prices":[190,150,175,161,188,207,157,194,178,199],"times":[868,903],"next_num":2,"trial_type":"ticket-choose","trial_index":75,"time_elapsed":649294,"internal_node_id":"0.0-75.0"},{"result":155,"points":2,"place":1,"phase":1,"sequence":3,"prices":[200,207,155,158,156,168,167,135,178,177],"times":[433,425,937],"next_num":3,"trial_type":"ticket-choose","trial_index":76,"time_elapsed":653195,"internal_node_id":"0.0-76.0"},{"result":159,"points":3,"place":0,"phase":1,"sequence":4,"prices":[183,179,188,165,168,173,205,159,187,191],"times":[446,645,556,944,742,496,515,898],"next_num":8,"trial_type":"ticket-choose","trial_index":77,"time_elapsed":661605,"internal_node_id":"0.0-77.0"},{"result":186,"points":1,"place":4,"phase":1,"sequence":5,"prices":[220,173,201,197,169,205,198,183,178,186],"times":[721,568,524,512,1183,496,508,545,765,829],"next_num":10,"trial_type":"ticket-choose","trial_index":78,"time_elapsed":671877,"internal_node_id":"0.0-78.0"},{"result":156,"points":2,"place":1,"phase":1,"sequence":6,"prices":[180,156,149,160,168,186,172,198,176,195],"times":[458,839],"next_num":2,"trial_type":"ticket-choose","trial_index":79,"time_elapsed":675155,"internal_node_id":"0.0-79.0"},{"result":159,"points":1,"place":2,"phase":1,"sequence":7,"prices":[181,159,149,175,185,151,163,174,178,207],"times":[688,954],"next_num":2,"trial_type":"ticket-choose","trial_index":80,"time_elapsed":678667,"internal_node_id":"0.0-80.0"},{"result":158,"points":2,"place":1,"phase":1,"sequence":8,"prices":[177,176,187,225,158,181,187,165,208,153],"times":[416,570,545,523,1011],"next_num":5,"trial_type":"ticket-choose","trial_index":81,"time_elapsed":684167,"internal_node_id":"0.0-81.0"},{"result":163,"points":2,"place":1,"phase":1,"sequence":9,"prices":[174,186,176,217,163,181,187,166,153,209],"times":[667,554,756,550,1362],"next_num":5,"trial_type":"ticket-choose","trial_index":82,"time_elapsed":690552,"internal_node_id":"0.0-82.0"},{"result":153,"points":3,"place":0,"phase":1,"sequence":10,"prices":[176,175,186,210,163,179,187,166,153,208],"times":[499,530,493,587,1316,531,498,975,970],"next_num":9,"trial_type":"ticket-choose","trial_index":83,"time_elapsed":700223,"internal_node_id":"0.0-83.0"},{"result":161,"points":2,"place":1,"phase":1,"sequence":11,"prices":[185,179,191,165,161,173,199,150,188,168],"times":[423,637,533,1040,1052],"next_num":5,"trial_type":"ticket-choose","trial_index":84,"time_elapsed":706436,"internal_node_id":"0.0-84.0"},{"result":166,"points":1,"place":2,"phase":1,"sequence":12,"prices":[158,175,186,211,177,180,187,166,209,153],"times":[423,549,550,526,577,508,545,1067],"next_num":8,"trial_type":"ticket-choose","trial_index":85,"time_elapsed":714295,"internal_node_id":"0.0-85.0"},{"result":158,"points":2,"place":1,"phase":1,"sequence":13,"prices":[177,175,186,221,158,180,187,166,209,153],"times":[447,574,580,521,806],"next_num":5,"trial_type":"ticket-choose","trial_index":86,"time_elapsed":719675,"internal_node_id":"0.0-86.0"},{"result":165,"points":3,"place":0,"phase":1,"sequence":14,"prices":[196,171,170,184,187,165,211,169,201,202],"times":[477,590,3046,546,529,1541],"next_num":6,"trial_type":"ticket-choose","trial_index":87,"time_elapsed":729121,"internal_node_id":"0.0-87.0"},{"result":165,"points":3,"place":0,"phase":1,"sequence":15,"prices":[193,181,175,181,185,165,224,199,218,184],"times":[517,581,489,715,532,1241],"next_num":6,"trial_type":"ticket-choose","trial_index":88,"time_elapsed":735851,"internal_node_id":"0.0-88.0"},{"result":169,"points":1,"place":2,"phase":1,"sequence":16,"prices":[167,175,186,225,178,179,187,169,209,153],"times":[669,551,471,507,489,520,530,1007],"next_num":8,"trial_type":"ticket-choose","trial_index":89,"time_elapsed":743965,"internal_node_id":"0.0-89.0"},{"result":163,"points":2,"place":1,"phase":1,"sequence":17,"prices":[175,187,176,209,163,180,188,165,154,208],"times":[1200,676,530,510,913],"next_num":5,"trial_type":"ticket-choose","trial_index":90,"time_elapsed":750479,"internal_node_id":"0.0-90.0"},{"result":167,"points":2,"place":1,"phase":1,"sequence":18,"prices":[178,175,185,215,167,181,186,168,208,156],"times":[416,532,601,554,920],"next_num":5,"trial_type":"ticket-choose","trial_index":91,"time_elapsed":756055,"internal_node_id":"0.0-91.0"},{"result":165,"points":2,"place":1,"phase":1,"sequence":19,"prices":[177,174,186,217,165,181,187,166,153,209],"times":[940,523,508,493,962],"next_num":5,"trial_type":"ticket-choose","trial_index":92,"time_elapsed":761951,"internal_node_id":"0.0-92.0"},{"result":158,"points":2,"place":1,"phase":1,"sequence":20,"prices":[177,175,186,209,158,181,188,167,208,154],"times":[453,607,543,527,905],"next_num":5,"trial_type":"ticket-choose","trial_index":93,"time_elapsed":767496,"internal_node_id":"0.0-93.0"},{"result":153,"points":3,"place":0,"phase":1,"sequence":21,"prices":[178,175,186,212,167,179,187,169,209,153],"times":[436,566,624,546,714,584,555,1033,540,808],"next_num":10,"trial_type":"ticket-choose","trial_index":94,"time_elapsed":777436,"internal_node_id":"0.0-94.0"},{"result":167,"points":1,"place":2,"phase":1,"sequence":22,"prices":[158,175,186,209,177,181,188,167,208,154],"times":[491,544,604,567,766,619,595,894],"next_num":8,"trial_type":"ticket-choose","trial_index":95,"time_elapsed":785696,"internal_node_id":"0.0-95.0"},{"result":153,"points":2,"place":1,"phase":1,"sequence":23,"prices":[167,153,172,185,195,143,184,211,177,227],"times":[441,1230],"next_num":2,"trial_type":"ticket-choose","trial_index":96,"time_elapsed":789199,"internal_node_id":"0.0-96.0"},{"result":163,"points":3,"place":0,"phase":1,"sequence":24,"prices":[163,199,196,199,185,195,227,163,177,166],"times":[430,552,552,528,537,523,542,928],"next_num":8,"trial_type":"ticket-choose","trial_index":97,"time_elapsed":797081,"internal_node_id":"0.0-97.0"},{"result":165,"points":3,"place":0,"phase":1,"sequence":25,"prices":[189,167,180,197,165,168,172,213,178,171],"times":[1359,1294,526,519,969],"next_num":5,"trial_type":"ticket-choose","trial_index":98,"time_elapsed":804307,"internal_node_id":"0.0-98.0"},{"result":165,"points":1,"place":2,"phase":1,"sequence":26,"prices":[171,169,186,165,163,167,220,148,187,165],"times":[741,780,574,1004],"next_num":4,"trial_type":"ticket-choose","trial_index":99,"time_elapsed":809739,"internal_node_id":"0.0-99.0"},{"result":165,"points":2,"place":1,"phase":1,"sequence":27,"prices":[177,175,186,210,165,179,187,166,153,208],"times":[1348,574,548,502,1031],"next_num":5,"trial_type":"ticket-choose","trial_index":100,"time_elapsed":816274,"internal_node_id":"0.0-100.0"},{"result":165,"points":2,"place":1,"phase":1,"sequence":28,"prices":[165,174,186,212,177,181,187,166,153,209],"times":[1613],"next_num":1,"trial_type":"ticket-choose","trial_index":101,"time_elapsed":819844,"internal_node_id":"0.0-101.0"},{"result":165,"points":1,"place":2,"phase":1,"sequence":29,"prices":[199,193,169,165,202,182,151,164,176,171],"times":[849,464,742,1340],"next_num":4,"trial_type":"ticket-choose","trial_index":102,"time_elapsed":825509,"internal_node_id":"0.0-102.0"},{"result":156,"points":3,"place":0,"phase":1,"sequence":30,"prices":[178,174,186,217,167,181,188,168,208,156],"times":[596,530,463,523,669,498,531,758,560,877],"next_num":10,"trial_type":"ticket-choose","trial_index":103,"time_elapsed":835143,"internal_node_id":"0.0-103.0"},{"result":166,"points":1,"place":2,"phase":1,"sequence":31,"prices":[163,175,186,214,176,179,187,166,153,208],"times":[594,404,475,514,584,574,546,1086],"next_num":8,"trial_type":"ticket-choose","trial_index":104,"time_elapsed":843599,"internal_node_id":"0.0-104.0"},{"result":167,"points":2,"place":1,"phase":1,"sequence":32,"prices":[199,191,188,174,167,193,189,164,176,170],"times":[445,552,565,804,1034],"next_num":5,"trial_type":"ticket-choose","trial_index":105,"time_elapsed":849750,"internal_node_id":"0.0-105.0"},{"result":166,"points":1,"place":3,"phase":1,"sequence":33,"prices":[201,204,179,166,185,165,214,156,202,165],"times":[672,680,519,1244],"next_num":4,"trial_type":"ticket-choose","trial_index":106,"time_elapsed":855251,"internal_node_id":"0.0-106.0"},{"result":165,"points":3,"place":0,"phase":1,"sequence":34,"prices":[192,172,171,178,188,165,217,168,195,197],"times":[606,551,532,488,545,1322],"next_num":6,"trial_type":"ticket-choose","trial_index":107,"time_elapsed":862009,"internal_node_id":"0.0-107.0"},{"result":163,"points":1,"place":2,"phase":1,"sequence":35,"prices":[173,163,185,181,166,148,160,185,176,184],"times":[687,1001],"next_num":2,"trial_type":"ticket-choose","trial_index":108,"time_elapsed":866340,"internal_node_id":"0.0-108.0"},{"result":158,"points":2,"place":1,"phase":1,"sequence":36,"prices":[158,176,187,210,177,181,187,165,208,153],"times":[1100],"next_num":1,"trial_type":"ticket-choose","trial_index":109,"time_elapsed":869200,"internal_node_id":"0.0-109.0"},{"result":166,"points":1,"place":2,"phase":1,"sequence":37,"prices":[165,175,186,214,177,179,187,166,153,208],"times":[790,517,508,574,533,564,545,992],"next_num":8,"trial_type":"ticket-choose","trial_index":110,"time_elapsed":877443,"internal_node_id":"0.0-110.0"},{"result":167,"points":1,"place":2,"phase":1,"sequence":38,"prices":[165,175,187,209,177,180,188,167,154,208],"times":[922,598,444,496,515,548,488,953],"next_num":8,"trial_type":"ticket-choose","trial_index":111,"time_elapsed":885624,"internal_node_id":"0.0-111.0"},{"result":156,"points":3,"place":0,"phase":1,"sequence":39,"prices":[167,175,185,224,178,181,186,168,208,156],"times":[1111,1420,660,554,501,538,577,1473,504,764],"next_num":10,"trial_type":"ticket-choose","trial_index":112,"time_elapsed":897363,"internal_node_id":"0.0-112.0"},{"result":157,"points":3,"place":0,"phase":1,"sequence":40,"prices":[201,187,157,184,198,179,188,185,178,170],"times":[510,470,936],"next_num":3,"trial_type":"ticket-choose","trial_index":113,"time_elapsed":901770,"internal_node_id":"0.0-113.0"},{"result":153,"points":3,"place":0,"phase":1,"sequence":41,"prices":[163,174,186,212,176,181,187,166,153,209],"times":[1195,416,455,491,467,421,449,903,869],"next_num":9,"trial_type":"ticket-choose","trial_index":114,"time_elapsed":910908,"internal_node_id":"0.0-114.0"},{"result":168,"points":1,"place":2,"phase":1,"sequence":42,"prices":[167,174,186,211,178,181,188,168,208,156],"times":[979,432,484,506,538,506,529,968],"next_num":8,"trial_type":"ticket-choose","trial_index":115,"time_elapsed":919245,"internal_node_id":"0.0-115.0"},{"result":165,"points":2,"place":1,"phase":1,"sequence":43,"prices":[187,201,165,172,196,174,178,154,172,180],"times":[735,546,955],"next_num":3,"trial_type":"ticket-choose","trial_index":116,"time_elapsed":923603,"internal_node_id":"0.0-116.0"},{"result":154,"points":3,"place":0,"phase":1,"sequence":44,"prices":[177,175,187,209,165,180,188,165,154,208],"times":[540,534,508,497,829,481,667,1069,931],"next_num":9,"trial_type":"ticket-choose","trial_index":117,"time_elapsed":933087,"internal_node_id":"0.0-117.0"},{"result":157,"points":3,"place":0,"phase":1,"sequence":45,"prices":[191,170,182,165,175,182,203,157,195,200],"times":[883,514,491,716,511,597,523,966],"next_num":8,"trial_type":"ticket-choose","trial_index":118,"time_elapsed":941902,"internal_node_id":"0.0-118.0"},{"result":154,"points":3,"place":0,"phase":1,"sequence":46,"prices":[163,175,187,209,176,180,188,165,154,208],"times":[850,536,540,524,550,542,564,932,874],"next_num":9,"trial_type":"ticket-choose","trial_index":119,"time_elapsed":951280,"internal_node_id":"0.0-119.0"},{"result":165,"points":1,"place":2,"phase":1,"sequence":47,"prices":[200,173,182,169,207,165,152,202,161,204],"times":[891,536,744,875,536,1080],"next_num":6,"trial_type":"ticket-choose","trial_index":120,"time_elapsed":958958,"internal_node_id":"0.0-120.0"},{"result":208,"points":0,"place":6,"phase":1,"sequence":48,"prices":[214,184,226,192,215,158,199,175,176,208],"times":[537,1009,424,384,487,503,766,541,683,1223],"next_num":10,"trial_type":"ticket-choose","trial_index":121,"time_elapsed":969444,"internal_node_id":"0.0-121.0"},{"result":147,"points":3,"place":0,"phase":1,"sequence":49,"prices":[181,214,169,147,182,193,178,184,176,179],"times":[644,535,750,1010],"next_num":4,"trial_type":"ticket-choose","trial_index":122,"time_elapsed":975189,"internal_node_id":"0.0-122.0"},{"responses":[{"value":0,"offby":-1,"category":"$115 - $130","category_index":0},{"value":10,"offby":5,"category":"$131 - $145","category_index":1},{"value":15,"offby":3,"category":"$146 - $160","category_index":2},{"value":30,"offby":8,"category":"$161 - $175","category_index":3},{"value":30,"offby":-4,"category":"$176 - $190","category_index":4},{"value":10,"offby":-5,"category":"$191 - $205","category_index":5},{"value":5,"offby":-6,"category":"$206 - $220","category_index":6}],"phase":1,"number":1,"trial_type":"bar-choose","trial_index":123,"time_elapsed":998747,"internal_node_id":"0.0-123.0"},{"special_comment":"Not really. I think the better ones were located later in the sequence to make you decide if you wanted to chance it by passing decent deals.","trial_type":"special_sequence","trial_index":124,"time_elapsed":1039295,"internal_node_id":"0.0-124.0"},{"during":"Nothing","bonus":272,"trial_type":"final","trial_index":125,"time_elapsed":1058654,"internal_node_id":"0.0-125.0"}],"bonus":272}