{"start_time":"2017-05-24 15:41:36","end_time":"2017-05-24 16:01:26","points_phase0":110,"points_phase1":102,"phase_order":0,"age":25,"gender":"f","tries":2,"during":"Nothing","worker_id":"A2DRV5CGGW5HTK","assignment_id":"3ZPPDN2SLWPAV2DFA3VZCPJPO42E9X","data":[{"rt":7071,"url":"\/christiane\/tickets\/utils\/consent.html","trial_type":"html","trial_index":0,"time_elapsed":7210,"internal_node_id":"0.0-0.0"},{"age":25,"gender":"f","trial_type":"age","trial_index":1,"time_elapsed":15147,"internal_node_id":"0.0-1.0"},{"worker_id":"A2DRV5CGGW5HTK","trial_type":"workerid","trial_index":2,"time_elapsed":25433,"internal_node_id":"0.0-2.0"},{"tries":2,"trial_type":"instructions_check","trial_index":3,"time_elapsed":56733,"internal_node_id":"0.0-3.0"},{"rt":6362,"url":"\/christiane\/tickets\/utils\/start.html","trial_type":"html","trial_index":4,"time_elapsed":64232,"internal_node_id":"0.0-4.0"},{"trial_type":"number-animation","trial_index":5,"time_elapsed":89691,"internal_node_id":"0.0-5.0"},{"phase":0,"sequence":0,"avg":181,"response":172,"trial_type":"training_avg","trial_index":6,"time_elapsed":99614,"internal_node_id":"0.0-6.0"},{"trial_type":"number-animation","trial_index":7,"time_elapsed":111217,"internal_node_id":"0.0-7.0"},{"phase":0,"sequence":1,"avg":188,"response":177,"trial_type":"training_avg","trial_index":8,"time_elapsed":119055,"internal_node_id":"0.0-8.0"},{"trial_type":"number-animation","trial_index":9,"time_elapsed":132560,"internal_node_id":"0.0-9.0"},{"phase":0,"sequence":2,"avg":188,"response":190,"trial_type":"training_avg","trial_index":10,"time_elapsed":140314,"internal_node_id":"0.0-10.0"},{"trial_type":"number-animation","trial_index":11,"time_elapsed":150089,"internal_node_id":"0.0-11.0"},{"phase":0,"sequence":3,"avg":177,"response":175,"trial_type":"training_avg","trial_index":12,"time_elapsed":156900,"internal_node_id":"0.0-12.0"},{"trial_type":"number-animation","trial_index":13,"time_elapsed":165297,"internal_node_id":"0.0-13.0"},{"phase":0,"sequence":4,"avg":182,"response":169,"trial_type":"training_avg","trial_index":14,"time_elapsed":171551,"internal_node_id":"0.0-14.0"},{"responses":[{"value":5,"offby":4,"category":"$115 - $130","category_index":0},{"value":4,"offby":-1,"category":"$131 - $145","category_index":1},{"value":6,"offby":-6,"category":"$146 - $160","category_index":2},{"value":24,"offby":2,"category":"$161 - $175","category_index":3},{"value":35,"offby":1,"category":"$176 - $190","category_index":4},{"value":18,"offby":3,"category":"$191 - $205","category_index":5},{"value":8,"offby":-3,"category":"$206 - $220","category_index":6}],"phase":0,"number":0,"trial_type":"bar-choose","trial_index":15,"time_elapsed":233685,"internal_node_id":"0.0-15.0"},{"rt":1745,"url":"\/christiane\/tickets\/utils\/testing.html","trial_type":"html","trial_index":16,"time_elapsed":236567,"internal_node_id":"0.0-16.0"},{"phase":0,"order":[18,27,20,45,29,31,16,9,48,33,5,22,11,8,30,35,1,7,36,25,39,6,0,43,44,49,47,13,19,38,42,3,4,14,37,41,32,17,10,28,34,40,26,15,23,2,12,21,24,46],"trial_type":"store_order","trial_index":17,"time_elapsed":237568,"internal_node_id":"0.0-17.0"},{"result":165,"points":2,"place":1,"phase":0,"sequence":-1,"prices":[184,180,224,165,181,199,185,193,218,146],"times":[3546,1815,676,1383],"next_num":4,"trial_type":"ticket-choose","trial_index":18,"time_elapsed":248341,"internal_node_id":"0.0-18.0"},{"rt":14337,"url":"\/christiane\/tickets\/utils\/testing_after.html","trial_type":"html","trial_index":19,"time_elapsed":263815,"internal_node_id":"0.0-19.0"},{"result":158,"points":2,"place":1,"phase":0,"sequence":0,"prices":[175,186,158,211,180,187,177,166,209,153],"times":[1916,722,1382],"next_num":3,"trial_type":"ticket-choose","trial_index":20,"time_elapsed":270696,"internal_node_id":"0.0-20.0"},{"result":172,"points":1,"place":2,"phase":0,"sequence":1,"prices":[192,165,171,178,188,217,172,195,197,186],"times":[1201,2509,619,593,627,625,1466],"next_num":7,"trial_type":"ticket-choose","trial_index":21,"time_elapsed":282147,"internal_node_id":"0.0-21.0"},{"result":158,"points":2,"place":1,"phase":0,"sequence":2,"prices":[176,187,158,210,181,187,177,165,208,153],"times":[1332,608,946],"next_num":3,"trial_type":"ticket-choose","trial_index":22,"time_elapsed":287481,"internal_node_id":"0.0-22.0"},{"result":167,"points":2,"place":1,"phase":0,"sequence":3,"prices":[212,192,188,184,167,193,189,164,176,170],"times":[953,567,709,619,1125],"next_num":5,"trial_type":"ticket-choose","trial_index":23,"time_elapsed":294260,"internal_node_id":"0.0-23.0"},{"result":171,"points":1,"place":3,"phase":0,"sequence":4,"prices":[185,170,182,201,173,199,171,188,165,168],"times":[9776,1667,571,652,697,661,1023],"next_num":7,"trial_type":"ticket-choose","trial_index":24,"time_elapsed":312792,"internal_node_id":"0.0-24.0"},{"result":170,"points":1,"place":3,"phase":0,"sequence":5,"prices":[171,203,175,170,167,220,192,186,165,165],"times":[1145,593,724,952],"next_num":4,"trial_type":"ticket-choose","trial_index":25,"time_elapsed":319042,"internal_node_id":"0.0-25.0"},{"result":163,"points":2,"place":1,"phase":0,"sequence":6,"prices":[175,187,176,209,180,188,163,165,154,208],"times":[2053,643,658,602,612,649,956],"next_num":7,"trial_type":"ticket-choose","trial_index":26,"time_elapsed":328581,"internal_node_id":"0.0-26.0"},{"result":165,"points":2,"place":1,"phase":0,"sequence":7,"prices":[175,186,177,210,179,187,165,166,153,208],"times":[1129,823,1420,597,626,617,1270],"next_num":7,"trial_type":"ticket-choose","trial_index":27,"time_elapsed":338645,"internal_node_id":"0.0-27.0"},{"result":169,"points":2,"place":1,"phase":0,"sequence":8,"prices":[181,215,169,147,182,193,177,184,176,179],"times":[9241,711,994],"next_num":3,"trial_type":"ticket-choose","trial_index":28,"time_elapsed":352900,"internal_node_id":"0.0-28.0"},{"result":168,"points":1,"place":2,"phase":0,"sequence":9,"prices":[183,182,192,168,173,205,167,187,165,170],"times":[1195,832,574,865],"next_num":4,"trial_type":"ticket-choose","trial_index":29,"time_elapsed":359260,"internal_node_id":"0.0-29.0"},{"result":167,"points":2,"place":1,"phase":0,"sequence":10,"prices":[175,186,178,212,179,187,167,169,209,153],"times":[1041,548,597,588,579,1623,1018],"next_num":7,"trial_type":"ticket-choose","trial_index":30,"time_elapsed":368640,"internal_node_id":"0.0-30.0"},{"result":158,"points":2,"place":1,"phase":0,"sequence":11,"prices":[175,186,177,209,181,188,158,167,208,154],"times":[729,565,527,567,635,597,992],"next_num":7,"trial_type":"ticket-choose","trial_index":31,"time_elapsed":376651,"internal_node_id":"0.0-31.0"},{"result":165,"points":2,"place":1,"phase":0,"sequence":12,"prices":[174,186,177,217,181,187,165,166,153,209],"times":[908,529,491,520,559,543,1058],"next_num":7,"trial_type":"ticket-choose","trial_index":32,"time_elapsed":384591,"internal_node_id":"0.0-32.0"},{"result":165,"points":2,"place":1,"phase":0,"sequence":13,"prices":[174,186,165,212,181,187,177,167,153,209],"times":[11264,628,939],"next_num":3,"trial_type":"ticket-choose","trial_index":33,"time_elapsed":399925,"internal_node_id":"0.0-33.0"},{"result":165,"points":3,"place":0,"phase":0,"sequence":14,"prices":[191,172,169,175,182,203,170,195,165,176],"times":[1489,2320,707,644,585,665,1106,605,1549],"next_num":9,"trial_type":"ticket-choose","trial_index":34,"time_elapsed":413505,"internal_node_id":"0.0-34.0"},{"result":168,"points":1,"place":2,"phase":0,"sequence":15,"prices":[168,154,172,185,195,144,184,211,177,227],"times":[2541],"next_num":1,"trial_type":"ticket-choose","trial_index":35,"time_elapsed":418157,"internal_node_id":"0.0-35.0"},{"result":167,"points":2,"place":1,"phase":0,"sequence":16,"prices":[175,185,167,224,181,186,178,168,208,156],"times":[919,630,1457],"next_num":3,"trial_type":"ticket-choose","trial_index":36,"time_elapsed":423678,"internal_node_id":"0.0-36.0"},{"result":165,"points":2,"place":1,"phase":0,"sequence":17,"prices":[175,187,165,209,180,188,177,166,154,208],"times":[810,559,886],"next_num":3,"trial_type":"ticket-choose","trial_index":37,"time_elapsed":428370,"internal_node_id":"0.0-37.0"},{"result":165,"points":2,"place":1,"phase":0,"sequence":18,"prices":[188,200,165,172,198,174,177,154,177,180],"times":[951,588,934],"next_num":3,"trial_type":"ticket-choose","trial_index":38,"time_elapsed":433103,"internal_node_id":"0.0-38.0"},{"result":162,"points":3,"place":0,"phase":0,"sequence":19,"prices":[201,165,162,166,185,214,165,202,204,179],"times":[4315,576,754],"next_num":3,"trial_type":"ticket-choose","trial_index":39,"time_elapsed":441829,"internal_node_id":"0.0-39.0"},{"result":165,"points":3,"place":0,"phase":0,"sequence":20,"prices":[189,167,180,197,165,168,172,213,178,171],"times":[756,1586,594,645,856],"next_num":5,"trial_type":"ticket-choose","trial_index":40,"time_elapsed":449375,"internal_node_id":"0.0-40.0"},{"result":165,"points":2,"place":1,"phase":0,"sequence":21,"prices":[175,186,165,214,179,187,177,166,153,208],"times":[679,679,2070],"next_num":3,"trial_type":"ticket-choose","trial_index":41,"time_elapsed":455063,"internal_node_id":"0.0-41.0"},{"result":156,"points":3,"place":0,"phase":0,"sequence":22,"prices":[174,186,167,211,181,188,178,168,208,156],"times":[635,630,685,619,583,570,728,2299,1017,975],"next_num":10,"trial_type":"ticket-choose","trial_index":42,"time_elapsed":467802,"internal_node_id":"0.0-42.0"},{"result":157,"points":3,"place":0,"phase":0,"sequence":23,"prices":[201,187,157,184,198,179,188,185,178,170],"times":[1156,1337,1135],"next_num":3,"trial_type":"ticket-choose","trial_index":43,"time_elapsed":475039,"internal_node_id":"0.0-43.0"},{"result":159,"points":1,"place":2,"phase":0,"sequence":24,"prices":[180,159,149,175,185,141,163,174,178,207],"times":[1115,1254],"next_num":2,"trial_type":"ticket-choose","trial_index":44,"time_elapsed":479487,"internal_node_id":"0.0-44.0"},{"result":148,"points":3,"place":0,"phase":0,"sequence":25,"prices":[183,163,185,180,166,148,160,186,176,184],"times":[657,1731,619,547,850,998],"next_num":6,"trial_type":"ticket-choose","trial_index":45,"time_elapsed":488018,"internal_node_id":"0.0-45.0"},{"result":152,"points":3,"place":0,"phase":0,"sequence":26,"prices":[200,181,203,152,175,171,160,154,176,191],"times":[2039,563,656,1104],"next_num":4,"trial_type":"ticket-choose","trial_index":46,"time_elapsed":495152,"internal_node_id":"0.0-46.0"},{"result":163,"points":2,"place":1,"phase":0,"sequence":27,"prices":[175,187,163,209,180,188,176,165,154,208],"times":[823,576,1345],"next_num":3,"trial_type":"ticket-choose","trial_index":47,"time_elapsed":500137,"internal_node_id":"0.0-47.0"},{"result":158,"points":2,"place":1,"phase":0,"sequence":28,"prices":[175,186,158,209,181,188,177,167,208,154],"times":[864,568,1094],"next_num":3,"trial_type":"ticket-choose","trial_index":48,"time_elapsed":505134,"internal_node_id":"0.0-48.0"},{"result":163,"points":3,"place":0,"phase":0,"sequence":29,"prices":[168,199,196,198,185,195,227,163,177,166],"times":[1255,545,678,552,813,609,1000,1423],"next_num":8,"trial_type":"ticket-choose","trial_index":49,"time_elapsed":515737,"internal_node_id":"0.0-49.0"},{"result":143,"points":3,"place":0,"phase":0,"sequence":30,"prices":[222,173,202,197,143,205,198,183,178,186],"times":[1046,637,553,591,1125],"next_num":5,"trial_type":"ticket-choose","trial_index":50,"time_elapsed":522679,"internal_node_id":"0.0-50.0"},{"result":167,"points":2,"place":1,"phase":0,"sequence":31,"prices":[174,186,178,217,181,188,167,168,208,156],"times":[1241,586,562,573,669,585,1158],"next_num":7,"trial_type":"ticket-choose","trial_index":51,"time_elapsed":531241,"internal_node_id":"0.0-51.0"},{"result":167,"points":2,"place":1,"phase":0,"sequence":32,"prices":[175,185,178,215,181,186,167,168,208,156],"times":[680,547,615,606,627,803,1072],"next_num":7,"trial_type":"ticket-choose","trial_index":52,"time_elapsed":539315,"internal_node_id":"0.0-52.0"},{"result":153,"points":3,"place":0,"phase":0,"sequence":33,"prices":[174,186,163,212,181,187,176,166,153,209],"times":[788,530,387,704,611,537,1047,2002,850],"next_num":9,"trial_type":"ticket-choose","trial_index":53,"time_elapsed":550564,"internal_node_id":"0.0-53.0"},{"result":152,"points":3,"place":0,"phase":0,"sequence":34,"prices":[198,193,169,163,202,182,152,164,177,171],"times":[639,509,520,506,609,692,899],"next_num":7,"trial_type":"ticket-choose","trial_index":54,"time_elapsed":558159,"internal_node_id":"0.0-54.0"},{"result":155,"points":2,"place":1,"phase":0,"sequence":35,"prices":[201,207,155,158,156,165,167,135,178,177],"times":[782,542,972],"next_num":3,"trial_type":"ticket-choose","trial_index":55,"time_elapsed":562896,"internal_node_id":"0.0-55.0"},{"result":165,"points":3,"place":0,"phase":0,"sequence":36,"prices":[193,169,171,187,190,224,174,194,165,188],"times":[2205,562,640,579,592,564,731,639,924],"next_num":9,"trial_type":"ticket-choose","trial_index":56,"time_elapsed":574563,"internal_node_id":"0.0-56.0"},{"result":163,"points":2,"place":1,"phase":0,"sequence":37,"prices":[174,186,176,217,181,187,163,166,153,209],"times":[1223,654,691,614,702,598,1335],"next_num":7,"trial_type":"ticket-choose","trial_index":57,"time_elapsed":583497,"internal_node_id":"0.0-57.0"},{"result":165,"points":2,"place":1,"phase":0,"sequence":38,"prices":[175,187,177,209,180,188,165,165,154,208],"times":[778,517,540,630,618,592,1117],"next_num":7,"trial_type":"ticket-choose","trial_index":58,"time_elapsed":591660,"internal_node_id":"0.0-58.0"},{"result":165,"points":3,"place":0,"phase":0,"sequence":39,"prices":[196,165,170,184,187,211,171,201,202,185],"times":[1950,958],"next_num":2,"trial_type":"ticket-choose","trial_index":59,"time_elapsed":596696,"internal_node_id":"0.0-59.0"},{"result":155,"points":2,"place":1,"phase":0,"sequence":40,"prices":[181,155,148,161,168,187,172,199,176,194],"times":[1521,921],"next_num":2,"trial_type":"ticket-choose","trial_index":60,"time_elapsed":601162,"internal_node_id":"0.0-60.0"},{"result":150,"points":3,"place":0,"phase":0,"sequence":41,"prices":[189,150,175,160,188,207,158,194,178,199],"times":[11697,891],"next_num":2,"trial_type":"ticket-choose","trial_index":61,"time_elapsed":615834,"internal_node_id":"0.0-61.0"},{"result":165,"points":2,"place":1,"phase":0,"sequence":42,"prices":[200,165,165,173,182,207,161,202,204,180],"times":[1171,1537],"next_num":2,"trial_type":"ticket-choose","trial_index":62,"time_elapsed":620541,"internal_node_id":"0.0-62.0"},{"result":163,"points":2,"place":1,"phase":0,"sequence":43,"prices":[175,186,176,210,179,187,163,166,153,208],"times":[1258,547,556,600,575,550,1542],"next_num":7,"trial_type":"ticket-choose","trial_index":63,"time_elapsed":629289,"internal_node_id":"0.0-63.0"},{"result":158,"points":2,"place":1,"phase":0,"sequence":44,"prices":[176,187,177,225,181,187,158,165,208,153],"times":[633,629,528,586,587,511,885],"next_num":7,"trial_type":"ticket-choose","trial_index":64,"time_elapsed":637161,"internal_node_id":"0.0-64.0"},{"result":153,"points":3,"place":0,"phase":0,"sequence":45,"prices":[175,186,167,225,179,187,178,169,209,153],"times":[954,597,552,535,583,734,734,1512,610,735],"next_num":10,"trial_type":"ticket-choose","trial_index":65,"time_elapsed":648575,"internal_node_id":"0.0-65.0"},{"result":153,"points":3,"place":0,"phase":0,"sequence":46,"prices":[175,186,163,214,179,187,176,166,153,208],"times":[1847,541,551,808,586,630,1062,2095,689],"next_num":9,"trial_type":"ticket-choose","trial_index":66,"time_elapsed":661260,"internal_node_id":"0.0-66.0"},{"result":158,"points":2,"place":1,"phase":0,"sequence":47,"prices":[175,186,177,221,180,187,158,166,209,153],"times":[991,706,572,652,608,539,1011],"next_num":7,"trial_type":"ticket-choose","trial_index":67,"time_elapsed":669622,"internal_node_id":"0.0-67.0"},{"result":184,"points":1,"place":4,"phase":0,"sequence":48,"prices":[193,165,175,181,185,224,180,199,218,184],"times":[1037,545,617,604,633,963,596,614,1170,848],"next_num":11,"trial_type":"ticket-choose","trial_index":68,"time_elapsed":681959,"internal_node_id":"0.0-68.0"},{"result":158,"points":3,"place":0,"phase":0,"sequence":49,"prices":[210,184,226,193,215,158,199,175,176,208],"times":[1074,1022,998,628,669,897],"next_num":6,"trial_type":"ticket-choose","trial_index":69,"time_elapsed":690545,"internal_node_id":"0.0-69.0"},{"responses":[{"value":3,"offby":2,"category":"$115 - $130","category_index":0},{"value":10,"offby":5,"category":"$131 - $145","category_index":1},{"value":16,"offby":4,"category":"$146 - $160","category_index":2},{"value":24,"offby":2,"category":"$161 - $175","category_index":3},{"value":29,"offby":-5,"category":"$176 - $190","category_index":4},{"value":14,"offby":-1,"category":"$191 - $205","category_index":5},{"value":4,"offby":-7,"category":"$206 - $220","category_index":6}],"phase":1,"number":1,"trial_type":"bar-choose","trial_index":70,"time_elapsed":729199,"internal_node_id":"0.0-70.0"},{"rt":12546,"url":"\/christiane\/tickets\/utils\/testing2.html","trial_type":"point_update","trial_index":71,"time_elapsed":743019,"internal_node_id":"0.0-71.0"},{"phase":1,"order":[48,3,5,17,33,13,10,14,45,43,44,18,11,28,6,21,8,35,40,4,24,27,30,49,1,36,9,25,34,16,31,7,42,47,37,0,32,22,23,26,39,29,15,41,2,19,20,12,46,38],"trial_type":"store_order","trial_index":72,"time_elapsed":744020,"internal_node_id":"0.0-72.0"},{"result":169,"points":2,"place":1,"phase":1,"sequence":0,"prices":[181,214,169,147,182,193,178,184,176,179],"times":[5533,639,1007],"next_num":3,"trial_type":"ticket-choose","trial_index":73,"time_elapsed":753965,"internal_node_id":"0.0-73.0"},{"result":156,"points":3,"place":0,"phase":1,"sequence":1,"prices":[178,174,186,217,167,181,188,168,208,156],"times":[633,671,546,574,498,584,588,1246,633,852],"next_num":10,"trial_type":"ticket-choose","trial_index":74,"time_elapsed":764621,"internal_node_id":"0.0-74.0"},{"result":153,"points":3,"place":0,"phase":1,"sequence":2,"prices":[178,175,186,212,167,179,187,169,209,153],"times":[988,556,626,674,603,701,645,2020,914,707],"next_num":10,"trial_type":"ticket-choose","trial_index":75,"time_elapsed":776855,"internal_node_id":"0.0-75.0"},{"result":163,"points":2,"place":1,"phase":1,"sequence":3,"prices":[176,186,178,217,163,181,187,166,153,209],"times":[993,591,624,626,1003],"next_num":5,"trial_type":"ticket-choose","trial_index":76,"time_elapsed":784076,"internal_node_id":"0.0-76.0"},{"result":165,"points":2,"place":1,"phase":1,"sequence":4,"prices":[183,179,188,165,168,173,205,159,187,191],"times":[973,697,614,1000],"next_num":4,"trial_type":"ticket-choose","trial_index":77,"time_elapsed":789945,"internal_node_id":"0.0-77.0"},{"result":163,"points":2,"place":1,"phase":1,"sequence":5,"prices":[163,175,187,209,176,180,188,165,154,208],"times":[3140],"next_num":1,"trial_type":"ticket-choose","trial_index":78,"time_elapsed":795012,"internal_node_id":"0.0-78.0"},{"result":165,"points":2,"place":1,"phase":1,"sequence":6,"prices":[177,175,187,209,165,180,188,165,154,208],"times":[1684,654,651,618,1089],"next_num":5,"trial_type":"ticket-choose","trial_index":79,"time_elapsed":802527,"internal_node_id":"0.0-79.0"},{"result":153,"points":3,"place":0,"phase":1,"sequence":7,"prices":[163,174,186,212,176,181,187,166,153,209],"times":[1737,498,577,669,605,695,666,1807,826],"next_num":9,"trial_type":"ticket-choose","trial_index":80,"time_elapsed":814525,"internal_node_id":"0.0-80.0"},{"result":167,"points":2,"place":1,"phase":1,"sequence":8,"prices":[199,191,188,174,167,193,189,164,176,170],"times":[855,609,612,743,1143],"next_num":5,"trial_type":"ticket-choose","trial_index":81,"time_elapsed":821214,"internal_node_id":"0.0-81.0"},{"result":157,"points":3,"place":0,"phase":1,"sequence":9,"prices":[201,187,157,184,198,179,188,185,178,170],"times":[826,504,910],"next_num":3,"trial_type":"ticket-choose","trial_index":82,"time_elapsed":825783,"internal_node_id":"0.0-82.0"},{"result":151,"points":2,"place":1,"phase":1,"sequence":10,"prices":[181,159,149,175,185,151,163,174,178,207],"times":[693,503,460,1424,561,826],"next_num":6,"trial_type":"ticket-choose","trial_index":83,"time_elapsed":833191,"internal_node_id":"0.0-83.0"},{"result":158,"points":2,"place":1,"phase":1,"sequence":11,"prices":[158,175,186,211,177,180,187,166,209,153],"times":[6965],"next_num":1,"trial_type":"ticket-choose","trial_index":84,"time_elapsed":841974,"internal_node_id":"0.0-84.0"},{"result":165,"points":2,"place":1,"phase":1,"sequence":12,"prices":[177,174,186,217,165,181,187,166,153,209],"times":[1023,822,609,688,1295],"next_num":5,"trial_type":"ticket-choose","trial_index":85,"time_elapsed":849132,"internal_node_id":"0.0-85.0"},{"result":165,"points":3,"place":0,"phase":1,"sequence":13,"prices":[196,171,170,184,187,165,211,169,201,202],"times":[1011,590,584,616,558,976],"next_num":6,"trial_type":"ticket-choose","trial_index":86,"time_elapsed":856348,"internal_node_id":"0.0-86.0"},{"result":165,"points":2,"place":1,"phase":1,"sequence":14,"prices":[165,175,186,214,177,179,187,166,153,208],"times":[1143],"next_num":1,"trial_type":"ticket-choose","trial_index":87,"time_elapsed":859261,"internal_node_id":"0.0-87.0"},{"result":158,"points":2,"place":1,"phase":1,"sequence":15,"prices":[177,175,186,221,158,180,187,166,209,153],"times":[808,575,557,599,843],"next_num":5,"trial_type":"ticket-choose","trial_index":88,"time_elapsed":865291,"internal_node_id":"0.0-88.0"},{"result":153,"points":3,"place":0,"phase":1,"sequence":16,"prices":[165,174,186,212,177,181,187,166,153,209],"times":[956,677,566,597,576,615,600,598,816],"next_num":9,"trial_type":"ticket-choose","trial_index":89,"time_elapsed":874833,"internal_node_id":"0.0-89.0"},{"result":153,"points":2,"place":1,"phase":1,"sequence":17,"prices":[167,153,172,185,195,143,184,211,177,227],"times":[14872,863],"next_num":2,"trial_type":"ticket-choose","trial_index":90,"time_elapsed":892690,"internal_node_id":"0.0-90.0"},{"result":150,"points":3,"place":0,"phase":1,"sequence":18,"prices":[190,150,175,161,188,207,157,194,178,199],"times":[926,891],"next_num":2,"trial_type":"ticket-choose","trial_index":91,"time_elapsed":896574,"internal_node_id":"0.0-91.0"},{"result":156,"points":3,"place":0,"phase":1,"sequence":19,"prices":[178,175,185,215,167,181,186,168,208,156],"times":[793,528,546,595,791,616,688,1821,818,686],"next_num":10,"trial_type":"ticket-choose","trial_index":92,"time_elapsed":908432,"internal_node_id":"0.0-92.0"},{"result":165,"points":3,"place":0,"phase":1,"sequence":20,"prices":[193,181,175,181,185,165,224,199,218,184],"times":[1083,535,841,607,561,1008],"next_num":6,"trial_type":"ticket-choose","trial_index":93,"time_elapsed":916212,"internal_node_id":"0.0-93.0"},{"result":197,"points":0,"place":8,"phase":1,"sequence":21,"prices":[192,172,171,178,188,165,217,168,195,197],"times":[1568,588,741,574,595,589,569,1521,752,1208],"next_num":10,"trial_type":"ticket-choose","trial_index":94,"time_elapsed":929201,"internal_node_id":"0.0-94.0"},{"result":165,"points":2,"place":1,"phase":1,"sequence":22,"prices":[191,170,182,165,175,182,203,157,195,200],"times":[926,695,709,1190],"next_num":4,"trial_type":"ticket-choose","trial_index":95,"time_elapsed":935201,"internal_node_id":"0.0-95.0"},{"result":163,"points":1,"place":2,"phase":1,"sequence":23,"prices":[173,163,185,181,166,148,160,185,176,184],"times":[1480,952],"next_num":2,"trial_type":"ticket-choose","trial_index":96,"time_elapsed":939632,"internal_node_id":"0.0-96.0"},{"result":168,"points":1,"place":2,"phase":1,"sequence":24,"prices":[167,175,185,224,178,181,186,168,208,156],"times":[758,600,613,612,599,616,561,923],"next_num":8,"trial_type":"ticket-choose","trial_index":97,"time_elapsed":948187,"internal_node_id":"0.0-97.0"},{"result":165,"points":2,"place":1,"phase":1,"sequence":25,"prices":[187,201,165,172,196,174,178,154,172,180],"times":[710,601,725],"next_num":3,"trial_type":"ticket-choose","trial_index":98,"time_elapsed":952492,"internal_node_id":"0.0-98.0"},{"result":165,"points":2,"place":1,"phase":1,"sequence":26,"prices":[177,175,186,210,165,179,187,166,153,208],"times":[514,576,481,566,801],"next_num":5,"trial_type":"ticket-choose","trial_index":99,"time_elapsed":958040,"internal_node_id":"0.0-99.0"},{"result":166,"points":1,"place":3,"phase":1,"sequence":27,"prices":[201,204,179,166,185,165,214,156,202,165],"times":[590,570,574,980],"next_num":4,"trial_type":"ticket-choose","trial_index":100,"time_elapsed":963172,"internal_node_id":"0.0-100.0"},{"result":156,"points":2,"place":1,"phase":1,"sequence":28,"prices":[180,156,149,160,168,186,172,198,176,195],"times":[570,890],"next_num":2,"trial_type":"ticket-choose","trial_index":101,"time_elapsed":966626,"internal_node_id":"0.0-101.0"},{"result":165,"points":1,"place":2,"phase":1,"sequence":29,"prices":[176,187,179,209,163,180,188,165,154,208],"times":[1483,420,645,587,679,598,550,884],"next_num":8,"trial_type":"ticket-choose","trial_index":102,"time_elapsed":975715,"internal_node_id":"0.0-102.0"},{"result":169,"points":0,"place":5,"phase":1,"sequence":30,"prices":[171,169,186,165,163,167,220,148,187,165],"times":[698,1051],"next_num":2,"trial_type":"ticket-choose","trial_index":103,"time_elapsed":980150,"internal_node_id":"0.0-103.0"},{"result":154,"points":3,"place":0,"phase":1,"sequence":31,"prices":[165,175,187,209,177,180,188,167,154,208],"times":[3547,532,549,578,614,582,600,1429,1032],"next_num":9,"trial_type":"ticket-choose","trial_index":104,"time_elapsed":993285,"internal_node_id":"0.0-104.0"},{"result":186,"points":1,"place":4,"phase":1,"sequence":32,"prices":[220,173,201,197,169,205,198,183,178,186],"times":[8942,4210,683,600,1330,1033,645,680,639,649],"next_num":11,"trial_type":"ticket-choose","trial_index":105,"time_elapsed":1017178,"internal_node_id":"0.0-105.0"},{"result":152,"points":3,"place":0,"phase":1,"sequence":33,"prices":[200,180,203,152,175,170,160,154,176,191],"times":[1163,702,749,924],"next_num":4,"trial_type":"ticket-choose","trial_index":106,"time_elapsed":1023204,"internal_node_id":"0.0-106.0"},{"result":165,"points":1,"place":2,"phase":1,"sequence":34,"prices":[199,193,169,165,202,182,151,164,176,171],"times":[2803,733,771,869],"next_num":4,"trial_type":"ticket-choose","trial_index":107,"time_elapsed":1030797,"internal_node_id":"0.0-107.0"},{"result":167,"points":2,"place":1,"phase":1,"sequence":35,"prices":[167,174,186,211,178,181,188,168,208,156],"times":[1025],"next_num":1,"trial_type":"ticket-choose","trial_index":108,"time_elapsed":1033583,"internal_node_id":"0.0-108.0"},{"result":161,"points":3,"place":0,"phase":1,"sequence":36,"prices":[193,174,224,165,187,190,224,161,194,195],"times":[716,542,626,577,591,588,593,803],"next_num":8,"trial_type":"ticket-choose","trial_index":109,"time_elapsed":1041997,"internal_node_id":"0.0-109.0"},{"result":158,"points":2,"place":1,"phase":1,"sequence":37,"prices":[177,175,186,209,158,181,188,167,208,154],"times":[1368,667,5310,1647,1750],"next_num":5,"trial_type":"ticket-choose","trial_index":110,"time_elapsed":1055390,"internal_node_id":"0.0-110.0"},{"result":158,"points":2,"place":1,"phase":1,"sequence":38,"prices":[177,176,187,225,158,181,187,165,208,153],"times":[1015,671,617,658,927],"next_num":5,"trial_type":"ticket-choose","trial_index":111,"time_elapsed":1061877,"internal_node_id":"0.0-111.0"},{"result":169,"points":1,"place":3,"phase":1,"sequence":39,"prices":[200,173,182,169,207,165,152,202,161,204],"times":[941,885,613,2214],"next_num":4,"trial_type":"ticket-choose","trial_index":112,"time_elapsed":1068928,"internal_node_id":"0.0-112.0"},{"result":167,"points":2,"place":1,"phase":1,"sequence":40,"prices":[189,167,180,197,165,168,172,213,178,171],"times":[1993,4738],"next_num":2,"trial_type":"ticket-choose","trial_index":113,"time_elapsed":1077902,"internal_node_id":"0.0-113.0"},{"result":165,"points":1,"place":2,"phase":1,"sequence":41,"prices":[185,179,191,165,161,173,199,150,188,168],"times":[732,2924,651,1500],"next_num":4,"trial_type":"ticket-choose","trial_index":114,"time_elapsed":1086509,"internal_node_id":"0.0-114.0"},{"result":163,"points":2,"place":1,"phase":1,"sequence":42,"prices":[176,175,186,210,163,179,187,166,153,208],"times":[884,578,637,610,1011],"next_num":5,"trial_type":"ticket-choose","trial_index":115,"time_elapsed":1093037,"internal_node_id":"0.0-115.0"},{"result":155,"points":2,"place":1,"phase":1,"sequence":43,"prices":[200,207,155,158,156,168,167,135,178,177],"times":[4885,604,948],"next_num":3,"trial_type":"ticket-choose","trial_index":116,"time_elapsed":1101918,"internal_node_id":"0.0-116.0"},{"result":167,"points":2,"place":1,"phase":1,"sequence":44,"prices":[167,175,186,225,178,179,187,169,209,153],"times":[1317],"next_num":1,"trial_type":"ticket-choose","trial_index":117,"time_elapsed":1105206,"internal_node_id":"0.0-117.0"},{"result":158,"points":2,"place":1,"phase":1,"sequence":45,"prices":[158,175,186,209,177,181,188,167,208,154],"times":[1105],"next_num":1,"trial_type":"ticket-choose","trial_index":118,"time_elapsed":1108414,"internal_node_id":"0.0-118.0"},{"result":158,"points":2,"place":1,"phase":1,"sequence":46,"prices":[158,176,187,210,177,181,187,165,208,153],"times":[1189],"next_num":1,"trial_type":"ticket-choose","trial_index":119,"time_elapsed":1111608,"internal_node_id":"0.0-119.0"},{"result":163,"points":2,"place":1,"phase":1,"sequence":47,"prices":[163,175,186,214,176,179,187,166,153,208],"times":[1531],"next_num":1,"trial_type":"ticket-choose","trial_index":120,"time_elapsed":1115002,"internal_node_id":"0.0-120.0"},{"result":158,"points":3,"place":0,"phase":1,"sequence":48,"prices":[214,184,226,192,215,158,199,175,176,208],"times":[1098,682,602,617,644,1717],"next_num":6,"trial_type":"ticket-choose","trial_index":121,"time_elapsed":1123440,"internal_node_id":"0.0-121.0"},{"result":163,"points":3,"place":0,"phase":1,"sequence":49,"prices":[163,199,196,199,185,195,227,163,177,166],"times":[3293],"next_num":1,"trial_type":"ticket-choose","trial_index":122,"time_elapsed":1128961,"internal_node_id":"0.0-122.0"},{"responses":[{"value":8,"offby":7,"category":"$115 - $130","category_index":0},{"value":12,"offby":7,"category":"$131 - $145","category_index":1},{"value":14,"offby":2,"category":"$146 - $160","category_index":2},{"value":24,"offby":2,"category":"$161 - $175","category_index":3},{"value":29,"offby":-5,"category":"$176 - $190","category_index":4},{"value":9,"offby":-6,"category":"$191 - $205","category_index":5},{"value":4,"offby":-7,"category":"$206 - $220","category_index":6}],"phase":1,"number":1,"trial_type":"bar-choose","trial_index":123,"time_elapsed":1159243,"internal_node_id":"0.0-123.0"},{"special_comment":"Nope","trial_type":"special_sequence","trial_index":124,"time_elapsed":1165218,"internal_node_id":"0.0-124.0"},{"during":"Nothing","bonus":284,"trial_type":"final","trial_index":125,"time_elapsed":1186122,"internal_node_id":"0.0-125.0"}],"bonus":284}