{"start_time":"2017-05-24 13:21:07","end_time":"2017-05-24 13:52:45","points_phase0":126,"points_phase1":106,"phase_order":1,"age":39,"gender":"f","tries":1,"during":"Nothing","worker_id":"A2EEL9YYUHL5SK","assignment_id":"3QIYRE09Y4AW03NXZPJPN6VF4JY1NH","data":[{"rt":8968,"url":"\/christiane\/tickets\/utils\/consent.html","trial_type":"html","trial_index":0,"time_elapsed":9032,"internal_node_id":"0.0-0.0"},{"age":39,"gender":"f","trial_type":"age","trial_index":1,"time_elapsed":19521,"internal_node_id":"0.0-1.0"},{"worker_id":"A2EEL9YYUHL5SK","trial_type":"workerid","trial_index":2,"time_elapsed":103685,"internal_node_id":"0.0-2.0"},{"tries":1,"trial_type":"instructions_check","trial_index":3,"time_elapsed":541323,"internal_node_id":"0.0-3.0"},{"rt":14141,"url":"\/christiane\/tickets\/utils\/start.html","trial_type":"html","trial_index":4,"time_elapsed":556530,"internal_node_id":"0.0-4.0"},{"trial_type":"number-animation","trial_index":5,"time_elapsed":584538,"internal_node_id":"0.0-5.0"},{"phase":0,"sequence":0,"avg":181,"response":178,"trial_type":"training_avg","trial_index":6,"time_elapsed":596018,"internal_node_id":"0.0-6.0"},{"trial_type":"number-animation","trial_index":7,"time_elapsed":610731,"internal_node_id":"0.0-7.0"},{"phase":0,"sequence":1,"avg":188,"response":197,"trial_type":"training_avg","trial_index":8,"time_elapsed":622700,"internal_node_id":"0.0-8.0"},{"trial_type":"number-animation","trial_index":9,"time_elapsed":639337,"internal_node_id":"0.0-9.0"},{"phase":0,"sequence":2,"avg":188,"response":180,"trial_type":"training_avg","trial_index":10,"time_elapsed":672226,"internal_node_id":"0.0-10.0"},{"trial_type":"number-animation","trial_index":11,"time_elapsed":684389,"internal_node_id":"0.0-11.0"},{"phase":0,"sequence":3,"avg":177,"response":180,"trial_type":"training_avg","trial_index":12,"time_elapsed":699258,"internal_node_id":"0.0-12.0"},{"trial_type":"number-animation","trial_index":13,"time_elapsed":711644,"internal_node_id":"0.0-13.0"},{"phase":0,"sequence":4,"avg":182,"response":183,"trial_type":"training_avg","trial_index":14,"time_elapsed":721260,"internal_node_id":"0.0-14.0"},{"responses":[{"value":0,"offby":-1,"category":"$115 - $130","category_index":0},{"value":10,"offby":5,"category":"$131 - $145","category_index":1},{"value":10,"offby":-2,"category":"$146 - $160","category_index":2},{"value":15,"offby":-7,"category":"$161 - $175","category_index":3},{"value":45,"offby":11,"category":"$176 - $190","category_index":4},{"value":10,"offby":-5,"category":"$191 - $205","category_index":5},{"value":10,"offby":-1,"category":"$206 - $220","category_index":6}],"phase":0,"number":0,"trial_type":"bar-choose","trial_index":15,"time_elapsed":811226,"internal_node_id":"0.0-15.0"},{"rt":15093,"url":"\/christiane\/tickets\/utils\/testing.html","trial_type":"html","trial_index":16,"time_elapsed":827387,"internal_node_id":"0.0-16.0"},{"phase":0,"order":[47,5,28,42,29,32,33,17,6,12,15,27,35,30,44,34,20,37,9,49,38,4,25,31,43,21,8,23,0,45,40,39,18,46,1,11,22,48,16,19,13,7,3,36,2,41,26,10,24,14],"trial_type":"store_order","trial_index":17,"time_elapsed":828394,"internal_node_id":"0.0-17.0"},{"result":146,"points":3,"place":0,"phase":0,"sequence":-1,"prices":[184,180,224,165,181,199,185,193,218,146],"times":[2463,531,443,407,658,582,557,1004,702,642],"next_num":10,"trial_type":"ticket-choose","trial_index":18,"time_elapsed":840714,"internal_node_id":"0.0-18.0"},{"rt":19545,"url":"\/christiane\/tickets\/utils\/testing_after.html","trial_type":"html","trial_index":19,"time_elapsed":861329,"internal_node_id":"0.0-19.0"},{"result":171,"points":1,"place":3,"phase":0,"sequence":0,"prices":[189,167,180,197,165,168,172,213,178,171],"times":[2760,981,503,650,1602,522,602,842,840,3031],"next_num":10,"trial_type":"ticket-choose","trial_index":20,"time_elapsed":878370,"internal_node_id":"0.0-20.0"},{"result":155,"points":2,"place":1,"phase":0,"sequence":1,"prices":[200,207,155,158,156,168,167,135,178,177],"times":[513,475,1222],"next_num":3,"trial_type":"ticket-choose","trial_index":21,"time_elapsed":883409,"internal_node_id":"0.0-21.0"},{"result":167,"points":2,"place":1,"phase":0,"sequence":2,"prices":[178,175,185,215,167,181,186,168,208,156],"times":[593,492,588,505,1009],"next_num":5,"trial_type":"ticket-choose","trial_index":22,"time_elapsed":889641,"internal_node_id":"0.0-22.0"},{"result":153,"points":3,"place":0,"phase":0,"sequence":3,"prices":[177,176,187,225,158,181,187,165,208,153],"times":[598,696,822,375,492,1324,460,2165,578,914],"next_num":10,"trial_type":"ticket-choose","trial_index":23,"time_elapsed":903022,"internal_node_id":"0.0-23.0"},{"result":154,"points":3,"place":0,"phase":0,"sequence":4,"prices":[163,175,187,209,176,180,188,165,154,208],"times":[2153,452,459,546,656,490,687,2175,1068],"next_num":9,"trial_type":"ticket-choose","trial_index":24,"time_elapsed":915553,"internal_node_id":"0.0-24.0"},{"result":164,"points":3,"place":0,"phase":0,"sequence":5,"prices":[199,191,188,174,167,193,189,164,176,170],"times":[861,491,462,469,465,469,735,1249],"next_num":8,"trial_type":"ticket-choose","trial_index":25,"time_elapsed":924657,"internal_node_id":"0.0-25.0"},{"result":153,"points":3,"place":0,"phase":0,"sequence":6,"prices":[178,175,186,212,167,179,187,169,209,153],"times":[509,452,475,569,969,571,760,1016,751,857],"next_num":10,"trial_type":"ticket-choose","trial_index":26,"time_elapsed":936266,"internal_node_id":"0.0-26.0"},{"result":165,"points":3,"place":0,"phase":0,"sequence":7,"prices":[196,171,170,184,187,165,211,169,201,202],"times":[813,415,406,482,454,992],"next_num":6,"trial_type":"ticket-choose","trial_index":27,"time_elapsed":942995,"internal_node_id":"0.0-27.0"},{"result":153,"points":3,"place":0,"phase":0,"sequence":8,"prices":[176,175,186,210,163,179,187,166,153,208],"times":[606,475,519,521,1438,467,475,1002,1309],"next_num":9,"trial_type":"ticket-choose","trial_index":28,"time_elapsed":953769,"internal_node_id":"0.0-28.0"},{"result":154,"points":3,"place":0,"phase":0,"sequence":9,"prices":[165,175,187,209,177,180,188,167,154,208],"times":[574,331,336,492,457,505,470,1010,1046],"next_num":9,"trial_type":"ticket-choose","trial_index":29,"time_elapsed":962721,"internal_node_id":"0.0-29.0"},{"result":166,"points":1,"place":2,"phase":0,"sequence":10,"prices":[163,199,196,199,185,195,227,163,177,166],"times":[586,431,522,455,471,495,532,621,626,1485],"next_num":10,"trial_type":"ticket-choose","trial_index":30,"time_elapsed":973378,"internal_node_id":"0.0-30.0"},{"result":153,"points":3,"place":0,"phase":0,"sequence":11,"prices":[165,174,186,212,177,181,187,166,153,209],"times":[1037,858,434,738,456,465,472,1652,615],"next_num":9,"trial_type":"ticket-choose","trial_index":31,"time_elapsed":983650,"internal_node_id":"0.0-31.0"},{"result":170,"points":2,"place":1,"phase":0,"sequence":12,"prices":[201,187,157,184,198,179,188,185,178,170],"times":[1300,429,405,549,544,539,791,750,662,699],"next_num":10,"trial_type":"ticket-choose","trial_index":32,"time_elapsed":994392,"internal_node_id":"0.0-32.0"},{"result":186,"points":1,"place":4,"phase":0,"sequence":13,"prices":[220,173,201,197,169,205,198,183,178,186],"times":[678,535,543,547,1032,589,572,804,926,1350],"next_num":10,"trial_type":"ticket-choose","trial_index":33,"time_elapsed":1006562,"internal_node_id":"0.0-33.0"},{"result":165,"points":3,"place":0,"phase":0,"sequence":14,"prices":[192,172,171,178,188,165,217,168,195,197],"times":[443,442,573,484,717,1164],"next_num":6,"trial_type":"ticket-choose","trial_index":34,"time_elapsed":1013723,"internal_node_id":"0.0-34.0"},{"result":158,"points":2,"place":1,"phase":0,"sequence":15,"prices":[158,175,186,209,177,181,188,167,208,154],"times":[1438],"next_num":1,"trial_type":"ticket-choose","trial_index":35,"time_elapsed":1017305,"internal_node_id":"0.0-35.0"},{"result":158,"points":2,"place":1,"phase":0,"sequence":16,"prices":[177,175,186,209,158,181,188,167,208,154],"times":[1595,425,487,583,1008],"next_num":5,"trial_type":"ticket-choose","trial_index":36,"time_elapsed":1024345,"internal_node_id":"0.0-36.0"},{"result":158,"points":2,"place":1,"phase":0,"sequence":17,"prices":[177,175,186,221,158,180,187,166,209,153],"times":[554,412,456,467,1817],"next_num":5,"trial_type":"ticket-choose","trial_index":37,"time_elapsed":1031112,"internal_node_id":"0.0-37.0"},{"result":157,"points":2,"place":1,"phase":0,"sequence":18,"prices":[190,150,175,161,188,207,157,194,178,199],"times":[686,377,1796,892,445,481,1272],"next_num":7,"trial_type":"ticket-choose","trial_index":38,"time_elapsed":1040497,"internal_node_id":"0.0-38.0"},{"result":184,"points":1,"place":4,"phase":0,"sequence":19,"prices":[193,181,175,181,185,165,224,199,218,184],"times":[700,457,498,649,555,849,751,732,662,1258],"next_num":10,"trial_type":"ticket-choose","trial_index":39,"time_elapsed":1051481,"internal_node_id":"0.0-39.0"},{"result":154,"points":3,"place":0,"phase":0,"sequence":20,"prices":[177,175,187,209,165,180,188,165,154,208],"times":[4960,477,465,556,1122,494,509,2121,838],"next_num":9,"trial_type":"ticket-choose","trial_index":40,"time_elapsed":1066888,"internal_node_id":"0.0-40.0"},{"result":158,"points":3,"place":0,"phase":0,"sequence":21,"prices":[214,184,226,192,215,158,199,175,176,208],"times":[643,380,505,479,511,1345],"next_num":6,"trial_type":"ticket-choose","trial_index":41,"time_elapsed":1073832,"internal_node_id":"0.0-41.0"},{"result":153,"points":3,"place":0,"phase":0,"sequence":22,"prices":[163,174,186,212,176,181,187,166,153,209],"times":[971,404,423,462,437,491,553,1011,996],"next_num":9,"trial_type":"ticket-choose","trial_index":42,"time_elapsed":1083657,"internal_node_id":"0.0-42.0"},{"result":150,"points":3,"place":0,"phase":0,"sequence":23,"prices":[185,179,191,165,161,173,199,150,188,168],"times":[680,425,1326,862,521,466,681,1459],"next_num":8,"trial_type":"ticket-choose","trial_index":43,"time_elapsed":1093633,"internal_node_id":"0.0-43.0"},{"result":153,"points":2,"place":1,"phase":0,"sequence":24,"prices":[167,153,172,185,195,143,184,211,177,227],"times":[2302,1079],"next_num":2,"trial_type":"ticket-choose","trial_index":44,"time_elapsed":1099385,"internal_node_id":"0.0-44.0"},{"result":158,"points":2,"place":1,"phase":0,"sequence":25,"prices":[158,175,186,211,177,180,187,166,209,153],"times":[1366],"next_num":1,"trial_type":"ticket-choose","trial_index":45,"time_elapsed":1102745,"internal_node_id":"0.0-45.0"},{"result":156,"points":3,"place":0,"phase":0,"sequence":26,"prices":[167,175,185,224,178,181,186,168,208,156],"times":[719,405,369,501,414,424,444,913,607,710],"next_num":10,"trial_type":"ticket-choose","trial_index":46,"time_elapsed":1112122,"internal_node_id":"0.0-46.0"},{"result":153,"points":3,"place":0,"phase":0,"sequence":27,"prices":[165,175,186,214,177,179,187,166,153,208],"times":[957,418,402,446,451,419,425,1949,792],"next_num":9,"trial_type":"ticket-choose","trial_index":47,"time_elapsed":1121884,"internal_node_id":"0.0-47.0"},{"result":156,"points":3,"place":0,"phase":0,"sequence":28,"prices":[178,174,186,217,167,181,188,168,208,156],"times":[720,379,424,514,445,492,452,462,520,1277],"next_num":10,"trial_type":"ticket-choose","trial_index":48,"time_elapsed":1131437,"internal_node_id":"0.0-48.0"},{"result":153,"points":3,"place":0,"phase":0,"sequence":29,"prices":[177,175,186,210,165,179,187,166,153,208],"times":[1069,592,476,455,867,470,476,867,1010],"next_num":9,"trial_type":"ticket-choose","trial_index":49,"time_elapsed":1141329,"internal_node_id":"0.0-49.0"},{"result":148,"points":3,"place":0,"phase":0,"sequence":30,"prices":[171,169,186,165,163,167,220,148,187,165],"times":[1530,525,432,535,455,1081,492,822],"next_num":8,"trial_type":"ticket-choose","trial_index":50,"time_elapsed":1150499,"internal_node_id":"0.0-50.0"},{"result":157,"points":3,"place":0,"phase":0,"sequence":31,"prices":[191,170,182,165,175,182,203,157,195,200],"times":[2460,407,461,463,436,473,516,942],"next_num":8,"trial_type":"ticket-choose","trial_index":51,"time_elapsed":1160090,"internal_node_id":"0.0-51.0"},{"result":156,"points":2,"place":1,"phase":0,"sequence":32,"prices":[180,156,149,160,168,186,172,198,176,195],"times":[738,1276],"next_num":2,"trial_type":"ticket-choose","trial_index":52,"time_elapsed":1164029,"internal_node_id":"0.0-52.0"},{"result":149,"points":3,"place":0,"phase":0,"sequence":33,"prices":[181,159,149,175,185,151,163,174,178,207],"times":[1283,2862,1022],"next_num":3,"trial_type":"ticket-choose","trial_index":53,"time_elapsed":1171542,"internal_node_id":"0.0-53.0"},{"result":159,"points":3,"place":0,"phase":0,"sequence":34,"prices":[183,179,188,165,168,173,205,159,187,191],"times":[849,439,431,445,431,662,578,802],"next_num":8,"trial_type":"ticket-choose","trial_index":54,"time_elapsed":1179496,"internal_node_id":"0.0-54.0"},{"result":195,"points":0,"place":7,"phase":0,"sequence":35,"prices":[193,174,224,165,187,190,224,161,194,195],"times":[1020,364,334,715,356,422,528,442,842,659],"next_num":10,"trial_type":"ticket-choose","trial_index":55,"time_elapsed":1188842,"internal_node_id":"0.0-55.0"},{"result":151,"points":3,"place":0,"phase":0,"sequence":36,"prices":[199,193,169,165,202,182,151,164,176,171],"times":[955,408,416,535,519,519,847],"next_num":7,"trial_type":"ticket-choose","trial_index":56,"time_elapsed":1196132,"internal_node_id":"0.0-56.0"},{"result":156,"points":3,"place":0,"phase":0,"sequence":37,"prices":[167,174,186,211,178,181,188,168,208,156],"times":[821,391,432,472,9038,482,442,422,776,738],"next_num":10,"trial_type":"ticket-choose","trial_index":57,"time_elapsed":1213979,"internal_node_id":"0.0-57.0"},{"result":156,"points":3,"place":0,"phase":0,"sequence":38,"prices":[201,204,179,166,185,165,214,156,202,165],"times":[1521,415,425,403,415,829,775,704],"next_num":8,"trial_type":"ticket-choose","trial_index":58,"time_elapsed":1222586,"internal_node_id":"0.0-58.0"},{"result":158,"points":2,"place":1,"phase":0,"sequence":39,"prices":[158,176,187,210,177,181,187,165,208,153],"times":[1226],"next_num":1,"trial_type":"ticket-choose","trial_index":59,"time_elapsed":1231882,"internal_node_id":"0.0-59.0"},{"result":153,"points":3,"place":0,"phase":0,"sequence":40,"prices":[177,174,186,217,165,181,187,166,153,209],"times":[1171,423,391,416,471,464,423,568,1167],"next_num":9,"trial_type":"ticket-choose","trial_index":60,"time_elapsed":1241025,"internal_node_id":"0.0-60.0"},{"result":152,"points":3,"place":0,"phase":0,"sequence":41,"prices":[200,180,203,152,175,170,160,154,176,191],"times":[1299,376,247,1143],"next_num":4,"trial_type":"ticket-choose","trial_index":61,"time_elapsed":1246466,"internal_node_id":"0.0-61.0"},{"result":153,"points":3,"place":0,"phase":0,"sequence":42,"prices":[163,175,186,214,176,179,187,166,153,208],"times":[546,351,391,3326,454,503,432,1368,647],"next_num":9,"trial_type":"ticket-choose","trial_index":62,"time_elapsed":1258282,"internal_node_id":"0.0-62.0"},{"result":154,"points":3,"place":0,"phase":0,"sequence":43,"prices":[176,187,179,209,163,180,188,165,154,208],"times":[856,406,284,483,389,600,442,881,629],"next_num":9,"trial_type":"ticket-choose","trial_index":63,"time_elapsed":1266748,"internal_node_id":"0.0-63.0"},{"result":153,"points":3,"place":0,"phase":0,"sequence":44,"prices":[167,175,186,225,178,179,187,169,209,153],"times":[872,371,295,507,408,419,405,700,983,770],"next_num":10,"trial_type":"ticket-choose","trial_index":64,"time_elapsed":1276258,"internal_node_id":"0.0-64.0"},{"result":153,"points":3,"place":0,"phase":0,"sequence":45,"prices":[176,186,178,217,163,181,187,166,153,209],"times":[2868,398,427,445,451,435,415,994,993],"next_num":9,"trial_type":"ticket-choose","trial_index":65,"time_elapsed":1287080,"internal_node_id":"0.0-65.0"},{"result":179,"points":1,"place":4,"phase":0,"sequence":46,"prices":[181,214,169,147,182,193,178,184,176,179],"times":[699,317,245,332,916,498,721,805,850,822],"next_num":10,"trial_type":"ticket-choose","trial_index":66,"time_elapsed":1297258,"internal_node_id":"0.0-66.0"},{"result":154,"points":3,"place":0,"phase":0,"sequence":47,"prices":[187,201,165,172,196,174,178,154,172,180],"times":[781,524,566,491,464,555,486,1178],"next_num":8,"trial_type":"ticket-choose","trial_index":67,"time_elapsed":1305721,"internal_node_id":"0.0-67.0"},{"result":148,"points":3,"place":0,"phase":0,"sequence":48,"prices":[173,163,185,181,166,148,160,185,176,184],"times":[972,397,466,408,450,867],"next_num":6,"trial_type":"ticket-choose","trial_index":68,"time_elapsed":1312682,"internal_node_id":"0.0-68.0"},{"result":152,"points":3,"place":0,"phase":0,"sequence":49,"prices":[200,173,182,169,207,165,152,202,161,204],"times":[655,438,432,505,478,695,1153],"next_num":7,"trial_type":"ticket-choose","trial_index":69,"time_elapsed":1320777,"internal_node_id":"0.0-69.0"},{"responses":[{"value":0,"offby":-1,"category":"$115 - $130","category_index":0},{"value":5,"offby":0,"category":"$131 - $145","category_index":1},{"value":20,"offby":8,"category":"$146 - $160","category_index":2},{"value":25,"offby":3,"category":"$161 - $175","category_index":3},{"value":35,"offby":1,"category":"$176 - $190","category_index":4},{"value":10,"offby":-5,"category":"$191 - $205","category_index":5},{"value":5,"offby":-6,"category":"$206 - $220","category_index":6}],"phase":1,"number":1,"trial_type":"bar-choose","trial_index":70,"time_elapsed":1386924,"internal_node_id":"0.0-70.0"},{"rt":35132,"url":"\/christiane\/tickets\/utils\/testing2.html","trial_type":"point_update","trial_index":71,"time_elapsed":1423226,"internal_node_id":"0.0-71.0"},{"phase":1,"order":[39,41,4,23,13,45,5,28,15,7,38,8,43,42,27,19,22,21,40,24,10,46,14,29,35,18,1,6,3,9,31,30,34,44,33,32,37,0,25,20,11,47,12,16,2,17,48,36,49,26],"trial_type":"store_order","trial_index":72,"time_elapsed":1424239,"internal_node_id":"0.0-72.0"},{"result":152,"points":3,"place":0,"phase":1,"sequence":0,"prices":[200,181,203,152,175,171,160,154,176,191],"times":[779,469,468,1214],"next_num":4,"trial_type":"ticket-choose","trial_index":73,"time_elapsed":1429749,"internal_node_id":"0.0-73.0"},{"result":153,"points":3,"place":0,"phase":1,"sequence":1,"prices":[175,186,178,212,179,187,167,169,209,153],"times":[661,342,342,8131,540,462,852,905,525,796],"next_num":10,"trial_type":"ticket-choose","trial_index":74,"time_elapsed":1446995,"internal_node_id":"0.0-74.0"},{"result":185,"points":1,"place":4,"phase":1,"sequence":2,"prices":[196,165,170,184,187,211,171,201,202,185],"times":[510,684,422,416,430,469,505,524,640,1022],"next_num":10,"trial_type":"ticket-choose","trial_index":75,"time_elapsed":1456425,"internal_node_id":"0.0-75.0"},{"result":143,"points":3,"place":0,"phase":1,"sequence":3,"prices":[222,173,202,197,143,205,198,183,178,186],"times":[496,385,412,409,916],"next_num":5,"trial_type":"ticket-choose","trial_index":76,"time_elapsed":1461695,"internal_node_id":"0.0-76.0"},{"result":165,"points":3,"place":0,"phase":1,"sequence":4,"prices":[185,170,182,201,173,199,171,188,165,168],"times":[380,345,302,442,452,469,415,455,1282],"next_num":9,"trial_type":"ticket-choose","trial_index":77,"time_elapsed":1469892,"internal_node_id":"0.0-77.0"},{"result":165,"points":3,"place":0,"phase":1,"sequence":5,"prices":[193,169,171,187,190,224,174,194,165,188],"times":[594,327,335,372,415,488,435,623,973],"next_num":9,"trial_type":"ticket-choose","trial_index":78,"time_elapsed":1477753,"internal_node_id":"0.0-78.0"},{"result":167,"points":2,"place":1,"phase":1,"sequence":6,"prices":[183,182,192,168,173,205,167,187,165,170],"times":[1101,366,303,309,439,482,995],"next_num":7,"trial_type":"ticket-choose","trial_index":79,"time_elapsed":1484776,"internal_node_id":"0.0-79.0"},{"result":174,"points":1,"place":3,"phase":1,"sequence":7,"prices":[174,186,176,217,181,187,163,166,153,209],"times":[534],"next_num":1,"trial_type":"ticket-choose","trial_index":80,"time_elapsed":1487289,"internal_node_id":"0.0-80.0"},{"result":153,"points":3,"place":0,"phase":1,"sequence":8,"prices":[175,186,165,214,179,187,177,166,153,208],"times":[1110,702,356,429,444,442,495,1590,1113],"next_num":9,"trial_type":"ticket-choose","trial_index":81,"time_elapsed":1497729,"internal_node_id":"0.0-81.0"},{"result":153,"points":3,"place":0,"phase":1,"sequence":9,"prices":[175,186,163,214,179,187,176,166,153,208],"times":[614,297,272,465,406,451,391,371,1229],"next_num":9,"trial_type":"ticket-choose","trial_index":82,"time_elapsed":1505735,"internal_node_id":"0.0-82.0"},{"result":163,"points":2,"place":1,"phase":1,"sequence":10,"prices":[175,186,176,210,179,187,163,166,153,208],"times":[470,269,210,283,382,365,952],"next_num":7,"trial_type":"ticket-choose","trial_index":83,"time_elapsed":1511489,"internal_node_id":"0.0-83.0"},{"result":186,"points":1,"place":4,"phase":1,"sequence":11,"prices":[192,165,171,178,188,217,172,195,197,186],"times":[517,328,336,256,212,311,433,356,323,472],"next_num":11,"trial_type":"ticket-choose","trial_index":84,"time_elapsed":1519545,"internal_node_id":"0.0-84.0"},{"result":154,"points":2,"place":1,"phase":1,"sequence":12,"prices":[168,154,172,185,195,144,184,211,177,227],"times":[604,1739],"next_num":2,"trial_type":"ticket-choose","trial_index":85,"time_elapsed":1523649,"internal_node_id":"0.0-85.0"},{"result":176,"points":0,"place":5,"phase":1,"sequence":13,"prices":[191,172,169,175,182,203,170,195,165,176],"times":[526,591,292,361,405,405,405,428,503,1557],"next_num":10,"trial_type":"ticket-choose","trial_index":86,"time_elapsed":1532369,"internal_node_id":"0.0-86.0"},{"result":175,"points":0,"place":5,"phase":1,"sequence":14,"prices":[180,159,149,175,185,141,163,174,178,207],"times":[333,302,472,944],"next_num":4,"trial_type":"ticket-choose","trial_index":87,"time_elapsed":1536614,"internal_node_id":"0.0-87.0"},{"result":155,"points":2,"place":1,"phase":1,"sequence":15,"prices":[181,155,148,161,168,187,172,199,176,194],"times":[640,774],"next_num":2,"trial_type":"ticket-choose","trial_index":88,"time_elapsed":1539827,"internal_node_id":"0.0-88.0"},{"result":165,"points":1,"place":2,"phase":1,"sequence":16,"prices":[176,187,158,210,181,187,177,165,208,153],"times":[756,315,303,543,447,406,447,906],"next_num":8,"trial_type":"ticket-choose","trial_index":89,"time_elapsed":1547130,"internal_node_id":"0.0-89.0"},{"result":152,"points":3,"place":0,"phase":1,"sequence":17,"prices":[198,193,169,163,202,182,152,164,177,171],"times":[807,498,395,716,538,482,776],"next_num":7,"trial_type":"ticket-choose","trial_index":90,"time_elapsed":1554473,"internal_node_id":"0.0-90.0"},{"result":153,"points":3,"place":0,"phase":1,"sequence":18,"prices":[175,186,177,210,179,187,165,166,153,208],"times":[705,362,322,342,352,389,2676,639,892],"next_num":9,"trial_type":"ticket-choose","trial_index":91,"time_elapsed":1564536,"internal_node_id":"0.0-91.0"},{"result":160,"points":2,"place":1,"phase":1,"sequence":19,"prices":[183,163,185,180,166,148,160,186,176,184],"times":[525,365,385,425,406,392,618],"next_num":7,"trial_type":"ticket-choose","trial_index":92,"time_elapsed":1570609,"internal_node_id":"0.0-92.0"},{"result":166,"points":2,"place":1,"phase":1,"sequence":20,"prices":[168,199,196,198,185,195,227,163,177,166],"times":[660,402,418,386,495,443,488,471,436,464],"next_num":11,"trial_type":"ticket-choose","trial_index":93,"time_elapsed":1579553,"internal_node_id":"0.0-93.0"},{"result":156,"points":3,"place":0,"phase":1,"sequence":21,"prices":[175,185,178,215,181,186,167,168,208,156],"times":[538,432,365,335,405,401,461,1050,737,785],"next_num":10,"trial_type":"ticket-choose","trial_index":94,"time_elapsed":1588765,"internal_node_id":"0.0-94.0"},{"result":179,"points":1,"place":4,"phase":1,"sequence":22,"prices":[201,165,162,166,185,214,165,202,204,179],"times":[505,425,455,489,534,492,772,590,812,728],"next_num":10,"trial_type":"ticket-choose","trial_index":95,"time_elapsed":1598306,"internal_node_id":"0.0-95.0"},{"result":165,"points":3,"place":0,"phase":1,"sequence":23,"prices":[171,203,175,170,167,220,192,186,165,165],"times":[523,505,429,425,425,460,495,492,745],"next_num":9,"trial_type":"ticket-choose","trial_index":96,"time_elapsed":1606067,"internal_node_id":"0.0-96.0"},{"result":170,"points":2,"place":1,"phase":1,"sequence":24,"prices":[201,187,157,184,198,179,188,185,178,170],"times":[453,357,335,490,437,442,405,542,441,494],"next_num":10,"trial_type":"ticket-choose","trial_index":97,"time_elapsed":1613942,"internal_node_id":"0.0-97.0"},{"result":158,"points":2,"place":1,"phase":1,"sequence":25,"prices":[175,186,177,221,180,187,158,166,209,153],"times":[610,365,339,371,405,435,729],"next_num":7,"trial_type":"ticket-choose","trial_index":98,"time_elapsed":1619978,"internal_node_id":"0.0-98.0"},{"result":167,"points":1,"place":2,"phase":1,"sequence":26,"prices":[174,186,165,212,181,187,177,167,153,209],"times":[472,321,295,442,392,376,421,722],"next_num":8,"trial_type":"ticket-choose","trial_index":99,"time_elapsed":1626524,"internal_node_id":"0.0-99.0"},{"result":153,"points":3,"place":0,"phase":1,"sequence":27,"prices":[176,187,177,225,181,187,158,165,208,153],"times":[338,326,284,363,389,522,444,512,468,632],"next_num":10,"trial_type":"ticket-choose","trial_index":100,"time_elapsed":1634824,"internal_node_id":"0.0-100.0"},{"result":168,"points":1,"place":2,"phase":1,"sequence":28,"prices":[174,186,167,211,181,188,178,168,208,156],"times":[393,342,352,452,391,401,429,1176],"next_num":8,"trial_type":"ticket-choose","trial_index":101,"time_elapsed":1642087,"internal_node_id":"0.0-101.0"},{"result":164,"points":3,"place":0,"phase":1,"sequence":29,"prices":[212,192,188,184,167,193,189,164,176,170],"times":[496,362,429,525,526,494,442,765],"next_num":8,"trial_type":"ticket-choose","trial_index":102,"time_elapsed":1649394,"internal_node_id":"0.0-102.0"},{"result":158,"points":2,"place":1,"phase":1,"sequence":30,"prices":[189,150,175,160,188,207,158,194,178,199],"times":[1038,370,515,722,452,502,931],"next_num":7,"trial_type":"ticket-choose","trial_index":103,"time_elapsed":1656933,"internal_node_id":"0.0-103.0"},{"result":165,"points":3,"place":0,"phase":1,"sequence":31,"prices":[189,167,180,197,165,168,172,213,178,171],"times":[651,432,502,441,1249],"next_num":5,"trial_type":"ticket-choose","trial_index":104,"time_elapsed":1662860,"internal_node_id":"0.0-104.0"},{"result":166,"points":1,"place":2,"phase":1,"sequence":32,"prices":[175,186,158,211,180,187,177,166,209,153],"times":[870,1275,352,415,402,439,472,904],"next_num":8,"trial_type":"ticket-choose","trial_index":105,"time_elapsed":1671149,"internal_node_id":"0.0-105.0"},{"result":158,"points":3,"place":0,"phase":1,"sequence":33,"prices":[210,184,226,193,215,158,199,175,176,208],"times":[1370,432,425,474,560,1212],"next_num":6,"trial_type":"ticket-choose","trial_index":106,"time_elapsed":1678396,"internal_node_id":"0.0-106.0"},{"result":168,"points":1,"place":2,"phase":1,"sequence":34,"prices":[175,185,167,224,181,186,178,168,208,156],"times":[737,350,376,432,436,411,469,831],"next_num":8,"trial_type":"ticket-choose","trial_index":107,"time_elapsed":1685699,"internal_node_id":"0.0-107.0"},{"result":165,"points":2,"place":1,"phase":1,"sequence":35,"prices":[174,186,177,217,181,187,165,166,153,209],"times":[403,362,369,475,446,393,778],"next_num":7,"trial_type":"ticket-choose","trial_index":108,"time_elapsed":1691972,"internal_node_id":"0.0-108.0"},{"result":158,"points":2,"place":1,"phase":1,"sequence":36,"prices":[175,186,177,209,181,188,158,167,208,154],"times":[852,400,452,442,654,641,875],"next_num":7,"trial_type":"ticket-choose","trial_index":109,"time_elapsed":1699602,"internal_node_id":"0.0-109.0"},{"result":176,"points":1,"place":2,"phase":1,"sequence":37,"prices":[181,215,169,147,182,193,177,184,176,179],"times":[731,445,362,371,1176,724,513,655,652],"next_num":9,"trial_type":"ticket-choose","trial_index":110,"time_elapsed":1708674,"internal_node_id":"0.0-110.0"},{"result":163,"points":2,"place":1,"phase":1,"sequence":38,"prices":[175,187,176,209,180,188,163,165,154,208],"times":[780,452,622,514,459,505,792],"next_num":7,"trial_type":"ticket-choose","trial_index":111,"time_elapsed":1716024,"internal_node_id":"0.0-111.0"},{"result":154,"points":3,"place":0,"phase":1,"sequence":39,"prices":[175,186,158,209,181,188,177,167,208,154],"times":[1094,372,382,428,446,422,475,786,591,548],"next_num":10,"trial_type":"ticket-choose","trial_index":112,"time_elapsed":1725157,"internal_node_id":"0.0-112.0"},{"result":154,"points":3,"place":0,"phase":1,"sequence":40,"prices":[175,187,163,209,180,188,176,165,154,208],"times":[560,325,336,355,399,402,418,516,688],"next_num":9,"trial_type":"ticket-choose","trial_index":113,"time_elapsed":1732466,"internal_node_id":"0.0-113.0"},{"result":154,"points":3,"place":0,"phase":1,"sequence":41,"prices":[175,187,165,209,180,188,177,166,154,208],"times":[484,385,335,476,381,423,455,509,644],"next_num":9,"trial_type":"ticket-choose","trial_index":114,"time_elapsed":1740050,"internal_node_id":"0.0-114.0"},{"result":156,"points":3,"place":0,"phase":1,"sequence":42,"prices":[174,186,178,217,181,188,167,168,208,156],"times":[476,315,366,392,378,366,375,375,436,628],"next_num":10,"trial_type":"ticket-choose","trial_index":115,"time_elapsed":1748891,"internal_node_id":"0.0-115.0"},{"result":180,"points":0,"place":6,"phase":1,"sequence":43,"prices":[188,200,165,172,198,174,177,154,177,180],"times":[469,265,238,3496,392,362,349,419,834,679],"next_num":11,"trial_type":"ticket-choose","trial_index":116,"time_elapsed":1760253,"internal_node_id":"0.0-116.0"},{"result":153,"points":3,"place":0,"phase":1,"sequence":44,"prices":[175,186,167,225,179,187,178,169,209,153],"times":[332,366,234,903,472,425,446,1535,572,631],"next_num":10,"trial_type":"ticket-choose","trial_index":117,"time_elapsed":1770120,"internal_node_id":"0.0-117.0"},{"result":155,"points":2,"place":1,"phase":1,"sequence":45,"prices":[201,207,155,158,156,165,167,135,178,177],"times":[4663,398,802],"next_num":3,"trial_type":"ticket-choose","trial_index":118,"time_elapsed":1779481,"internal_node_id":"0.0-118.0"},{"result":161,"points":3,"place":0,"phase":1,"sequence":46,"prices":[200,165,165,173,182,207,161,202,204,180],"times":[981,471,535,431,426,2087,830],"next_num":7,"trial_type":"ticket-choose","trial_index":119,"time_elapsed":1792050,"internal_node_id":"0.0-119.0"},{"result":154,"points":3,"place":0,"phase":1,"sequence":47,"prices":[175,187,177,209,180,188,165,165,154,208],"times":[623,1267,347,472,397,461,897,1111,694],"next_num":9,"trial_type":"ticket-choose","trial_index":120,"time_elapsed":1802186,"internal_node_id":"0.0-120.0"},{"result":184,"points":1,"place":4,"phase":1,"sequence":48,"prices":[193,165,175,181,185,224,180,199,218,184],"times":[1800,306,375,405,447,473,425,415,506,787],"next_num":10,"trial_type":"ticket-choose","trial_index":121,"time_elapsed":1811960,"internal_node_id":"0.0-121.0"},{"result":153,"points":3,"place":0,"phase":1,"sequence":49,"prices":[174,186,163,212,181,187,176,166,153,209],"times":[560,432,432,415,526,1875,494,472,652],"next_num":9,"trial_type":"ticket-choose","trial_index":122,"time_elapsed":1821562,"internal_node_id":"0.0-122.0"},{"responses":[{"value":3,"offby":2,"category":"$115 - $130","category_index":0},{"value":12,"offby":7,"category":"$131 - $145","category_index":1},{"value":21,"offby":9,"category":"$146 - $160","category_index":2},{"value":27,"offby":5,"category":"$161 - $175","category_index":3},{"value":26,"offby":-8,"category":"$176 - $190","category_index":4},{"value":6,"offby":-9,"category":"$191 - $205","category_index":5},{"value":5,"offby":-6,"category":"$206 - $220","category_index":6}],"phase":1,"number":1,"trial_type":"bar-choose","trial_index":123,"time_elapsed":1851028,"internal_node_id":"0.0-123.0"},{"special_comment":"no","trial_type":"special_sequence","trial_index":124,"time_elapsed":1857674,"internal_node_id":"0.0-124.0"},{"during":"Nothing","bonus":308,"trial_type":"final","trial_index":125,"time_elapsed":1896205,"internal_node_id":"0.0-125.0"}],"bonus":308}