{"start_time":"2017-05-24 16:00:33","end_time":"2017-05-24 16:28:25","points_phase0":106,"points_phase1":100,"phase_order":0,"age":41,"gender":"m","tries":1,"during":"Nothing","worker_id":"A2EOOF9D135HQ1","assignment_id":"3HFNH7HEMI7E7FQSX0W9YNUQBKLGQ2","data":[{"rt":33593,"url":"\/christiane\/tickets\/utils\/consent.html","trial_type":"html","trial_index":0,"time_elapsed":34494,"internal_node_id":"0.0-0.0"},{"age":41,"gender":"m","trial_type":"age","trial_index":1,"time_elapsed":40710,"internal_node_id":"0.0-1.0"},{"worker_id":"A2EOOF9D135HQ1","trial_type":"workerid","trial_index":2,"time_elapsed":49747,"internal_node_id":"0.0-2.0"},{"tries":1,"trial_type":"instructions_check","trial_index":3,"time_elapsed":108858,"internal_node_id":"0.0-3.0"},{"rt":51874,"url":"\/christiane\/tickets\/utils\/start.html","trial_type":"html","trial_index":4,"time_elapsed":162338,"internal_node_id":"0.0-4.0"},{"trial_type":"number-animation","trial_index":5,"time_elapsed":190592,"internal_node_id":"0.0-5.0"},{"phase":0,"sequence":0,"avg":181,"response":181,"trial_type":"training_avg","trial_index":6,"time_elapsed":244871,"internal_node_id":"0.0-6.0"},{"trial_type":"number-animation","trial_index":7,"time_elapsed":275408,"internal_node_id":"0.0-7.0"},{"phase":0,"sequence":1,"avg":188,"response":188,"trial_type":"training_avg","trial_index":8,"time_elapsed":310651,"internal_node_id":"0.0-8.0"},{"trial_type":"number-animation","trial_index":9,"time_elapsed":332982,"internal_node_id":"0.0-9.0"},{"phase":0,"sequence":2,"avg":188,"response":188,"trial_type":"training_avg","trial_index":10,"time_elapsed":353773,"internal_node_id":"0.0-10.0"},{"trial_type":"number-animation","trial_index":11,"time_elapsed":373895,"internal_node_id":"0.0-11.0"},{"phase":0,"sequence":3,"avg":177,"response":177,"trial_type":"training_avg","trial_index":12,"time_elapsed":390321,"internal_node_id":"0.0-12.0"},{"trial_type":"number-animation","trial_index":13,"time_elapsed":423987,"internal_node_id":"0.0-13.0"},{"phase":0,"sequence":4,"avg":182,"response":182,"trial_type":"training_avg","trial_index":14,"time_elapsed":441716,"internal_node_id":"0.0-14.0"},{"responses":[{"value":0,"offby":-1,"category":"$115 - $130","category_index":0},{"value":2,"offby":-3,"category":"$131 - $145","category_index":1},{"value":10,"offby":-2,"category":"$146 - $160","category_index":2},{"value":34,"offby":12,"category":"$161 - $175","category_index":3},{"value":42,"offby":8,"category":"$176 - $190","category_index":4},{"value":10,"offby":-5,"category":"$191 - $205","category_index":5},{"value":2,"offby":-9,"category":"$206 - $220","category_index":6}],"phase":0,"number":0,"trial_type":"bar-choose","trial_index":15,"time_elapsed":616505,"internal_node_id":"0.0-15.0"},{"rt":28100,"url":"\/christiane\/tickets\/utils\/testing.html","trial_type":"html","trial_index":16,"time_elapsed":645832,"internal_node_id":"0.0-16.0"},{"phase":0,"order":[37,18,45,43,23,46,16,13,3,0,2,31,1,27,32,49,11,29,42,14,25,10,17,6,7,41,48,5,20,22,21,4,28,35,36,12,9,19,15,39,38,47,33,26,34,30,40,44,24,8],"trial_type":"store_order","trial_index":17,"time_elapsed":646835,"internal_node_id":"0.0-17.0"},{"result":146,"points":3,"place":0,"phase":0,"sequence":-1,"prices":[184,180,224,165,181,199,185,193,218,146],"times":[1994,499,401,492,500,546,560,1186,612,1513],"next_num":10,"trial_type":"ticket-choose","trial_index":18,"time_elapsed":660374,"internal_node_id":"0.0-18.0"},{"rt":10478,"url":"\/christiane\/tickets\/utils\/testing_after.html","trial_type":"html","trial_index":19,"time_elapsed":671998,"internal_node_id":"0.0-19.0"},{"result":152,"points":3,"place":0,"phase":0,"sequence":0,"prices":[198,193,169,163,202,182,152,164,177,171],"times":[907,693,717,902,700,733,2370],"next_num":7,"trial_type":"ticket-choose","trial_index":20,"time_elapsed":684182,"internal_node_id":"0.0-20.0"},{"result":153,"points":3,"place":0,"phase":0,"sequence":1,"prices":[175,186,158,211,180,187,177,166,209,153],"times":[1523,428,449,500,462,534,1193,591,2322,1150],"next_num":10,"trial_type":"ticket-choose","trial_index":21,"time_elapsed":697727,"internal_node_id":"0.0-21.0"},{"result":164,"points":3,"place":0,"phase":0,"sequence":2,"prices":[212,192,188,184,167,193,189,164,176,170],"times":[1135,493,502,591,748,555,693,1259],"next_num":8,"trial_type":"ticket-choose","trial_index":22,"time_elapsed":707517,"internal_node_id":"0.0-22.0"},{"result":157,"points":3,"place":0,"phase":0,"sequence":3,"prices":[201,187,157,184,198,179,188,185,178,170],"times":[1620,883,1584],"next_num":3,"trial_type":"ticket-choose","trial_index":23,"time_elapsed":715393,"internal_node_id":"0.0-23.0"},{"result":158,"points":2,"place":1,"phase":0,"sequence":4,"prices":[176,187,177,225,181,187,158,165,208,153],"times":[1724,421,433,582,584,499,1263],"next_num":7,"trial_type":"ticket-choose","trial_index":24,"time_elapsed":725208,"internal_node_id":"0.0-24.0"},{"result":158,"points":3,"place":0,"phase":0,"sequence":5,"prices":[210,184,226,193,215,158,199,175,176,208],"times":[595,369,379,384,409,1436],"next_num":6,"trial_type":"ticket-choose","trial_index":25,"time_elapsed":732210,"internal_node_id":"0.0-25.0"},{"result":163,"points":2,"place":1,"phase":0,"sequence":6,"prices":[175,187,176,209,180,188,163,165,154,208],"times":[667,375,574,466,507,506,1313],"next_num":7,"trial_type":"ticket-choose","trial_index":26,"time_elapsed":740329,"internal_node_id":"0.0-26.0"},{"result":165,"points":1,"place":2,"phase":0,"sequence":7,"prices":[175,187,163,209,180,188,176,165,154,208],"times":[477,374,492,390,566,535,625,1299],"next_num":8,"trial_type":"ticket-choose","trial_index":27,"time_elapsed":748976,"internal_node_id":"0.0-27.0"},{"result":167,"points":2,"place":1,"phase":0,"sequence":8,"prices":[174,186,178,217,181,188,167,168,208,156],"times":[716,359,478,493,631,490,1119],"next_num":7,"trial_type":"ticket-choose","trial_index":28,"time_elapsed":756834,"internal_node_id":"0.0-28.0"},{"result":156,"points":3,"place":0,"phase":0,"sequence":9,"prices":[174,186,167,211,181,188,178,168,208,156],"times":[770,521,368,436,406,471,613,1101,998,1057],"next_num":10,"trial_type":"ticket-choose","trial_index":29,"time_elapsed":767947,"internal_node_id":"0.0-29.0"},{"result":169,"points":1,"place":2,"phase":0,"sequence":10,"prices":[175,186,167,225,179,187,178,169,209,153],"times":[560,455,510,524,489,520,2851,1080],"next_num":8,"trial_type":"ticket-choose","trial_index":30,"time_elapsed":779315,"internal_node_id":"0.0-30.0"},{"result":165,"points":3,"place":0,"phase":0,"sequence":11,"prices":[171,203,175,170,167,220,192,186,165,165],"times":[854,446,454,533,496,461,438,616,1809],"next_num":9,"trial_type":"ticket-choose","trial_index":31,"time_elapsed":789572,"internal_node_id":"0.0-31.0"},{"result":168,"points":1,"place":2,"phase":0,"sequence":12,"prices":[175,185,167,224,181,186,178,168,208,156],"times":[684,507,389,293,427,495,1759,2238],"next_num":8,"trial_type":"ticket-choose","trial_index":32,"time_elapsed":800027,"internal_node_id":"0.0-32.0"},{"result":165,"points":3,"place":0,"phase":0,"sequence":13,"prices":[192,165,171,178,188,217,172,195,197,186],"times":[659,1683],"next_num":2,"trial_type":"ticket-choose","trial_index":33,"time_elapsed":804704,"internal_node_id":"0.0-33.0"},{"result":165,"points":3,"place":0,"phase":0,"sequence":14,"prices":[193,169,171,187,190,224,174,194,165,188],"times":[594,765,465,620,566,522,649,672,1390],"next_num":9,"trial_type":"ticket-choose","trial_index":34,"time_elapsed":815479,"internal_node_id":"0.0-34.0"},{"result":163,"points":1,"place":2,"phase":0,"sequence":15,"prices":[183,163,185,180,166,148,160,186,176,184],"times":[834,1251],"next_num":2,"trial_type":"ticket-choose","trial_index":35,"time_elapsed":819924,"internal_node_id":"0.0-35.0"},{"result":165,"points":2,"place":1,"phase":0,"sequence":16,"prices":[174,186,177,217,181,187,165,166,153,209],"times":[724,807,717,619,704,502,1245],"next_num":7,"trial_type":"ticket-choose","trial_index":36,"time_elapsed":828593,"internal_node_id":"0.0-36.0"},{"result":165,"points":3,"place":0,"phase":0,"sequence":17,"prices":[185,170,182,201,173,199,171,188,165,168],"times":[636,482,521,383,502,415,707,664,1208],"next_num":9,"trial_type":"ticket-choose","trial_index":37,"time_elapsed":838026,"internal_node_id":"0.0-37.0"},{"result":143,"points":3,"place":0,"phase":0,"sequence":18,"prices":[222,173,202,197,143,205,198,183,178,186],"times":[582,493,471,556,1320],"next_num":5,"trial_type":"ticket-choose","trial_index":38,"time_elapsed":844904,"internal_node_id":"0.0-38.0"},{"result":163,"points":2,"place":1,"phase":0,"sequence":19,"prices":[174,186,163,212,181,187,176,166,153,209],"times":[2063,370,1501],"next_num":3,"trial_type":"ticket-choose","trial_index":39,"time_elapsed":851445,"internal_node_id":"0.0-39.0"},{"result":165,"points":2,"place":1,"phase":0,"sequence":20,"prices":[201,165,162,166,185,214,165,202,204,179],"times":[620,634,406,756,458,541,1940],"next_num":7,"trial_type":"ticket-choose","trial_index":40,"time_elapsed":860308,"internal_node_id":"0.0-40.0"},{"result":165,"points":2,"place":1,"phase":0,"sequence":21,"prices":[175,187,177,209,180,188,165,165,154,208],"times":[758,635,605,605,549,627,1524],"next_num":7,"trial_type":"ticket-choose","trial_index":41,"time_elapsed":868857,"internal_node_id":"0.0-41.0"},{"result":163,"points":2,"place":1,"phase":0,"sequence":22,"prices":[174,186,176,217,181,187,163,166,153,209],"times":[895,578,479,441,640,513,1289],"next_num":7,"trial_type":"ticket-choose","trial_index":42,"time_elapsed":877214,"internal_node_id":"0.0-42.0"},{"result":166,"points":1,"place":2,"phase":0,"sequence":23,"prices":[175,186,165,214,179,187,177,166,153,208],"times":[626,533,408,374,396,567,567,1168],"next_num":8,"trial_type":"ticket-choose","trial_index":43,"time_elapsed":885224,"internal_node_id":"0.0-43.0"},{"result":165,"points":2,"place":1,"phase":0,"sequence":24,"prices":[175,187,165,209,180,188,177,166,154,208],"times":[524,451,1146],"next_num":3,"trial_type":"ticket-choose","trial_index":44,"time_elapsed":891120,"internal_node_id":"0.0-44.0"},{"result":158,"points":1,"place":3,"phase":0,"sequence":25,"prices":[201,207,155,158,156,165,167,135,178,177],"times":[670,545,408,1248],"next_num":4,"trial_type":"ticket-choose","trial_index":45,"time_elapsed":896672,"internal_node_id":"0.0-45.0"},{"result":179,"points":1,"place":4,"phase":0,"sequence":26,"prices":[181,215,169,147,182,193,177,184,176,179],"times":[722,718,608,543,1343,505,514,555,606,1300],"next_num":10,"trial_type":"ticket-choose","trial_index":46,"time_elapsed":907900,"internal_node_id":"0.0-46.0"},{"result":167,"points":2,"place":1,"phase":0,"sequence":27,"prices":[175,186,178,212,179,187,167,169,209,153],"times":[623,549,499,637,510,592,1883],"next_num":7,"trial_type":"ticket-choose","trial_index":47,"time_elapsed":916423,"internal_node_id":"0.0-47.0"},{"result":158,"points":2,"place":1,"phase":0,"sequence":28,"prices":[176,187,158,210,181,187,177,165,208,153],"times":[898,507,1402],"next_num":3,"trial_type":"ticket-choose","trial_index":48,"time_elapsed":921654,"internal_node_id":"0.0-48.0"},{"result":158,"points":2,"place":1,"phase":0,"sequence":29,"prices":[175,186,177,209,181,188,158,167,208,154],"times":[593,637,505,553,683,582,1729],"next_num":7,"trial_type":"ticket-choose","trial_index":49,"time_elapsed":930538,"internal_node_id":"0.0-49.0"},{"result":158,"points":2,"place":1,"phase":0,"sequence":30,"prices":[175,186,177,221,180,187,158,166,209,153],"times":[682,627,481,508,447,500,1415],"next_num":7,"trial_type":"ticket-choose","trial_index":50,"time_elapsed":938714,"internal_node_id":"0.0-50.0"},{"result":156,"points":3,"place":0,"phase":0,"sequence":31,"prices":[175,185,178,215,181,186,167,168,208,156],"times":[622,553,513,529,538,536,1120,590,626,1019],"next_num":10,"trial_type":"ticket-choose","trial_index":51,"time_elapsed":949346,"internal_node_id":"0.0-51.0"},{"result":185,"points":1,"place":4,"phase":0,"sequence":32,"prices":[196,165,170,184,187,211,171,201,202,185],"times":[600,476,439,438,516,497,527,640,858,889],"next_num":10,"trial_type":"ticket-choose","trial_index":52,"time_elapsed":959399,"internal_node_id":"0.0-52.0"},{"result":168,"points":1,"place":2,"phase":0,"sequence":33,"prices":[168,154,172,185,195,144,184,211,177,227],"times":[1771],"next_num":1,"trial_type":"ticket-choose","trial_index":53,"time_elapsed":963220,"internal_node_id":"0.0-53.0"},{"result":165,"points":2,"place":1,"phase":0,"sequence":34,"prices":[188,200,165,172,198,174,177,154,177,180],"times":[952,533,1163],"next_num":3,"trial_type":"ticket-choose","trial_index":54,"time_elapsed":968176,"internal_node_id":"0.0-54.0"},{"result":163,"points":2,"place":1,"phase":0,"sequence":35,"prices":[175,186,163,214,179,187,176,166,153,208],"times":[772,460,1401],"next_num":3,"trial_type":"ticket-choose","trial_index":55,"time_elapsed":973062,"internal_node_id":"0.0-55.0"},{"result":165,"points":2,"place":1,"phase":0,"sequence":36,"prices":[175,186,177,210,179,187,165,166,153,208],"times":[689,752,499,604,1644,544,1557],"next_num":7,"trial_type":"ticket-choose","trial_index":56,"time_elapsed":982663,"internal_node_id":"0.0-56.0"},{"result":158,"points":2,"place":1,"phase":0,"sequence":37,"prices":[175,186,158,209,181,188,177,167,208,154],"times":[812,853,1535],"next_num":3,"trial_type":"ticket-choose","trial_index":57,"time_elapsed":988188,"internal_node_id":"0.0-57.0"},{"result":163,"points":2,"place":1,"phase":0,"sequence":38,"prices":[175,186,176,210,179,187,163,166,153,208],"times":[604,514,593,788,615,531,1861],"next_num":7,"trial_type":"ticket-choose","trial_index":58,"time_elapsed":997101,"internal_node_id":"0.0-58.0"},{"result":165,"points":3,"place":0,"phase":0,"sequence":39,"prices":[189,167,180,197,165,168,172,213,178,171],"times":[1612,2049,531,538,1318],"next_num":5,"trial_type":"ticket-choose","trial_index":59,"time_elapsed":1006069,"internal_node_id":"0.0-59.0"},{"result":163,"points":3,"place":0,"phase":0,"sequence":40,"prices":[168,199,196,198,185,195,227,163,177,166],"times":[1117,562,751,515,596,623,549,1210],"next_num":8,"trial_type":"ticket-choose","trial_index":60,"time_elapsed":1015506,"internal_node_id":"0.0-60.0"},{"result":152,"points":3,"place":0,"phase":0,"sequence":41,"prices":[200,181,203,152,175,171,160,154,176,191],"times":[992,650,528,1334],"next_num":4,"trial_type":"ticket-choose","trial_index":61,"time_elapsed":1022177,"internal_node_id":"0.0-61.0"},{"result":167,"points":2,"place":1,"phase":0,"sequence":42,"prices":[183,182,192,168,173,205,167,187,165,170],"times":[654,463,543,670,496,568,1586],"next_num":7,"trial_type":"ticket-choose","trial_index":62,"time_elapsed":1030683,"internal_node_id":"0.0-62.0"},{"result":165,"points":2,"place":1,"phase":0,"sequence":43,"prices":[200,165,165,173,182,207,161,202,204,180],"times":[690,2211],"next_num":2,"trial_type":"ticket-choose","trial_index":63,"time_elapsed":1037389,"internal_node_id":"0.0-63.0"},{"result":155,"points":2,"place":1,"phase":0,"sequence":44,"prices":[181,155,148,161,168,187,172,199,176,194],"times":[1106,1159],"next_num":2,"trial_type":"ticket-choose","trial_index":64,"time_elapsed":1041891,"internal_node_id":"0.0-64.0"},{"result":165,"points":3,"place":0,"phase":0,"sequence":45,"prices":[191,172,169,175,182,203,170,195,165,176],"times":[1145,497,435,541,543,540,530,629,1414],"next_num":9,"trial_type":"ticket-choose","trial_index":65,"time_elapsed":1051988,"internal_node_id":"0.0-65.0"},{"result":150,"points":3,"place":0,"phase":0,"sequence":46,"prices":[189,150,175,160,188,207,158,194,178,199],"times":[633,1252],"next_num":2,"trial_type":"ticket-choose","trial_index":66,"time_elapsed":1056226,"internal_node_id":"0.0-66.0"},{"result":159,"points":1,"place":2,"phase":0,"sequence":47,"prices":[180,159,149,175,185,141,163,174,178,207],"times":[2063,1499],"next_num":2,"trial_type":"ticket-choose","trial_index":67,"time_elapsed":1063644,"internal_node_id":"0.0-67.0"},{"result":184,"points":1,"place":4,"phase":0,"sequence":48,"prices":[193,165,175,181,185,224,180,199,218,184],"times":[882,578,474,495,589,525,584,646,880,1101],"next_num":10,"trial_type":"ticket-choose","trial_index":68,"time_elapsed":1074761,"internal_node_id":"0.0-68.0"},{"result":165,"points":2,"place":1,"phase":0,"sequence":49,"prices":[174,186,165,212,181,187,177,167,153,209],"times":[546,543,1190],"next_num":3,"trial_type":"ticket-choose","trial_index":69,"time_elapsed":1079492,"internal_node_id":"0.0-69.0"},{"responses":[{"value":6,"offby":5,"category":"$115 - $130","category_index":0},{"value":12,"offby":7,"category":"$131 - $145","category_index":1},{"value":20,"offby":8,"category":"$146 - $160","category_index":2},{"value":24,"offby":2,"category":"$161 - $175","category_index":3},{"value":20,"offby":-14,"category":"$176 - $190","category_index":4},{"value":12,"offby":-3,"category":"$191 - $205","category_index":5},{"value":6,"offby":-5,"category":"$206 - $220","category_index":6}],"phase":1,"number":1,"trial_type":"bar-choose","trial_index":70,"time_elapsed":1167328,"internal_node_id":"0.0-70.0"},{"rt":57594,"url":"\/christiane\/tickets\/utils\/testing2.html","trial_type":"point_update","trial_index":71,"time_elapsed":1226294,"internal_node_id":"0.0-71.0"},{"phase":1,"order":[25,20,41,49,19,6,45,9,36,2,33,11,16,35,18,29,32,15,10,38,23,22,12,39,17,28,14,43,26,4,1,37,24,30,42,5,13,44,7,47,46,31,8,3,21,40,48,27,34,0],"trial_type":"store_order","trial_index":72,"time_elapsed":1227306,"internal_node_id":"0.0-72.0"},{"result":165,"points":2,"place":1,"phase":1,"sequence":0,"prices":[201,204,179,166,185,165,214,156,202,165],"times":[1244,495,657,1950,536,1187],"next_num":6,"trial_type":"ticket-choose","trial_index":73,"time_elapsed":1236592,"internal_node_id":"0.0-73.0"},{"result":158,"points":2,"place":1,"phase":1,"sequence":1,"prices":[158,176,187,210,177,181,187,165,208,153],"times":[1476],"next_num":1,"trial_type":"ticket-choose","trial_index":74,"time_elapsed":1240137,"internal_node_id":"0.0-74.0"},{"result":155,"points":2,"place":1,"phase":1,"sequence":2,"prices":[200,207,155,158,156,168,167,135,178,177],"times":[601,473,1243],"next_num":3,"trial_type":"ticket-choose","trial_index":75,"time_elapsed":1245065,"internal_node_id":"0.0-75.0"},{"result":163,"points":1,"place":2,"phase":1,"sequence":3,"prices":[173,163,185,181,166,148,160,185,176,184],"times":[813,1283],"next_num":2,"trial_type":"ticket-choose","trial_index":76,"time_elapsed":1249383,"internal_node_id":"0.0-76.0"},{"result":158,"points":2,"place":1,"phase":1,"sequence":4,"prices":[158,175,186,209,177,181,188,167,208,154],"times":[1360],"next_num":1,"trial_type":"ticket-choose","trial_index":77,"time_elapsed":1252653,"internal_node_id":"0.0-77.0"},{"result":165,"points":2,"place":1,"phase":1,"sequence":5,"prices":[165,175,186,214,177,179,187,166,153,208],"times":[1137],"next_num":1,"trial_type":"ticket-choose","trial_index":78,"time_elapsed":1255884,"internal_node_id":"0.0-78.0"},{"result":167,"points":2,"place":1,"phase":1,"sequence":6,"prices":[199,191,188,174,167,193,189,164,176,170],"times":[622,625,526,581,1375],"next_num":5,"trial_type":"ticket-choose","trial_index":79,"time_elapsed":1262847,"internal_node_id":"0.0-79.0"},{"result":165,"points":2,"place":1,"phase":1,"sequence":7,"prices":[177,175,186,210,165,179,187,166,153,208],"times":[9596,464,555,671,1625],"next_num":5,"trial_type":"ticket-choose","trial_index":80,"time_elapsed":1279270,"internal_node_id":"0.0-80.0"},{"result":165,"points":2,"place":1,"phase":1,"sequence":8,"prices":[187,201,165,172,196,174,178,154,172,180],"times":[700,481,1210],"next_num":3,"trial_type":"ticket-choose","trial_index":81,"time_elapsed":1284174,"internal_node_id":"0.0-81.0"},{"result":153,"points":3,"place":0,"phase":1,"sequence":9,"prices":[167,175,186,225,178,179,187,169,209,153],"times":[1361,486,521,670,562,501,640,902,593,921],"next_num":10,"trial_type":"ticket-choose","trial_index":82,"time_elapsed":1295095,"internal_node_id":"0.0-82.0"},{"result":165,"points":2,"place":1,"phase":1,"sequence":10,"prices":[183,179,188,165,168,173,205,159,187,191],"times":[558,404,499,1482],"next_num":4,"trial_type":"ticket-choose","trial_index":83,"time_elapsed":1300904,"internal_node_id":"0.0-83.0"},{"result":165,"points":2,"place":1,"phase":1,"sequence":11,"prices":[177,174,186,217,165,181,187,166,153,209],"times":[3521,542,420,437,1336],"next_num":5,"trial_type":"ticket-choose","trial_index":84,"time_elapsed":1309973,"internal_node_id":"0.0-84.0"},{"result":163,"points":2,"place":1,"phase":1,"sequence":12,"prices":[176,187,179,209,163,180,188,165,154,208],"times":[563,545,423,480,1280],"next_num":5,"trial_type":"ticket-choose","trial_index":85,"time_elapsed":1316245,"internal_node_id":"0.0-85.0"},{"result":153,"points":2,"place":1,"phase":1,"sequence":13,"prices":[167,153,172,185,195,143,184,211,177,227],"times":[1531,1839],"next_num":2,"trial_type":"ticket-choose","trial_index":86,"time_elapsed":1322071,"internal_node_id":"0.0-86.0"},{"result":158,"points":2,"place":1,"phase":1,"sequence":14,"prices":[158,175,186,211,177,180,187,166,209,153],"times":[1619],"next_num":1,"trial_type":"ticket-choose","trial_index":87,"time_elapsed":1325574,"internal_node_id":"0.0-87.0"},{"result":165,"points":1,"place":2,"phase":1,"sequence":15,"prices":[185,179,191,165,161,173,199,150,188,168],"times":[832,595,521,1124],"next_num":4,"trial_type":"ticket-choose","trial_index":88,"time_elapsed":1331543,"internal_node_id":"0.0-88.0"},{"result":165,"points":2,"place":1,"phase":1,"sequence":16,"prices":[193,174,224,165,187,190,224,161,194,195],"times":[573,531,441,1115],"next_num":4,"trial_type":"ticket-choose","trial_index":89,"time_elapsed":1336849,"internal_node_id":"0.0-89.0"},{"result":163,"points":2,"place":1,"phase":1,"sequence":17,"prices":[176,175,186,210,163,179,187,166,153,208],"times":[1248,532,716,602,1250],"next_num":5,"trial_type":"ticket-choose","trial_index":90,"time_elapsed":1344187,"internal_node_id":"0.0-90.0"},{"result":165,"points":2,"place":1,"phase":1,"sequence":18,"prices":[177,175,187,209,165,180,188,165,154,208],"times":[598,588,508,498,1815],"next_num":5,"trial_type":"ticket-choose","trial_index":91,"time_elapsed":1351071,"internal_node_id":"0.0-91.0"},{"result":163,"points":3,"place":0,"phase":1,"sequence":19,"prices":[163,199,196,199,185,195,227,163,177,166],"times":[1679],"next_num":1,"trial_type":"ticket-choose","trial_index":92,"time_elapsed":1355663,"internal_node_id":"0.0-92.0"},{"result":158,"points":2,"place":1,"phase":1,"sequence":20,"prices":[177,176,187,225,158,181,187,165,208,153],"times":[661,482,517,511,1409],"next_num":5,"trial_type":"ticket-choose","trial_index":93,"time_elapsed":1362065,"internal_node_id":"0.0-93.0"},{"result":158,"points":2,"place":1,"phase":1,"sequence":21,"prices":[177,175,186,209,158,181,188,167,208,154],"times":[841,483,491,541,1191],"next_num":5,"trial_type":"ticket-choose","trial_index":94,"time_elapsed":1368470,"internal_node_id":"0.0-94.0"},{"result":163,"points":2,"place":1,"phase":1,"sequence":22,"prices":[163,175,186,214,176,179,187,166,153,208],"times":[1666],"next_num":1,"trial_type":"ticket-choose","trial_index":95,"time_elapsed":1372160,"internal_node_id":"0.0-95.0"},{"result":165,"points":3,"place":0,"phase":1,"sequence":23,"prices":[189,167,180,197,165,168,172,213,178,171],"times":[726,1516,470,537,1630],"next_num":5,"trial_type":"ticket-choose","trial_index":96,"time_elapsed":1379952,"internal_node_id":"0.0-96.0"},{"result":163,"points":2,"place":1,"phase":1,"sequence":24,"prices":[176,186,178,217,163,181,187,166,153,209],"times":[921,491,469,475,1235],"next_num":5,"trial_type":"ticket-choose","trial_index":97,"time_elapsed":1386350,"internal_node_id":"0.0-97.0"},{"result":165,"points":3,"place":0,"phase":1,"sequence":25,"prices":[196,171,170,184,187,165,211,169,201,202],"times":[504,405,440,419,738,1241],"next_num":6,"trial_type":"ticket-choose","trial_index":98,"time_elapsed":1393840,"internal_node_id":"0.0-98.0"},{"result":166,"points":1,"place":2,"phase":1,"sequence":26,"prices":[163,174,186,212,176,181,187,166,153,209],"times":[504,943,548,1093,1029,703,518,1440],"next_num":8,"trial_type":"ticket-choose","trial_index":99,"time_elapsed":1403979,"internal_node_id":"0.0-99.0"},{"result":157,"points":3,"place":0,"phase":1,"sequence":27,"prices":[201,187,157,184,198,179,188,185,178,170],"times":[5588,648,1375],"next_num":3,"trial_type":"ticket-choose","trial_index":100,"time_elapsed":1413868,"internal_node_id":"0.0-100.0"},{"result":165,"points":1,"place":2,"phase":1,"sequence":28,"prices":[200,173,182,169,207,165,152,202,161,204],"times":[686,507,559,598,499,1102],"next_num":6,"trial_type":"ticket-choose","trial_index":101,"time_elapsed":1420924,"internal_node_id":"0.0-101.0"},{"result":156,"points":3,"place":0,"phase":1,"sequence":29,"prices":[178,175,185,215,167,181,186,168,208,156],"times":[613,463,548,477,899,481,572,961,2018,1068],"next_num":10,"trial_type":"ticket-choose","trial_index":102,"time_elapsed":1433401,"internal_node_id":"0.0-102.0"},{"result":156,"points":3,"place":0,"phase":1,"sequence":30,"prices":[167,175,185,224,178,181,186,168,208,156],"times":[997,419,480,539,567,738,613,885,654,806],"next_num":10,"trial_type":"ticket-choose","trial_index":103,"time_elapsed":1444078,"internal_node_id":"0.0-103.0"},{"result":151,"points":3,"place":0,"phase":1,"sequence":31,"prices":[199,193,169,165,202,182,151,164,176,171],"times":[688,564,713,482,546,532,1377],"next_num":7,"trial_type":"ticket-choose","trial_index":104,"time_elapsed":1452201,"internal_node_id":"0.0-104.0"},{"result":165,"points":3,"place":0,"phase":1,"sequence":32,"prices":[193,181,175,181,185,165,224,199,218,184],"times":[487,454,684,552,549,1273],"next_num":6,"trial_type":"ticket-choose","trial_index":105,"time_elapsed":1460088,"internal_node_id":"0.0-105.0"},{"result":165,"points":2,"place":1,"phase":1,"sequence":33,"prices":[191,170,182,165,175,182,203,157,195,200],"times":[654,451,448,1538],"next_num":4,"trial_type":"ticket-choose","trial_index":106,"time_elapsed":1466444,"internal_node_id":"0.0-106.0"},{"result":186,"points":1,"place":4,"phase":1,"sequence":34,"prices":[220,173,201,197,169,205,198,183,178,186],"times":[549,509,490,509,990,651,666,573,606,1243],"next_num":10,"trial_type":"ticket-choose","trial_index":107,"time_elapsed":1477058,"internal_node_id":"0.0-107.0"},{"result":167,"points":2,"place":1,"phase":1,"sequence":35,"prices":[178,175,186,212,167,179,187,169,209,153],"times":[775,495,455,503,1079],"next_num":5,"trial_type":"ticket-choose","trial_index":108,"time_elapsed":1483004,"internal_node_id":"0.0-108.0"},{"result":165,"points":1,"place":2,"phase":1,"sequence":36,"prices":[163,175,187,209,176,180,188,165,154,208],"times":[429,479,578,462,565,515,584,1221],"next_num":8,"trial_type":"ticket-choose","trial_index":109,"time_elapsed":1491274,"internal_node_id":"0.0-109.0"},{"result":159,"points":1,"place":2,"phase":1,"sequence":37,"prices":[181,159,149,175,185,151,163,174,178,207],"times":[732,1450],"next_num":2,"trial_type":"ticket-choose","trial_index":110,"time_elapsed":1495559,"internal_node_id":"0.0-110.0"},{"result":208,"points":0,"place":8,"phase":1,"sequence":38,"prices":[165,175,187,209,177,180,188,167,154,208],"times":[529,513,484,398,345,604,546,1502,555,1583],"next_num":10,"trial_type":"ticket-choose","trial_index":111,"time_elapsed":1506671,"internal_node_id":"0.0-111.0"},{"result":152,"points":3,"place":0,"phase":1,"sequence":39,"prices":[200,180,203,152,175,170,160,154,176,191],"times":[690,1502,530,1188],"next_num":4,"trial_type":"ticket-choose","trial_index":112,"time_elapsed":1513249,"internal_node_id":"0.0-112.0"},{"result":158,"points":3,"place":0,"phase":1,"sequence":40,"prices":[214,184,226,192,215,158,199,175,176,208],"times":[923,499,567,470,560,1257],"next_num":6,"trial_type":"ticket-choose","trial_index":113,"time_elapsed":1520523,"internal_node_id":"0.0-113.0"},{"result":169,"points":0,"place":5,"phase":1,"sequence":41,"prices":[171,169,186,165,163,167,220,148,187,165],"times":[668,2049],"next_num":2,"trial_type":"ticket-choose","trial_index":114,"time_elapsed":1525444,"internal_node_id":"0.0-114.0"},{"result":165,"points":2,"place":1,"phase":1,"sequence":42,"prices":[165,174,186,212,177,181,187,166,153,209],"times":[1134],"next_num":1,"trial_type":"ticket-choose","trial_index":115,"time_elapsed":1528327,"internal_node_id":"0.0-115.0"},{"result":156,"points":3,"place":0,"phase":1,"sequence":43,"prices":[178,174,186,217,167,181,188,168,208,156],"times":[502,480,578,533,578,515,2389,1321,558,1036],"next_num":10,"trial_type":"ticket-choose","trial_index":116,"time_elapsed":1541798,"internal_node_id":"0.0-116.0"},{"result":158,"points":2,"place":1,"phase":1,"sequence":44,"prices":[177,175,186,221,158,180,187,166,209,153],"times":[635,486,463,493,1048],"next_num":5,"trial_type":"ticket-choose","trial_index":117,"time_elapsed":1547755,"internal_node_id":"0.0-117.0"},{"result":150,"points":3,"place":0,"phase":1,"sequence":45,"prices":[190,150,175,161,188,207,157,194,178,199],"times":[723,1618],"next_num":2,"trial_type":"ticket-choose","trial_index":118,"time_elapsed":1552485,"internal_node_id":"0.0-118.0"},{"result":182,"points":0,"place":6,"phase":1,"sequence":46,"prices":[181,214,169,147,182,193,178,184,176,179],"times":[667,492,720,561,1578],"next_num":5,"trial_type":"ticket-choose","trial_index":119,"time_elapsed":1559345,"internal_node_id":"0.0-119.0"},{"result":165,"points":3,"place":0,"phase":1,"sequence":47,"prices":[192,172,171,178,188,165,217,168,195,197],"times":[679,703,663,592,567,1163],"next_num":6,"trial_type":"ticket-choose","trial_index":120,"time_elapsed":1567296,"internal_node_id":"0.0-120.0"},{"result":156,"points":2,"place":1,"phase":1,"sequence":48,"prices":[180,156,149,160,168,186,172,198,176,195],"times":[936,1082],"next_num":2,"trial_type":"ticket-choose","trial_index":121,"time_elapsed":1571448,"internal_node_id":"0.0-121.0"},{"result":168,"points":1,"place":2,"phase":1,"sequence":49,"prices":[167,174,186,211,178,181,188,168,208,156],"times":[1647,570,615,514,558,531,677,1398],"next_num":8,"trial_type":"ticket-choose","trial_index":122,"time_elapsed":1581848,"internal_node_id":"0.0-122.0"},{"responses":[{"value":6,"offby":5,"category":"$115 - $130","category_index":0},{"value":10,"offby":5,"category":"$131 - $145","category_index":1},{"value":12,"offby":0,"category":"$146 - $160","category_index":2},{"value":18,"offby":-4,"category":"$161 - $175","category_index":3},{"value":30,"offby":-4,"category":"$176 - $190","category_index":4},{"value":18,"offby":3,"category":"$191 - $205","category_index":5},{"value":6,"offby":-5,"category":"$206 - $220","category_index":6}],"phase":1,"number":1,"trial_type":"bar-choose","trial_index":123,"time_elapsed":1633478,"internal_node_id":"0.0-123.0"},{"special_comment":"No","trial_type":"special_sequence","trial_index":124,"time_elapsed":1639705,"internal_node_id":"0.0-124.0"},{"during":"Nothing","bonus":276,"trial_type":"final","trial_index":125,"time_elapsed":1667378,"internal_node_id":"0.0-125.0"}],"bonus":276}