{"start_time":"2017-05-24 09:35:45","end_time":"2017-05-24 09:57:47","points_phase0":109,"points_phase1":115,"phase_order":1,"age":40,"gender":"m","tries":1,"during":"Nothing","worker_id":"A2GB0RI43KU4Z","assignment_id":"3PW9OPU9PRD0BHY4D6L5VISHTNR128","data":[{"rt":14011,"url":"\/christiane\/tickets\/utils\/consent.html","trial_type":"html","trial_index":0,"time_elapsed":14170,"internal_node_id":"0.0-0.0"},{"age":40,"gender":"m","trial_type":"age","trial_index":1,"time_elapsed":19097,"internal_node_id":"0.0-1.0"},{"worker_id":"A2GB0RI43KU4Z","trial_type":"workerid","trial_index":2,"time_elapsed":29759,"internal_node_id":"0.0-2.0"},{"tries":1,"trial_type":"instructions_check","trial_index":3,"time_elapsed":45940,"internal_node_id":"0.0-3.0"},{"rt":7466,"url":"\/christiane\/tickets\/utils\/start.html","trial_type":"html","trial_index":4,"time_elapsed":54531,"internal_node_id":"0.0-4.0"},{"trial_type":"number-animation","trial_index":5,"time_elapsed":88589,"internal_node_id":"0.0-5.0"},{"phase":0,"sequence":0,"avg":181,"response":180,"trial_type":"training_avg","trial_index":6,"time_elapsed":97517,"internal_node_id":"0.0-6.0"},{"trial_type":"number-animation","trial_index":7,"time_elapsed":121760,"internal_node_id":"0.0-7.0"},{"phase":0,"sequence":1,"avg":188,"response":204,"trial_type":"training_avg","trial_index":8,"time_elapsed":130335,"internal_node_id":"0.0-8.0"},{"trial_type":"number-animation","trial_index":9,"time_elapsed":151619,"internal_node_id":"0.0-9.0"},{"phase":0,"sequence":2,"avg":188,"response":185,"trial_type":"training_avg","trial_index":10,"time_elapsed":157243,"internal_node_id":"0.0-10.0"},{"trial_type":"number-animation","trial_index":11,"time_elapsed":183495,"internal_node_id":"0.0-11.0"},{"phase":0,"sequence":3,"avg":177,"response":167,"trial_type":"training_avg","trial_index":12,"time_elapsed":189663,"internal_node_id":"0.0-12.0"},{"trial_type":"number-animation","trial_index":13,"time_elapsed":217217,"internal_node_id":"0.0-13.0"},{"phase":0,"sequence":4,"avg":182,"response":170,"trial_type":"training_avg","trial_index":14,"time_elapsed":222609,"internal_node_id":"0.0-14.0"},{"responses":[{"value":3,"offby":2,"category":"$115 - $130","category_index":0},{"value":7,"offby":2,"category":"$131 - $145","category_index":1},{"value":20,"offby":8,"category":"$146 - $160","category_index":2},{"value":35,"offby":13,"category":"$161 - $175","category_index":3},{"value":24,"offby":-10,"category":"$176 - $190","category_index":4},{"value":6,"offby":-9,"category":"$191 - $205","category_index":5},{"value":5,"offby":-6,"category":"$206 - $220","category_index":6}],"phase":0,"number":0,"trial_type":"bar-choose","trial_index":15,"time_elapsed":298298,"internal_node_id":"0.0-15.0"},{"rt":7725,"url":"\/christiane\/tickets\/utils\/testing.html","trial_type":"html","trial_index":16,"time_elapsed":307156,"internal_node_id":"0.0-16.0"},{"phase":0,"order":[2,28,27,5,11,39,17,12,20,35,36,6,37,40,1,0,29,46,26,7,16,30,42,45,25,48,33,10,31,49,34,32,9,41,44,4,3,19,24,43,38,14,21,22,8,15,13,23,47,18],"trial_type":"store_order","trial_index":17,"time_elapsed":308157,"internal_node_id":"0.0-17.0"},{"result":165,"points":2,"place":1,"phase":0,"sequence":-1,"prices":[184,180,224,165,181,199,185,193,218,146],"times":[1802,743,807,1591],"next_num":4,"trial_type":"ticket-choose","trial_index":18,"time_elapsed":316011,"internal_node_id":"0.0-18.0"},{"rt":12440,"url":"\/christiane\/tickets\/utils\/testing_after.html","trial_type":"html","trial_index":19,"time_elapsed":329585,"internal_node_id":"0.0-19.0"},{"result":169,"points":1,"place":2,"phase":0,"sequence":0,"prices":[167,175,186,225,178,179,187,169,209,153],"times":[3985,639,590,566,636,607,621,2958],"next_num":8,"trial_type":"ticket-choose","trial_index":20,"time_elapsed":344174,"internal_node_id":"0.0-20.0"},{"result":158,"points":2,"place":1,"phase":0,"sequence":1,"prices":[158,175,186,209,177,181,188,167,208,154],"times":[1077],"next_num":1,"trial_type":"ticket-choose","trial_index":21,"time_elapsed":347286,"internal_node_id":"0.0-21.0"},{"result":158,"points":2,"place":1,"phase":0,"sequence":2,"prices":[158,175,186,211,177,180,187,166,209,153],"times":[972],"next_num":1,"trial_type":"ticket-choose","trial_index":22,"time_elapsed":350301,"internal_node_id":"0.0-22.0"},{"result":163,"points":3,"place":0,"phase":0,"sequence":3,"prices":[163,199,196,199,185,195,227,163,177,166],"times":[2346],"next_num":1,"trial_type":"ticket-choose","trial_index":23,"time_elapsed":356060,"internal_node_id":"0.0-23.0"},{"result":163,"points":2,"place":1,"phase":0,"sequence":4,"prices":[163,175,186,214,176,179,187,166,153,208],"times":[1051],"next_num":1,"trial_type":"ticket-choose","trial_index":24,"time_elapsed":359212,"internal_node_id":"0.0-24.0"},{"result":152,"points":3,"place":0,"phase":0,"sequence":5,"prices":[200,180,203,152,175,170,160,154,176,191],"times":[1193,583,583,1021],"next_num":4,"trial_type":"ticket-choose","trial_index":25,"time_elapsed":365371,"internal_node_id":"0.0-25.0"},{"result":147,"points":3,"place":0,"phase":0,"sequence":6,"prices":[181,214,169,147,182,193,178,184,176,179],"times":[1189,583,3214,1949],"next_num":4,"trial_type":"ticket-choose","trial_index":26,"time_elapsed":375145,"internal_node_id":"0.0-26.0"},{"result":165,"points":2,"place":1,"phase":0,"sequence":7,"prices":[187,201,165,172,196,174,178,154,172,180],"times":[996,527,885],"next_num":3,"trial_type":"ticket-choose","trial_index":27,"time_elapsed":379993,"internal_node_id":"0.0-27.0"},{"result":165,"points":3,"place":0,"phase":0,"sequence":8,"prices":[193,181,175,181,185,165,224,199,218,184],"times":[665,600,1526,806,670,830],"next_num":6,"trial_type":"ticket-choose","trial_index":28,"time_elapsed":388159,"internal_node_id":"0.0-28.0"},{"result":158,"points":2,"place":1,"phase":0,"sequence":9,"prices":[158,176,187,210,177,181,187,165,208,153],"times":[2645],"next_num":1,"trial_type":"ticket-choose","trial_index":29,"time_elapsed":392870,"internal_node_id":"0.0-29.0"},{"result":166,"points":1,"place":2,"phase":0,"sequence":10,"prices":[165,175,186,214,177,179,187,166,153,208],"times":[1431,735,630,783,855,695,807,1456],"next_num":8,"trial_type":"ticket-choose","trial_index":30,"time_elapsed":403829,"internal_node_id":"0.0-30.0"},{"result":165,"points":1,"place":2,"phase":0,"sequence":11,"prices":[185,179,191,165,161,173,199,150,188,168],"times":[1020,693,607,972],"next_num":4,"trial_type":"ticket-choose","trial_index":31,"time_elapsed":409756,"internal_node_id":"0.0-31.0"},{"result":165,"points":1,"place":2,"phase":0,"sequence":12,"prices":[171,169,186,165,163,167,220,148,187,165],"times":[1474,991,692,1070],"next_num":4,"trial_type":"ticket-choose","trial_index":32,"time_elapsed":416667,"internal_node_id":"0.0-32.0"},{"result":158,"points":2,"place":1,"phase":0,"sequence":13,"prices":[177,175,186,221,158,180,187,166,209,153],"times":[1602,580,663,590,942],"next_num":5,"trial_type":"ticket-choose","trial_index":33,"time_elapsed":423793,"internal_node_id":"0.0-33.0"},{"result":158,"points":2,"place":1,"phase":0,"sequence":14,"prices":[177,175,186,209,158,181,188,167,208,154],"times":[570,528,632,670,894],"next_num":5,"trial_type":"ticket-choose","trial_index":34,"time_elapsed":429857,"internal_node_id":"0.0-34.0"},{"result":167,"points":2,"place":1,"phase":0,"sequence":15,"prices":[178,175,185,215,167,181,186,168,208,156],"times":[812,590,694,599,2726],"next_num":5,"trial_type":"ticket-choose","trial_index":35,"time_elapsed":438008,"internal_node_id":"0.0-35.0"},{"result":165,"points":3,"place":0,"phase":0,"sequence":16,"prices":[192,172,171,178,188,165,217,168,195,197],"times":[626,512,599,607,614,991],"next_num":6,"trial_type":"ticket-choose","trial_index":36,"time_elapsed":445135,"internal_node_id":"0.0-36.0"},{"result":167,"points":2,"place":1,"phase":0,"sequence":17,"prices":[178,175,186,212,167,179,187,169,209,153],"times":[643,551,599,599,1136],"next_num":5,"trial_type":"ticket-choose","trial_index":37,"time_elapsed":451429,"internal_node_id":"0.0-37.0"},{"result":155,"points":2,"place":1,"phase":0,"sequence":18,"prices":[200,207,155,158,156,168,167,135,178,177],"times":[698,533,958],"next_num":3,"trial_type":"ticket-choose","trial_index":38,"time_elapsed":455949,"internal_node_id":"0.0-38.0"},{"result":159,"points":3,"place":0,"phase":0,"sequence":19,"prices":[183,179,188,165,168,173,205,159,187,191],"times":[542,477,575,3230,677,575,701,1070],"next_num":8,"trial_type":"ticket-choose","trial_index":39,"time_elapsed":467427,"internal_node_id":"0.0-39.0"},{"result":156,"points":2,"place":1,"phase":0,"sequence":20,"prices":[180,156,149,160,168,186,172,198,176,195],"times":[579,1917],"next_num":2,"trial_type":"ticket-choose","trial_index":40,"time_elapsed":472202,"internal_node_id":"0.0-40.0"},{"result":159,"points":1,"place":2,"phase":0,"sequence":21,"prices":[181,159,149,175,185,151,163,174,178,207],"times":[639,896],"next_num":2,"trial_type":"ticket-choose","trial_index":41,"time_elapsed":475850,"internal_node_id":"0.0-41.0"},{"result":163,"points":1,"place":2,"phase":0,"sequence":22,"prices":[173,163,185,181,166,148,160,185,176,184],"times":[641,2910],"next_num":2,"trial_type":"ticket-choose","trial_index":42,"time_elapsed":481785,"internal_node_id":"0.0-42.0"},{"result":163,"points":2,"place":1,"phase":0,"sequence":23,"prices":[176,186,178,217,163,181,187,166,153,209],"times":[608,583,652,628,1343],"next_num":5,"trial_type":"ticket-choose","trial_index":43,"time_elapsed":488376,"internal_node_id":"0.0-43.0"},{"result":165,"points":3,"place":0,"phase":0,"sequence":24,"prices":[189,167,180,197,165,168,172,213,178,171],"times":[763,1550,653,630,1222],"next_num":5,"trial_type":"ticket-choose","trial_index":44,"time_elapsed":496207,"internal_node_id":"0.0-44.0"},{"result":153,"points":3,"place":0,"phase":0,"sequence":25,"prices":[165,174,186,212,177,181,187,166,153,209],"times":[586,639,582,631,599,610,670,2365,855],"next_num":9,"trial_type":"ticket-choose","trial_index":45,"time_elapsed":507469,"internal_node_id":"0.0-45.0"},{"result":165,"points":1,"place":2,"phase":0,"sequence":26,"prices":[163,175,187,209,176,180,188,165,154,208],"times":[1699,559,542,478,542,667,575,3637],"next_num":8,"trial_type":"ticket-choose","trial_index":46,"time_elapsed":519796,"internal_node_id":"0.0-46.0"},{"result":167,"points":2,"place":1,"phase":0,"sequence":27,"prices":[199,191,188,174,167,193,189,164,176,170],"times":[713,666,639,1054,2997],"next_num":5,"trial_type":"ticket-choose","trial_index":47,"time_elapsed":528786,"internal_node_id":"0.0-47.0"},{"result":165,"points":2,"place":1,"phase":0,"sequence":28,"prices":[177,175,186,210,165,179,187,166,153,208],"times":[907,550,614,622,964],"next_num":5,"trial_type":"ticket-choose","trial_index":48,"time_elapsed":535145,"internal_node_id":"0.0-48.0"},{"result":165,"points":2,"place":1,"phase":0,"sequence":29,"prices":[177,175,187,209,165,180,188,165,154,208],"times":[724,637,638,571,2013],"next_num":5,"trial_type":"ticket-choose","trial_index":49,"time_elapsed":542455,"internal_node_id":"0.0-49.0"},{"result":156,"points":3,"place":0,"phase":0,"sequence":30,"prices":[167,175,185,224,178,181,186,168,208,156],"times":[1762,695,639,582,623,631,638,1515,973,799],"next_num":10,"trial_type":"ticket-choose","trial_index":50,"time_elapsed":555286,"internal_node_id":"0.0-50.0"},{"result":150,"points":3,"place":0,"phase":0,"sequence":31,"prices":[190,150,175,161,188,207,157,194,178,199],"times":[684,1638],"next_num":2,"trial_type":"ticket-choose","trial_index":51,"time_elapsed":559837,"internal_node_id":"0.0-51.0"},{"result":157,"points":3,"place":0,"phase":0,"sequence":32,"prices":[201,187,157,184,198,179,188,185,178,170],"times":[636,486,935],"next_num":3,"trial_type":"ticket-choose","trial_index":52,"time_elapsed":564181,"internal_node_id":"0.0-52.0"},{"result":163,"points":2,"place":1,"phase":0,"sequence":33,"prices":[176,187,179,209,163,180,188,165,154,208],"times":[824,638,765,591,829],"next_num":5,"trial_type":"ticket-choose","trial_index":53,"time_elapsed":570547,"internal_node_id":"0.0-53.0"},{"result":165,"points":2,"place":1,"phase":0,"sequence":34,"prices":[193,174,224,165,187,190,224,161,194,195],"times":[493,479,575,928],"next_num":4,"trial_type":"ticket-choose","trial_index":54,"time_elapsed":575507,"internal_node_id":"0.0-54.0"},{"result":165,"points":2,"place":1,"phase":0,"sequence":35,"prices":[201,204,179,166,185,165,214,156,202,165],"times":[489,600,721,2083,639,1406],"next_num":6,"trial_type":"ticket-choose","trial_index":55,"time_elapsed":584482,"internal_node_id":"0.0-55.0"},{"result":153,"points":3,"place":0,"phase":0,"sequence":36,"prices":[176,175,186,210,163,179,187,166,153,208],"times":[714,574,663,589,3493,647,671,910,870],"next_num":9,"trial_type":"ticket-choose","trial_index":56,"time_elapsed":597359,"internal_node_id":"0.0-56.0"},{"result":167,"points":2,"place":1,"phase":0,"sequence":37,"prices":[178,174,186,217,167,181,188,168,208,156],"times":[635,901,531,558,2206],"next_num":5,"trial_type":"ticket-choose","trial_index":57,"time_elapsed":604910,"internal_node_id":"0.0-57.0"},{"result":165,"points":1,"place":2,"phase":0,"sequence":38,"prices":[199,193,169,165,202,182,151,164,176,171],"times":[604,504,1423,1958],"next_num":4,"trial_type":"ticket-choose","trial_index":58,"time_elapsed":611949,"internal_node_id":"0.0-58.0"},{"result":165,"points":1,"place":2,"phase":0,"sequence":39,"prices":[200,173,182,169,207,165,152,202,161,204],"times":[682,536,525,816,586,2862],"next_num":6,"trial_type":"ticket-choose","trial_index":59,"time_elapsed":620932,"internal_node_id":"0.0-59.0"},{"result":157,"points":3,"place":0,"phase":0,"sequence":40,"prices":[191,170,182,165,175,182,203,157,195,200],"times":[540,614,615,959,619,724,638,991],"next_num":8,"trial_type":"ticket-choose","trial_index":60,"time_elapsed":630146,"internal_node_id":"0.0-60.0"},{"result":154,"points":3,"place":0,"phase":0,"sequence":41,"prices":[165,175,187,209,177,180,188,167,154,208],"times":[1263,896,611,614,534,606,678,862,863],"next_num":9,"trial_type":"ticket-choose","trial_index":61,"time_elapsed":640913,"internal_node_id":"0.0-61.0"},{"result":153,"points":3,"place":0,"phase":0,"sequence":42,"prices":[177,174,186,217,165,181,187,166,153,209],"times":[1247,564,616,598,1176,576,563,792,888],"next_num":9,"trial_type":"ticket-choose","trial_index":62,"time_elapsed":651735,"internal_node_id":"0.0-62.0"},{"result":153,"points":2,"place":1,"phase":0,"sequence":43,"prices":[167,153,172,185,195,143,184,211,177,227],"times":[728,1526],"next_num":2,"trial_type":"ticket-choose","trial_index":63,"time_elapsed":656118,"internal_node_id":"0.0-63.0"},{"result":158,"points":2,"place":1,"phase":0,"sequence":44,"prices":[177,176,187,225,158,181,187,165,208,153],"times":[635,615,614,559,1040],"next_num":5,"trial_type":"ticket-choose","trial_index":64,"time_elapsed":662270,"internal_node_id":"0.0-64.0"},{"result":153,"points":3,"place":0,"phase":0,"sequence":45,"prices":[163,174,186,212,176,181,187,166,153,209],"times":[1321,727,559,510,541,621,599,695,1030],"next_num":9,"trial_type":"ticket-choose","trial_index":65,"time_elapsed":672652,"internal_node_id":"0.0-65.0"},{"result":186,"points":1,"place":4,"phase":0,"sequence":46,"prices":[220,173,201,197,169,205,198,183,178,186],"times":[4722,935,584,543,550,614,679,1303,1694,1710],"next_num":10,"trial_type":"ticket-choose","trial_index":66,"time_elapsed":690465,"internal_node_id":"0.0-66.0"},{"result":156,"points":3,"place":0,"phase":0,"sequence":47,"prices":[167,174,186,211,178,181,188,168,208,156],"times":[2112,606,527,631,598,606,909,983,839,846],"next_num":10,"trial_type":"ticket-choose","trial_index":67,"time_elapsed":703055,"internal_node_id":"0.0-67.0"},{"result":158,"points":3,"place":0,"phase":0,"sequence":48,"prices":[214,184,226,192,215,158,199,175,176,208],"times":[747,455,478,655,874,863],"next_num":6,"trial_type":"ticket-choose","trial_index":68,"time_elapsed":710269,"internal_node_id":"0.0-68.0"},{"result":165,"points":3,"place":0,"phase":0,"sequence":49,"prices":[196,171,170,184,187,165,211,169,201,202],"times":[973,590,2382,717,598,894],"next_num":6,"trial_type":"ticket-choose","trial_index":69,"time_elapsed":719580,"internal_node_id":"0.0-69.0"},{"responses":[{"value":1,"offby":0,"category":"$115 - $130","category_index":0},{"value":4,"offby":-1,"category":"$131 - $145","category_index":1},{"value":12,"offby":0,"category":"$146 - $160","category_index":2},{"value":17,"offby":-5,"category":"$161 - $175","category_index":3},{"value":26,"offby":-8,"category":"$176 - $190","category_index":4},{"value":28,"offby":13,"category":"$191 - $205","category_index":5},{"value":12,"offby":1,"category":"$206 - $220","category_index":6}],"phase":1,"number":1,"trial_type":"bar-choose","trial_index":70,"time_elapsed":787460,"internal_node_id":"0.0-70.0"},{"rt":8669,"url":"\/christiane\/tickets\/utils\/testing2.html","trial_type":"point_update","trial_index":71,"time_elapsed":797377,"internal_node_id":"0.0-71.0"},{"phase":1,"order":[2,19,18,38,12,47,48,36,24,20,6,29,31,21,22,4,27,5,41,33,34,44,49,17,39,8,13,45,9,10,1,40,43,16,32,25,15,3,37,26,30,7,11,35,23,14,42,0,46,28],"trial_type":"store_order","trial_index":72,"time_elapsed":798379,"internal_node_id":"0.0-72.0"},{"result":167,"points":2,"place":1,"phase":1,"sequence":0,"prices":[175,186,167,225,179,187,178,169,209,153],"times":[1528,798,3365],"next_num":3,"trial_type":"ticket-choose","trial_index":73,"time_elapsed":806496,"internal_node_id":"0.0-73.0"},{"result":185,"points":1,"place":4,"phase":1,"sequence":1,"prices":[196,165,170,184,187,211,171,201,202,185],"times":[1004,1389,526,311,463,463,471,581,583,1356],"next_num":10,"trial_type":"ticket-choose","trial_index":74,"time_elapsed":817999,"internal_node_id":"0.0-74.0"},{"result":186,"points":1,"place":4,"phase":1,"sequence":2,"prices":[192,165,171,178,188,217,172,195,197,186],"times":[910,1005,463,543,470,575,526,670,653,847],"next_num":10,"trial_type":"ticket-choose","trial_index":75,"time_elapsed":828492,"internal_node_id":"0.0-75.0"},{"result":167,"points":2,"place":1,"phase":1,"sequence":3,"prices":[175,186,178,212,179,187,167,169,209,153],"times":[899,623,701,606,702,700,960],"next_num":7,"trial_type":"ticket-choose","trial_index":76,"time_elapsed":836899,"internal_node_id":"0.0-76.0"},{"result":165,"points":2,"place":1,"phase":1,"sequence":4,"prices":[174,186,177,217,181,187,165,166,153,209],"times":[673,550,582,566,566,550,976],"next_num":7,"trial_type":"ticket-choose","trial_index":77,"time_elapsed":844482,"internal_node_id":"0.0-77.0"},{"result":165,"points":3,"place":0,"phase":1,"sequence":5,"prices":[189,167,180,197,165,168,172,213,178,171],"times":[909,1862,656,598,951],"next_num":5,"trial_type":"ticket-choose","trial_index":78,"time_elapsed":852152,"internal_node_id":"0.0-78.0"},{"result":163,"points":2,"place":1,"phase":1,"sequence":6,"prices":[174,186,176,217,181,187,163,166,153,209],"times":[468,446,692,542,566,687,928],"next_num":7,"trial_type":"ticket-choose","trial_index":79,"time_elapsed":859607,"internal_node_id":"0.0-79.0"},{"result":163,"points":2,"place":1,"phase":1,"sequence":7,"prices":[175,186,163,214,179,187,176,166,153,208],"times":[460,399,863],"next_num":3,"trial_type":"ticket-choose","trial_index":80,"time_elapsed":863558,"internal_node_id":"0.0-80.0"},{"result":158,"points":2,"place":1,"phase":1,"sequence":8,"prices":[176,187,158,210,181,187,177,165,208,153],"times":[547,527,1511],"next_num":3,"trial_type":"ticket-choose","trial_index":81,"time_elapsed":868486,"internal_node_id":"0.0-81.0"},{"result":154,"points":2,"place":1,"phase":1,"sequence":9,"prices":[168,154,172,185,195,144,184,211,177,227],"times":[801,902],"next_num":2,"trial_type":"ticket-choose","trial_index":82,"time_elapsed":872262,"internal_node_id":"0.0-82.0"},{"result":154,"points":3,"place":0,"phase":1,"sequence":10,"prices":[188,200,165,172,198,174,177,154,177,180],"times":[518,679,1155,566,581,687,646,871],"next_num":8,"trial_type":"ticket-choose","trial_index":83,"time_elapsed":881253,"internal_node_id":"0.0-83.0"},{"result":166,"points":1,"place":2,"phase":1,"sequence":11,"prices":[175,186,165,214,179,187,177,166,153,208],"times":[449,448,839,470,551,543,575,2203],"next_num":8,"trial_type":"ticket-choose","trial_index":84,"time_elapsed":890746,"internal_node_id":"0.0-84.0"},{"result":152,"points":3,"place":0,"phase":1,"sequence":12,"prices":[198,193,169,163,202,182,152,164,177,171],"times":[567,319,518,599,824,573,855],"next_num":7,"trial_type":"ticket-choose","trial_index":85,"time_elapsed":898073,"internal_node_id":"0.0-85.0"},{"result":158,"points":2,"place":1,"phase":1,"sequence":13,"prices":[189,150,175,160,188,207,158,194,178,199],"times":[510,318,1161,1187,790,614,951],"next_num":7,"trial_type":"ticket-choose","trial_index":86,"time_elapsed":906760,"internal_node_id":"0.0-86.0"},{"result":156,"points":3,"place":0,"phase":1,"sequence":14,"prices":[175,185,167,224,181,186,178,168,208,156],"times":[596,486,997,614,635,638,646,1783,742,758],"next_num":10,"trial_type":"ticket-choose","trial_index":87,"time_elapsed":918358,"internal_node_id":"0.0-87.0"},{"result":156,"points":3,"place":0,"phase":1,"sequence":15,"prices":[174,186,167,211,181,188,178,168,208,156],"times":[630,536,1119,592,583,550,517,1102,607,712],"next_num":10,"trial_type":"ticket-choose","trial_index":88,"time_elapsed":929013,"internal_node_id":"0.0-88.0"},{"result":165,"points":3,"place":0,"phase":1,"sequence":16,"prices":[185,170,182,201,173,199,171,188,165,168],"times":[701,590,687,622,736,599,648,759,1199],"next_num":9,"trial_type":"ticket-choose","trial_index":89,"time_elapsed":939219,"internal_node_id":"0.0-89.0"},{"result":158,"points":3,"place":0,"phase":1,"sequence":17,"prices":[210,184,226,193,215,158,199,175,176,208],"times":[545,631,590,679,606,975],"next_num":6,"trial_type":"ticket-choose","trial_index":90,"time_elapsed":946123,"internal_node_id":"0.0-90.0"},{"result":161,"points":3,"place":0,"phase":1,"sequence":18,"prices":[200,165,165,173,182,207,161,202,204,180],"times":[667,431,720,622,623,574,965],"next_num":7,"trial_type":"ticket-choose","trial_index":91,"time_elapsed":953801,"internal_node_id":"0.0-91.0"},{"result":154,"points":3,"place":0,"phase":1,"sequence":19,"prices":[175,187,165,209,180,188,177,166,154,208],"times":[612,551,1005,557,556,631,568,901,887],"next_num":9,"trial_type":"ticket-choose","trial_index":92,"time_elapsed":963551,"internal_node_id":"0.0-92.0"},{"result":163,"points":2,"place":1,"phase":1,"sequence":20,"prices":[175,187,176,209,180,188,163,165,154,208],"times":[494,504,531,599,648,612,2471],"next_num":7,"trial_type":"ticket-choose","trial_index":93,"time_elapsed":972534,"internal_node_id":"0.0-93.0"},{"result":165,"points":3,"place":0,"phase":1,"sequence":21,"prices":[191,172,169,175,182,203,170,195,165,176],"times":[527,516,886,606,567,574,582,640,1100],"next_num":9,"trial_type":"ticket-choose","trial_index":94,"time_elapsed":982165,"internal_node_id":"0.0-94.0"},{"result":143,"points":3,"place":0,"phase":1,"sequence":22,"prices":[222,173,202,197,143,205,198,183,178,186],"times":[492,589,541,624,895],"next_num":5,"trial_type":"ticket-choose","trial_index":95,"time_elapsed":987951,"internal_node_id":"0.0-95.0"},{"result":164,"points":3,"place":0,"phase":1,"sequence":23,"prices":[212,192,188,184,167,193,189,164,176,170],"times":[521,566,517,543,774,647,574,1064],"next_num":8,"trial_type":"ticket-choose","trial_index":96,"time_elapsed":996507,"internal_node_id":"0.0-96.0"},{"result":165,"points":2,"place":1,"phase":1,"sequence":24,"prices":[201,165,162,166,185,214,165,202,204,179],"times":[3551,822,550,662,1057,734,3848],"next_num":7,"trial_type":"ticket-choose","trial_index":97,"time_elapsed":1010912,"internal_node_id":"0.0-97.0"},{"result":169,"points":2,"place":1,"phase":1,"sequence":25,"prices":[181,215,169,147,182,193,177,184,176,179],"times":[653,582,990],"next_num":3,"trial_type":"ticket-choose","trial_index":98,"time_elapsed":1015463,"internal_node_id":"0.0-98.0"},{"result":168,"points":1,"place":2,"phase":1,"sequence":26,"prices":[183,182,192,168,173,205,167,187,165,170],"times":[472,559,598,991],"next_num":4,"trial_type":"ticket-choose","trial_index":99,"time_elapsed":1020495,"internal_node_id":"0.0-99.0"},{"result":154,"points":3,"place":0,"phase":1,"sequence":27,"prices":[175,187,177,209,180,188,165,165,154,208],"times":[464,550,543,576,595,566,2309,935,766],"next_num":9,"trial_type":"ticket-choose","trial_index":100,"time_elapsed":1031285,"internal_node_id":"0.0-100.0"},{"result":165,"points":3,"place":0,"phase":1,"sequence":28,"prices":[171,203,175,170,167,220,192,186,165,165],"times":[621,519,558,966,1365,581,607,710,1015],"next_num":9,"trial_type":"ticket-choose","trial_index":101,"time_elapsed":1041748,"internal_node_id":"0.0-101.0"},{"result":148,"points":3,"place":0,"phase":1,"sequence":29,"prices":[183,163,185,180,166,148,160,186,176,184],"times":[603,422,503,567,751,1983],"next_num":6,"trial_type":"ticket-choose","trial_index":102,"time_elapsed":1049562,"internal_node_id":"0.0-102.0"},{"result":194,"points":0,"place":8,"phase":1,"sequence":30,"prices":[181,155,148,161,168,187,172,199,176,194],"times":[586,383,533,1990,807,694,727,767,999,1302],"next_num":10,"trial_type":"ticket-choose","trial_index":103,"time_elapsed":1062472,"internal_node_id":"0.0-103.0"},{"result":165,"points":3,"place":0,"phase":1,"sequence":31,"prices":[193,169,171,187,190,224,174,194,165,188],"times":[1223,535,936,584,575,588,750,1070,918],"next_num":9,"trial_type":"ticket-choose","trial_index":104,"time_elapsed":1073447,"internal_node_id":"0.0-104.0"},{"result":153,"points":3,"place":0,"phase":1,"sequence":32,"prices":[175,186,177,210,179,187,165,166,153,208],"times":[1012,550,591,607,600,647,2071,848,1079],"next_num":9,"trial_type":"ticket-choose","trial_index":105,"time_elapsed":1085213,"internal_node_id":"0.0-105.0"},{"result":155,"points":2,"place":1,"phase":1,"sequence":33,"prices":[201,207,155,158,156,165,167,135,178,177],"times":[726,496,1046],"next_num":3,"trial_type":"ticket-choose","trial_index":106,"time_elapsed":1089716,"internal_node_id":"0.0-106.0"},{"result":159,"points":1,"place":2,"phase":1,"sequence":34,"prices":[180,159,149,175,185,141,163,174,178,207],"times":[830,942],"next_num":2,"trial_type":"ticket-choose","trial_index":107,"time_elapsed":1093419,"internal_node_id":"0.0-107.0"},{"result":156,"points":3,"place":0,"phase":1,"sequence":35,"prices":[175,185,178,215,181,186,167,168,208,156],"times":[630,557,566,526,583,567,533,1031,766,734],"next_num":10,"trial_type":"ticket-choose","trial_index":108,"time_elapsed":1103722,"internal_node_id":"0.0-108.0"},{"result":167,"points":2,"place":1,"phase":1,"sequence":36,"prices":[174,186,178,217,181,188,167,168,208,156],"times":[735,526,536,568,542,565,2278],"next_num":7,"trial_type":"ticket-choose","trial_index":109,"time_elapsed":1112592,"internal_node_id":"0.0-109.0"},{"result":158,"points":2,"place":1,"phase":1,"sequence":37,"prices":[175,186,158,209,181,188,177,167,208,154],"times":[684,501,1727],"next_num":3,"trial_type":"ticket-choose","trial_index":110,"time_elapsed":1117744,"internal_node_id":"0.0-110.0"},{"result":184,"points":1,"place":4,"phase":1,"sequence":38,"prices":[193,165,175,181,185,224,180,199,218,184],"times":[832,1345,556,552,511,566,550,582,592,1031],"next_num":10,"trial_type":"ticket-choose","trial_index":111,"time_elapsed":1128694,"internal_node_id":"0.0-111.0"},{"result":157,"points":3,"place":0,"phase":1,"sequence":39,"prices":[201,187,157,184,198,179,188,185,178,170],"times":[665,461,910],"next_num":3,"trial_type":"ticket-choose","trial_index":112,"time_elapsed":1132925,"internal_node_id":"0.0-112.0"},{"result":163,"points":3,"place":0,"phase":1,"sequence":40,"prices":[168,199,196,198,185,195,227,163,177,166],"times":[470,527,534,519,671,615,615,880],"next_num":8,"trial_type":"ticket-choose","trial_index":113,"time_elapsed":1141012,"internal_node_id":"0.0-113.0"},{"result":163,"points":2,"place":1,"phase":1,"sequence":41,"prices":[174,186,163,212,181,187,176,166,153,209],"times":[609,459,960],"next_num":3,"trial_type":"ticket-choose","trial_index":114,"time_elapsed":1145284,"internal_node_id":"0.0-114.0"},{"result":158,"points":2,"place":1,"phase":1,"sequence":42,"prices":[175,186,177,221,180,187,158,166,209,153],"times":[432,472,495,550,551,591,887],"next_num":7,"trial_type":"ticket-choose","trial_index":115,"time_elapsed":1152283,"internal_node_id":"0.0-115.0"},{"result":158,"points":2,"place":1,"phase":1,"sequence":43,"prices":[175,186,177,209,181,188,158,167,208,154],"times":[447,615,526,525,766,567,919],"next_num":7,"trial_type":"ticket-choose","trial_index":116,"time_elapsed":1159642,"internal_node_id":"0.0-116.0"},{"result":153,"points":3,"place":0,"phase":1,"sequence":44,"prices":[174,186,165,212,181,187,177,167,153,209],"times":[706,536,1550,580,543,558,558,742,910],"next_num":9,"trial_type":"ticket-choose","trial_index":117,"time_elapsed":1169840,"internal_node_id":"0.0-117.0"},{"result":163,"points":2,"place":1,"phase":1,"sequence":45,"prices":[175,186,176,210,179,187,163,166,153,208],"times":[498,516,583,518,629,646,999],"next_num":7,"trial_type":"ticket-choose","trial_index":118,"time_elapsed":1177351,"internal_node_id":"0.0-118.0"},{"result":154,"points":3,"place":0,"phase":1,"sequence":46,"prices":[175,187,163,209,180,188,176,165,154,208],"times":[527,501,1039,519,606,559,559,974,944],"next_num":9,"trial_type":"ticket-choose","trial_index":119,"time_elapsed":1187069,"internal_node_id":"0.0-119.0"},{"result":158,"points":2,"place":1,"phase":1,"sequence":47,"prices":[176,187,177,225,181,187,158,165,208,153],"times":[493,511,862,543,534,582,896],"next_num":7,"trial_type":"ticket-choose","trial_index":120,"time_elapsed":1194540,"internal_node_id":"0.0-120.0"},{"result":152,"points":3,"place":0,"phase":1,"sequence":48,"prices":[200,181,203,152,175,171,160,154,176,191],"times":[574,551,551,941],"next_num":4,"trial_type":"ticket-choose","trial_index":121,"time_elapsed":1199660,"internal_node_id":"0.0-121.0"},{"result":158,"points":2,"place":1,"phase":1,"sequence":49,"prices":[175,186,158,211,180,187,177,166,209,153],"times":[948,471,1935],"next_num":3,"trial_type":"ticket-choose","trial_index":122,"time_elapsed":1205371,"internal_node_id":"0.0-122.0"},{"responses":[{"value":1,"offby":0,"category":"$115 - $130","category_index":0},{"value":3,"offby":-2,"category":"$131 - $145","category_index":1},{"value":7,"offby":-5,"category":"$146 - $160","category_index":2},{"value":11,"offby":-11,"category":"$161 - $175","category_index":3},{"value":37,"offby":3,"category":"$176 - $190","category_index":4},{"value":33,"offby":18,"category":"$191 - $205","category_index":5},{"value":8,"offby":-3,"category":"$206 - $220","category_index":6}],"phase":1,"number":1,"trial_type":"bar-choose","trial_index":123,"time_elapsed":1266596,"internal_node_id":"0.0-123.0"},{"special_comment":"Um, well, no. ","trial_type":"special_sequence","trial_index":124,"time_elapsed":1279832,"internal_node_id":"0.0-124.0"},{"during":"Nothing","bonus":300,"trial_type":"final","trial_index":125,"time_elapsed":1319332,"internal_node_id":"0.0-125.0"}],"bonus":300}