{"start_time":"2017-05-24 15:26:29","end_time":"2017-05-24 15:48:21","points_phase0":100,"points_phase1":108,"phase_order":1,"age":40,"gender":"f","tries":1,"during":"Nothing","worker_id":"A2I4A4WGWII18Z","assignment_id":"3IHR8NYAM8UDVNWT2MFJPT7DGJQ4PC","data":[{"rt":34676,"url":"\/christiane\/tickets\/utils\/consent.html","trial_type":"html","trial_index":0,"time_elapsed":35021,"internal_node_id":"0.0-0.0"},{"age":40,"gender":"f","trial_type":"age","trial_index":1,"time_elapsed":41757,"internal_node_id":"0.0-1.0"},{"worker_id":"A2I4A4WGWII18Z","trial_type":"workerid","trial_index":2,"time_elapsed":50012,"internal_node_id":"0.0-2.0"},{"tries":1,"trial_type":"instructions_check","trial_index":3,"time_elapsed":73781,"internal_node_id":"0.0-3.0"},{"rt":10325,"url":"\/christiane\/tickets\/utils\/start.html","trial_type":"html","trial_index":4,"time_elapsed":86152,"internal_node_id":"0.0-4.0"},{"trial_type":"number-animation","trial_index":5,"time_elapsed":101151,"internal_node_id":"0.0-5.0"},{"phase":0,"sequence":0,"avg":181,"response":180,"trial_type":"training_avg","trial_index":6,"time_elapsed":114915,"internal_node_id":"0.0-6.0"},{"trial_type":"number-animation","trial_index":7,"time_elapsed":129815,"internal_node_id":"0.0-7.0"},{"phase":0,"sequence":1,"avg":188,"response":185,"trial_type":"training_avg","trial_index":8,"time_elapsed":138708,"internal_node_id":"0.0-8.0"},{"trial_type":"number-animation","trial_index":9,"time_elapsed":149517,"internal_node_id":"0.0-9.0"},{"phase":0,"sequence":2,"avg":188,"response":190,"trial_type":"training_avg","trial_index":10,"time_elapsed":157973,"internal_node_id":"0.0-10.0"},{"trial_type":"number-animation","trial_index":11,"time_elapsed":170087,"internal_node_id":"0.0-11.0"},{"phase":0,"sequence":3,"avg":177,"response":180,"trial_type":"training_avg","trial_index":12,"time_elapsed":179018,"internal_node_id":"0.0-12.0"},{"trial_type":"number-animation","trial_index":13,"time_elapsed":189017,"internal_node_id":"0.0-13.0"},{"phase":0,"sequence":4,"avg":182,"response":184,"trial_type":"training_avg","trial_index":14,"time_elapsed":195825,"internal_node_id":"0.0-14.0"},{"responses":[{"value":5,"offby":4,"category":"$115 - $130","category_index":0},{"value":5,"offby":0,"category":"$131 - $145","category_index":1},{"value":15,"offby":3,"category":"$146 - $160","category_index":2},{"value":25,"offby":3,"category":"$161 - $175","category_index":3},{"value":25,"offby":-9,"category":"$176 - $190","category_index":4},{"value":20,"offby":5,"category":"$191 - $205","category_index":5},{"value":5,"offby":-6,"category":"$206 - $220","category_index":6}],"phase":0,"number":0,"trial_type":"bar-choose","trial_index":15,"time_elapsed":279127,"internal_node_id":"0.0-15.0"},{"rt":20444,"url":"\/christiane\/tickets\/utils\/testing.html","trial_type":"html","trial_index":16,"time_elapsed":300880,"internal_node_id":"0.0-16.0"},{"phase":0,"order":[40,36,10,43,33,20,48,14,21,13,6,39,28,5,37,18,44,32,15,45,3,31,25,9,29,42,46,12,11,1,35,47,17,23,27,2,30,19,0,34,24,8,26,41,4,16,7,49,38,22],"trial_type":"store_order","trial_index":17,"time_elapsed":301883,"internal_node_id":"0.0-17.0"},{"result":146,"points":3,"place":0,"phase":0,"sequence":-1,"prices":[184,180,224,165,181,199,185,193,218,146],"times":[1961,1136,1339,3640,854,1279,1201,1246,1049,1129],"next_num":10,"trial_type":"ticket-choose","trial_index":18,"time_elapsed":321399,"internal_node_id":"0.0-18.0"},{"rt":17338,"url":"\/christiane\/tickets\/utils\/testing_after.html","trial_type":"html","trial_index":19,"time_elapsed":339906,"internal_node_id":"0.0-19.0"},{"result":165,"points":2,"place":1,"phase":0,"sequence":0,"prices":[177,175,187,209,165,180,188,165,154,208],"times":[1380,704,673,730,2435],"next_num":5,"trial_type":"ticket-choose","trial_index":20,"time_elapsed":350412,"internal_node_id":"0.0-20.0"},{"result":163,"points":2,"place":1,"phase":0,"sequence":1,"prices":[176,187,179,209,163,180,188,165,154,208],"times":[676,638,736,951,3024],"next_num":5,"trial_type":"ticket-choose","trial_index":21,"time_elapsed":360026,"internal_node_id":"0.0-21.0"},{"result":158,"points":3,"place":0,"phase":0,"sequence":2,"prices":[214,184,226,192,215,158,199,175,176,208],"times":[943,530,560,790,644,2264],"next_num":6,"trial_type":"ticket-choose","trial_index":22,"time_elapsed":370110,"internal_node_id":"0.0-22.0"},{"result":154,"points":3,"place":0,"phase":0,"sequence":3,"prices":[187,201,165,172,196,174,178,154,172,180],"times":[2111,603,1821,572,656,1607,983,1395],"next_num":8,"trial_type":"ticket-choose","trial_index":23,"time_elapsed":383996,"internal_node_id":"0.0-23.0"},{"result":169,"points":0,"place":5,"phase":0,"sequence":4,"prices":[171,169,186,165,163,167,220,148,187,165],"times":[982,2025],"next_num":2,"trial_type":"ticket-choose","trial_index":24,"time_elapsed":389966,"internal_node_id":"0.0-24.0"},{"result":161,"points":3,"place":0,"phase":0,"sequence":5,"prices":[193,174,224,165,187,190,224,161,194,195],"times":[860,718,572,1246,1017,615,773,1560],"next_num":8,"trial_type":"ticket-choose","trial_index":25,"time_elapsed":401262,"internal_node_id":"0.0-25.0"},{"result":166,"points":1,"place":2,"phase":0,"sequence":6,"prices":[163,174,186,212,176,181,187,166,153,209],"times":[3662,585,624,569,473,1159,739,2082],"next_num":8,"trial_type":"ticket-choose","trial_index":26,"time_elapsed":417126,"internal_node_id":"0.0-26.0"},{"result":167,"points":1,"place":2,"phase":0,"sequence":7,"prices":[165,175,187,209,177,180,188,167,154,208],"times":[1968,634,572,537,2299,776,1585,1860],"next_num":8,"trial_type":"ticket-choose","trial_index":27,"time_elapsed":438688,"internal_node_id":"0.0-27.0"},{"result":153,"points":2,"place":1,"phase":0,"sequence":8,"prices":[167,153,172,185,195,143,184,211,177,227],"times":[2071,1361],"next_num":2,"trial_type":"ticket-choose","trial_index":28,"time_elapsed":445277,"internal_node_id":"0.0-28.0"},{"result":163,"points":1,"place":2,"phase":0,"sequence":9,"prices":[173,163,185,181,166,148,160,185,176,184],"times":[952,4864],"next_num":2,"trial_type":"ticket-choose","trial_index":29,"time_elapsed":453800,"internal_node_id":"0.0-29.0"},{"result":157,"points":3,"place":0,"phase":0,"sequence":10,"prices":[191,170,182,165,175,182,203,157,195,200],"times":[597,585,521,978,557,827,2358,1494],"next_num":8,"trial_type":"ticket-choose","trial_index":30,"time_elapsed":465881,"internal_node_id":"0.0-30.0"},{"result":158,"points":2,"place":1,"phase":0,"sequence":11,"prices":[177,176,187,225,158,181,187,165,208,153],"times":[5648,1432,624,670,1422],"next_num":5,"trial_type":"ticket-choose","trial_index":31,"time_elapsed":479154,"internal_node_id":"0.0-31.0"},{"result":158,"points":2,"place":1,"phase":0,"sequence":12,"prices":[158,175,186,211,177,180,187,166,209,153],"times":[4182],"next_num":1,"trial_type":"ticket-choose","trial_index":32,"time_elapsed":487761,"internal_node_id":"0.0-32.0"},{"result":165,"points":3,"place":0,"phase":0,"sequence":13,"prices":[192,172,171,178,188,165,217,168,195,197],"times":[910,4883,665,590,703,1821],"next_num":6,"trial_type":"ticket-choose","trial_index":33,"time_elapsed":501707,"internal_node_id":"0.0-33.0"},{"result":156,"points":2,"place":1,"phase":0,"sequence":14,"prices":[180,156,149,160,168,186,172,198,176,195],"times":[1009,1365],"next_num":2,"trial_type":"ticket-choose","trial_index":34,"time_elapsed":506383,"internal_node_id":"0.0-34.0"},{"result":159,"points":1,"place":2,"phase":0,"sequence":15,"prices":[181,159,149,175,185,151,163,174,178,207],"times":[685,1395],"next_num":2,"trial_type":"ticket-choose","trial_index":35,"time_elapsed":510860,"internal_node_id":"0.0-35.0"},{"result":166,"points":1,"place":2,"phase":0,"sequence":16,"prices":[165,175,186,214,177,179,187,166,153,208],"times":[646,765,490,581,497,636,1057,1474],"next_num":8,"trial_type":"ticket-choose","trial_index":36,"time_elapsed":520637,"internal_node_id":"0.0-36.0"},{"result":155,"points":2,"place":1,"phase":0,"sequence":17,"prices":[200,207,155,158,156,168,167,135,178,177],"times":[902,548,1655],"next_num":3,"trial_type":"ticket-choose","trial_index":37,"time_elapsed":526266,"internal_node_id":"0.0-37.0"},{"result":163,"points":2,"place":1,"phase":0,"sequence":18,"prices":[176,175,186,210,163,179,187,166,153,208],"times":[644,536,651,742,2749],"next_num":5,"trial_type":"ticket-choose","trial_index":38,"time_elapsed":534521,"internal_node_id":"0.0-38.0"},{"result":158,"points":2,"place":1,"phase":0,"sequence":19,"prices":[177,175,186,209,158,181,188,167,208,154],"times":[1676,585,1457,669,2253],"next_num":5,"trial_type":"ticket-choose","trial_index":39,"time_elapsed":544042,"internal_node_id":"0.0-39.0"},{"result":169,"points":1,"place":2,"phase":0,"sequence":20,"prices":[167,175,186,225,178,179,187,169,209,153],"times":[867,973,683,840,937,817,655,1927],"next_num":8,"trial_type":"ticket-choose","trial_index":40,"time_elapsed":555441,"internal_node_id":"0.0-40.0"},{"result":166,"points":1,"place":3,"phase":0,"sequence":21,"prices":[201,204,179,166,185,165,214,156,202,165],"times":[944,537,893,1585],"next_num":4,"trial_type":"ticket-choose","trial_index":41,"time_elapsed":562135,"internal_node_id":"0.0-41.0"},{"result":158,"points":2,"place":1,"phase":0,"sequence":22,"prices":[158,176,187,210,177,181,187,165,208,153],"times":[1695],"next_num":1,"trial_type":"ticket-choose","trial_index":42,"time_elapsed":565924,"internal_node_id":"0.0-42.0"},{"result":179,"points":1,"place":4,"phase":0,"sequence":23,"prices":[181,214,169,147,182,193,178,184,176,179],"times":[660,589,574,516,670,696,1162,1044,1950,2328],"next_num":10,"trial_type":"ticket-choose","trial_index":43,"time_elapsed":580812,"internal_node_id":"0.0-43.0"},{"result":165,"points":1,"place":2,"phase":0,"sequence":24,"prices":[185,179,191,165,161,173,199,150,188,168],"times":[1229,841,637,1408],"next_num":4,"trial_type":"ticket-choose","trial_index":44,"time_elapsed":587574,"internal_node_id":"0.0-44.0"},{"result":167,"points":2,"place":1,"phase":0,"sequence":25,"prices":[178,175,186,212,167,179,187,169,209,153],"times":[1083,654,691,676,1844],"next_num":5,"trial_type":"ticket-choose","trial_index":45,"time_elapsed":595742,"internal_node_id":"0.0-45.0"},{"result":164,"points":3,"place":0,"phase":0,"sequence":26,"prices":[199,191,188,174,167,193,189,164,176,170],"times":[661,622,628,1253,1526,604,822,1612],"next_num":8,"trial_type":"ticket-choose","trial_index":46,"time_elapsed":607099,"internal_node_id":"0.0-46.0"},{"result":169,"points":3,"place":0,"phase":0,"sequence":27,"prices":[220,173,201,197,169,205,198,183,178,186],"times":[668,1159,578,686,1975],"next_num":5,"trial_type":"ticket-choose","trial_index":47,"time_elapsed":615141,"internal_node_id":"0.0-47.0"},{"result":163,"points":2,"place":1,"phase":0,"sequence":28,"prices":[176,186,178,217,163,181,187,166,153,209],"times":[722,633,836,639,1473],"next_num":5,"trial_type":"ticket-choose","trial_index":48,"time_elapsed":622336,"internal_node_id":"0.0-48.0"},{"result":165,"points":2,"place":1,"phase":0,"sequence":29,"prices":[177,174,186,217,165,181,187,166,153,209],"times":[691,665,899,583,1360],"next_num":5,"trial_type":"ticket-choose","trial_index":49,"time_elapsed":629448,"internal_node_id":"0.0-49.0"},{"result":165,"points":3,"place":0,"phase":0,"sequence":30,"prices":[196,171,170,184,187,165,211,169,201,202],"times":[783,731,671,523,549,1701],"next_num":6,"trial_type":"ticket-choose","trial_index":50,"time_elapsed":637546,"internal_node_id":"0.0-50.0"},{"result":165,"points":2,"place":1,"phase":0,"sequence":31,"prices":[183,179,188,165,168,173,205,159,187,191],"times":[613,732,610,1543],"next_num":4,"trial_type":"ticket-choose","trial_index":51,"time_elapsed":643671,"internal_node_id":"0.0-51.0"},{"result":152,"points":3,"place":0,"phase":0,"sequence":32,"prices":[200,180,203,152,175,170,160,154,176,191],"times":[721,561,893,1344],"next_num":4,"trial_type":"ticket-choose","trial_index":52,"time_elapsed":649832,"internal_node_id":"0.0-52.0"},{"result":167,"points":2,"place":1,"phase":0,"sequence":33,"prices":[167,174,186,211,178,181,188,168,208,156],"times":[1647],"next_num":1,"trial_type":"ticket-choose","trial_index":53,"time_elapsed":653539,"internal_node_id":"0.0-53.0"},{"result":150,"points":3,"place":0,"phase":0,"sequence":34,"prices":[190,150,175,161,188,207,157,194,178,199],"times":[664,1333],"next_num":2,"trial_type":"ticket-choose","trial_index":54,"time_elapsed":657686,"internal_node_id":"0.0-54.0"},{"result":167,"points":2,"place":1,"phase":0,"sequence":35,"prices":[178,174,186,217,167,181,188,168,208,156],"times":[911,549,605,627,1356],"next_num":5,"trial_type":"ticket-choose","trial_index":55,"time_elapsed":664514,"internal_node_id":"0.0-55.0"},{"result":167,"points":2,"place":1,"phase":0,"sequence":36,"prices":[167,175,185,224,178,181,186,168,208,156],"times":[1497],"next_num":1,"trial_type":"ticket-choose","trial_index":56,"time_elapsed":667902,"internal_node_id":"0.0-56.0"},{"result":163,"points":2,"place":1,"phase":0,"sequence":37,"prices":[163,175,186,214,176,179,187,166,153,208],"times":[1381],"next_num":1,"trial_type":"ticket-choose","trial_index":57,"time_elapsed":671237,"internal_node_id":"0.0-57.0"},{"result":167,"points":2,"place":1,"phase":0,"sequence":38,"prices":[178,175,185,215,167,181,186,168,208,156],"times":[851,577,556,575,1394],"next_num":5,"trial_type":"ticket-choose","trial_index":58,"time_elapsed":677946,"internal_node_id":"0.0-58.0"},{"result":165,"points":2,"place":1,"phase":0,"sequence":39,"prices":[177,175,186,210,165,179,187,166,153,208],"times":[838,557,656,701,1454],"next_num":5,"trial_type":"ticket-choose","trial_index":59,"time_elapsed":684951,"internal_node_id":"0.0-59.0"},{"result":158,"points":2,"place":1,"phase":0,"sequence":40,"prices":[177,175,186,221,158,180,187,166,209,153],"times":[913,525,724,616,1366],"next_num":5,"trial_type":"ticket-choose","trial_index":60,"time_elapsed":691796,"internal_node_id":"0.0-60.0"},{"result":167,"points":2,"place":1,"phase":0,"sequence":41,"prices":[189,167,180,197,165,168,172,213,178,171],"times":[630,1458],"next_num":2,"trial_type":"ticket-choose","trial_index":61,"time_elapsed":696156,"internal_node_id":"0.0-61.0"},{"result":165,"points":1,"place":2,"phase":0,"sequence":42,"prices":[199,193,169,165,202,182,151,164,176,171],"times":[605,658,586,1326],"next_num":4,"trial_type":"ticket-choose","trial_index":62,"time_elapsed":702021,"internal_node_id":"0.0-62.0"},{"result":165,"points":2,"place":1,"phase":0,"sequence":43,"prices":[165,174,186,212,177,181,187,166,153,209],"times":[1615],"next_num":1,"trial_type":"ticket-choose","trial_index":63,"time_elapsed":705654,"internal_node_id":"0.0-63.0"},{"result":165,"points":3,"place":0,"phase":0,"sequence":44,"prices":[193,181,175,181,185,165,224,199,218,184],"times":[641,538,706,663,573,1306],"next_num":6,"trial_type":"ticket-choose","trial_index":64,"time_elapsed":713148,"internal_node_id":"0.0-64.0"},{"result":163,"points":3,"place":0,"phase":0,"sequence":45,"prices":[163,199,196,199,185,195,227,163,177,166],"times":[1354],"next_num":1,"trial_type":"ticket-choose","trial_index":65,"time_elapsed":716477,"internal_node_id":"0.0-65.0"},{"result":157,"points":3,"place":0,"phase":0,"sequence":46,"prices":[201,187,157,184,198,179,188,185,178,170],"times":[863,506,1305],"next_num":3,"trial_type":"ticket-choose","trial_index":66,"time_elapsed":721452,"internal_node_id":"0.0-66.0"},{"result":163,"points":2,"place":1,"phase":0,"sequence":47,"prices":[163,175,187,209,176,180,188,165,154,208],"times":[1976],"next_num":1,"trial_type":"ticket-choose","trial_index":67,"time_elapsed":725304,"internal_node_id":"0.0-67.0"},{"result":158,"points":2,"place":1,"phase":0,"sequence":48,"prices":[158,175,186,209,177,181,188,167,208,154],"times":[1629],"next_num":1,"trial_type":"ticket-choose","trial_index":68,"time_elapsed":729197,"internal_node_id":"0.0-68.0"},{"result":169,"points":1,"place":3,"phase":0,"sequence":49,"prices":[200,173,182,169,207,165,152,202,161,204],"times":[776,688,553,1652],"next_num":4,"trial_type":"ticket-choose","trial_index":69,"time_elapsed":735495,"internal_node_id":"0.0-69.0"},{"responses":[{"value":0,"offby":-1,"category":"$115 - $130","category_index":0},{"value":5,"offby":0,"category":"$131 - $145","category_index":1},{"value":15,"offby":3,"category":"$146 - $160","category_index":2},{"value":25,"offby":3,"category":"$161 - $175","category_index":3},{"value":30,"offby":-4,"category":"$176 - $190","category_index":4},{"value":20,"offby":5,"category":"$191 - $205","category_index":5},{"value":5,"offby":-6,"category":"$206 - $220","category_index":6}],"phase":1,"number":1,"trial_type":"bar-choose","trial_index":70,"time_elapsed":875444,"internal_node_id":"0.0-70.0"},{"rt":18238,"url":"\/christiane\/tickets\/utils\/testing2.html","trial_type":"point_update","trial_index":71,"time_elapsed":895088,"internal_node_id":"0.0-71.0"},{"phase":1,"order":[10,16,46,36,31,32,14,7,35,49,30,23,18,27,34,44,6,41,15,22,2,25,20,48,29,5,45,42,17,11,28,33,47,0,40,3,1,12,4,9,21,39,37,8,24,38,43,13,19,26],"trial_type":"store_order","trial_index":72,"time_elapsed":896099,"internal_node_id":"0.0-72.0"},{"result":150,"points":3,"place":0,"phase":1,"sequence":0,"prices":[189,150,175,160,188,207,158,194,178,199],"times":[1959,1858],"next_num":2,"trial_type":"ticket-choose","trial_index":73,"time_elapsed":902952,"internal_node_id":"0.0-73.0"},{"result":165,"points":2,"place":1,"phase":1,"sequence":1,"prices":[188,200,165,172,198,174,177,154,177,180],"times":[940,616,1716],"next_num":3,"trial_type":"ticket-choose","trial_index":74,"time_elapsed":908937,"internal_node_id":"0.0-74.0"},{"result":165,"points":2,"place":1,"phase":1,"sequence":2,"prices":[175,187,177,209,180,188,165,165,154,208],"times":[556,522,881,575,625,634,1289],"next_num":7,"trial_type":"ticket-choose","trial_index":75,"time_elapsed":917349,"internal_node_id":"0.0-75.0"},{"result":157,"points":3,"place":0,"phase":1,"sequence":3,"prices":[201,187,157,184,198,179,188,185,178,170],"times":[598,651,1235],"next_num":3,"trial_type":"ticket-choose","trial_index":76,"time_elapsed":922194,"internal_node_id":"0.0-76.0"},{"result":167,"points":2,"place":1,"phase":1,"sequence":4,"prices":[183,182,192,168,173,205,167,187,165,170],"times":[552,577,611,1344,716,569,1427],"next_num":7,"trial_type":"ticket-choose","trial_index":77,"time_elapsed":931044,"internal_node_id":"0.0-77.0"},{"result":158,"points":2,"place":1,"phase":1,"sequence":5,"prices":[176,187,158,210,181,187,177,165,208,153],"times":[595,492,1315],"next_num":3,"trial_type":"ticket-choose","trial_index":78,"time_elapsed":935716,"internal_node_id":"0.0-78.0"},{"result":169,"points":2,"place":1,"phase":1,"sequence":6,"prices":[181,215,169,147,182,193,177,184,176,179],"times":[550,524,1308],"next_num":3,"trial_type":"ticket-choose","trial_index":79,"time_elapsed":940369,"internal_node_id":"0.0-79.0"},{"result":163,"points":2,"place":1,"phase":1,"sequence":7,"prices":[174,186,163,212,181,187,176,166,153,209],"times":[466,551,1442],"next_num":3,"trial_type":"ticket-choose","trial_index":80,"time_elapsed":945129,"internal_node_id":"0.0-80.0"},{"result":158,"points":2,"place":1,"phase":1,"sequence":8,"prices":[175,186,177,221,180,187,158,166,209,153],"times":[503,516,504,525,547,596,1685],"next_num":7,"trial_type":"ticket-choose","trial_index":81,"time_elapsed":953289,"internal_node_id":"0.0-81.0"},{"result":165,"points":1,"place":2,"phase":1,"sequence":9,"prices":[175,187,163,209,180,188,176,165,154,208],"times":[587,628,752,520,529,565,650,1773],"next_num":8,"trial_type":"ticket-choose","trial_index":82,"time_elapsed":962767,"internal_node_id":"0.0-82.0"},{"result":166,"points":1,"place":2,"phase":1,"sequence":10,"prices":[175,186,165,214,179,187,177,166,153,208],"times":[760,675,728,523,636,676,671,1335],"next_num":8,"trial_type":"ticket-choose","trial_index":83,"time_elapsed":972186,"internal_node_id":"0.0-83.0"},{"result":165,"points":3,"place":0,"phase":1,"sequence":11,"prices":[189,167,180,197,165,168,172,213,178,171],"times":[580,595,646,597,1304],"next_num":5,"trial_type":"ticket-choose","trial_index":84,"time_elapsed":978548,"internal_node_id":"0.0-84.0"},{"result":165,"points":3,"place":0,"phase":1,"sequence":12,"prices":[196,165,170,184,187,211,171,201,202,185],"times":[625,1315],"next_num":2,"trial_type":"ticket-choose","trial_index":85,"time_elapsed":982637,"internal_node_id":"0.0-85.0"},{"result":167,"points":2,"place":1,"phase":1,"sequence":13,"prices":[175,186,178,212,179,187,167,169,209,153],"times":[525,534,749,811,576,734,1794],"next_num":7,"trial_type":"ticket-choose","trial_index":86,"time_elapsed":991604,"internal_node_id":"0.0-86.0"},{"result":163,"points":2,"place":1,"phase":1,"sequence":14,"prices":[198,193,169,163,202,182,152,164,177,171],"times":[536,547,1159,1325],"next_num":4,"trial_type":"ticket-choose","trial_index":87,"time_elapsed":997843,"internal_node_id":"0.0-87.0"},{"result":158,"points":2,"place":1,"phase":1,"sequence":15,"prices":[175,186,158,211,180,187,177,166,209,153],"times":[470,502,1401],"next_num":3,"trial_type":"ticket-choose","trial_index":88,"time_elapsed":1002505,"internal_node_id":"0.0-88.0"},{"result":159,"points":1,"place":2,"phase":1,"sequence":16,"prices":[180,159,149,175,185,141,163,174,178,207],"times":[463,1271],"next_num":2,"trial_type":"ticket-choose","trial_index":89,"time_elapsed":1006338,"internal_node_id":"0.0-89.0"},{"result":165,"points":3,"place":0,"phase":1,"sequence":17,"prices":[193,169,171,187,190,224,174,194,165,188],"times":[504,526,718,680,516,511,589,692,1246],"next_num":9,"trial_type":"ticket-choose","trial_index":90,"time_elapsed":1015840,"internal_node_id":"0.0-90.0"},{"result":163,"points":2,"place":1,"phase":1,"sequence":18,"prices":[175,186,176,210,179,187,163,166,153,208],"times":[569,680,771,551,536,557,1361],"next_num":7,"trial_type":"ticket-choose","trial_index":91,"time_elapsed":1023944,"internal_node_id":"0.0-91.0"},{"result":167,"points":2,"place":1,"phase":1,"sequence":19,"prices":[212,192,188,184,167,193,189,164,176,170],"times":[612,551,605,578,1343],"next_num":5,"trial_type":"ticket-choose","trial_index":92,"time_elapsed":1030368,"internal_node_id":"0.0-92.0"},{"result":167,"points":2,"place":1,"phase":1,"sequence":20,"prices":[174,186,178,217,181,188,167,168,208,156],"times":[585,642,539,941,742,649,1343],"next_num":7,"trial_type":"ticket-choose","trial_index":93,"time_elapsed":1039121,"internal_node_id":"0.0-93.0"},{"result":167,"points":1,"place":2,"phase":1,"sequence":21,"prices":[171,203,175,170,167,220,192,186,165,165],"times":[598,562,740,1054,1250],"next_num":5,"trial_type":"ticket-choose","trial_index":94,"time_elapsed":1046234,"internal_node_id":"0.0-94.0"},{"result":165,"points":2,"place":1,"phase":1,"sequence":22,"prices":[201,165,162,166,185,214,165,202,204,179],"times":[714,1730],"next_num":2,"trial_type":"ticket-choose","trial_index":95,"time_elapsed":1050776,"internal_node_id":"0.0-95.0"},{"result":165,"points":2,"place":1,"phase":1,"sequence":23,"prices":[175,186,177,210,179,187,165,166,153,208],"times":[552,517,558,590,653,694,1278],"next_num":7,"trial_type":"ticket-choose","trial_index":96,"time_elapsed":1058753,"internal_node_id":"0.0-96.0"},{"result":165,"points":3,"place":0,"phase":1,"sequence":24,"prices":[185,170,182,201,173,199,171,188,165,168],"times":[433,456,610,605,601,655,615,1015,1334],"next_num":9,"trial_type":"ticket-choose","trial_index":97,"time_elapsed":1068846,"internal_node_id":"0.0-97.0"},{"result":143,"points":3,"place":0,"phase":1,"sequence":25,"prices":[222,173,202,197,143,205,198,183,178,186],"times":[610,742,639,638,1378],"next_num":5,"trial_type":"ticket-choose","trial_index":98,"time_elapsed":1075564,"internal_node_id":"0.0-98.0"},{"result":158,"points":3,"place":0,"phase":1,"sequence":26,"prices":[210,184,226,193,215,158,199,175,176,208],"times":[638,784,718,654,627,1389],"next_num":6,"trial_type":"ticket-choose","trial_index":99,"time_elapsed":1083311,"internal_node_id":"0.0-99.0"},{"result":163,"points":2,"place":1,"phase":1,"sequence":27,"prices":[175,186,163,214,179,187,176,166,153,208],"times":[729,565,1335],"next_num":3,"trial_type":"ticket-choose","trial_index":100,"time_elapsed":1088662,"internal_node_id":"0.0-100.0"},{"result":165,"points":2,"place":1,"phase":1,"sequence":28,"prices":[174,186,177,217,181,187,165,166,153,209],"times":[594,535,561,550,559,568,1386],"next_num":7,"trial_type":"ticket-choose","trial_index":101,"time_elapsed":1096607,"internal_node_id":"0.0-101.0"},{"result":167,"points":2,"place":1,"phase":1,"sequence":29,"prices":[175,185,167,224,181,186,178,168,208,156],"times":[717,514,1419],"next_num":3,"trial_type":"ticket-choose","trial_index":102,"time_elapsed":1101513,"internal_node_id":"0.0-102.0"},{"result":168,"points":1,"place":2,"phase":1,"sequence":30,"prices":[168,154,172,185,195,144,184,211,177,227],"times":[1437],"next_num":1,"trial_type":"ticket-choose","trial_index":103,"time_elapsed":1104730,"internal_node_id":"0.0-103.0"},{"result":152,"points":3,"place":0,"phase":1,"sequence":31,"prices":[200,181,203,152,175,171,160,154,176,191],"times":[548,587,549,1396],"next_num":4,"trial_type":"ticket-choose","trial_index":104,"time_elapsed":1110257,"internal_node_id":"0.0-104.0"},{"result":163,"points":2,"place":1,"phase":1,"sequence":32,"prices":[174,186,176,217,181,187,163,166,153,209],"times":[564,487,580,528,673,550,1365],"next_num":7,"trial_type":"ticket-choose","trial_index":105,"time_elapsed":1118101,"internal_node_id":"0.0-105.0"},{"result":158,"points":2,"place":1,"phase":1,"sequence":33,"prices":[176,187,177,225,181,187,158,165,208,153],"times":[596,533,556,617,1306,544,1370],"next_num":7,"trial_type":"ticket-choose","trial_index":106,"time_elapsed":1126744,"internal_node_id":"0.0-106.0"},{"result":165,"points":3,"place":0,"phase":1,"sequence":34,"prices":[192,165,171,178,188,217,172,195,197,186],"times":[509,1350],"next_num":2,"trial_type":"ticket-choose","trial_index":107,"time_elapsed":1130765,"internal_node_id":"0.0-107.0"},{"result":167,"points":2,"place":1,"phase":1,"sequence":35,"prices":[175,186,167,225,179,187,178,169,209,153],"times":[758,592,1368],"next_num":3,"trial_type":"ticket-choose","trial_index":108,"time_elapsed":1135980,"internal_node_id":"0.0-108.0"},{"result":169,"points":2,"place":1,"phase":1,"sequence":36,"prices":[191,172,169,175,182,203,170,195,165,176],"times":[577,701,1393],"next_num":3,"trial_type":"ticket-choose","trial_index":109,"time_elapsed":1140888,"internal_node_id":"0.0-109.0"},{"result":158,"points":2,"place":1,"phase":1,"sequence":37,"prices":[175,186,158,209,181,188,177,167,208,154],"times":[875,511,1324],"next_num":3,"trial_type":"ticket-choose","trial_index":110,"time_elapsed":1145889,"internal_node_id":"0.0-110.0"},{"result":167,"points":2,"place":1,"phase":1,"sequence":38,"prices":[174,186,167,211,181,188,178,168,208,156],"times":[729,534,1354],"next_num":3,"trial_type":"ticket-choose","trial_index":111,"time_elapsed":1150845,"internal_node_id":"0.0-111.0"},{"result":148,"points":3,"place":0,"phase":1,"sequence":39,"prices":[181,155,148,161,168,187,172,199,176,194],"times":[675,629,1464],"next_num":3,"trial_type":"ticket-choose","trial_index":112,"time_elapsed":1155850,"internal_node_id":"0.0-112.0"},{"result":165,"points":3,"place":0,"phase":1,"sequence":40,"prices":[193,165,175,181,185,224,180,199,218,184],"times":[856,1389],"next_num":2,"trial_type":"ticket-choose","trial_index":113,"time_elapsed":1160155,"internal_node_id":"0.0-113.0"},{"result":165,"points":2,"place":1,"phase":1,"sequence":41,"prices":[174,186,165,212,181,187,177,167,153,209],"times":[776,1035,1436],"next_num":3,"trial_type":"ticket-choose","trial_index":114,"time_elapsed":1165781,"internal_node_id":"0.0-114.0"},{"result":165,"points":2,"place":1,"phase":1,"sequence":42,"prices":[200,165,165,173,182,207,161,202,204,180],"times":[575,1328],"next_num":2,"trial_type":"ticket-choose","trial_index":115,"time_elapsed":1169697,"internal_node_id":"0.0-115.0"},{"result":155,"points":2,"place":1,"phase":1,"sequence":43,"prices":[201,207,155,158,156,165,167,135,178,177],"times":[665,591,1438],"next_num":3,"trial_type":"ticket-choose","trial_index":116,"time_elapsed":1174669,"internal_node_id":"0.0-116.0"},{"result":156,"points":3,"place":0,"phase":1,"sequence":44,"prices":[175,185,178,215,181,186,167,168,208,156],"times":[550,480,593,575,589,612,588,1350,565,1463],"next_num":10,"trial_type":"ticket-choose","trial_index":117,"time_elapsed":1185913,"internal_node_id":"0.0-117.0"},{"result":163,"points":2,"place":1,"phase":1,"sequence":45,"prices":[175,187,176,209,180,188,163,165,154,208],"times":[647,584,671,655,632,605,1343],"next_num":7,"trial_type":"ticket-choose","trial_index":118,"time_elapsed":1194271,"internal_node_id":"0.0-118.0"},{"result":165,"points":2,"place":1,"phase":1,"sequence":46,"prices":[175,187,165,209,180,188,177,166,154,208],"times":[742,627,1329],"next_num":3,"trial_type":"ticket-choose","trial_index":119,"time_elapsed":1199363,"internal_node_id":"0.0-119.0"},{"result":163,"points":1,"place":2,"phase":1,"sequence":47,"prices":[183,163,185,180,166,148,160,186,176,184],"times":[710,1442],"next_num":2,"trial_type":"ticket-choose","trial_index":120,"time_elapsed":1203577,"internal_node_id":"0.0-120.0"},{"result":163,"points":3,"place":0,"phase":1,"sequence":48,"prices":[168,199,196,198,185,195,227,163,177,166],"times":[1097,476,517,546,550,500,530,1449],"next_num":8,"trial_type":"ticket-choose","trial_index":121,"time_elapsed":1212585,"internal_node_id":"0.0-121.0"},{"result":158,"points":2,"place":1,"phase":1,"sequence":49,"prices":[175,186,177,209,181,188,158,167,208,154],"times":[765,615,694,538,585,508,1488],"next_num":7,"trial_type":"ticket-choose","trial_index":122,"time_elapsed":1221076,"internal_node_id":"0.0-122.0"},{"responses":[{"value":5,"offby":4,"category":"$115 - $130","category_index":0},{"value":5,"offby":0,"category":"$131 - $145","category_index":1},{"value":15,"offby":3,"category":"$146 - $160","category_index":2},{"value":30,"offby":8,"category":"$161 - $175","category_index":3},{"value":30,"offby":-4,"category":"$176 - $190","category_index":4},{"value":10,"offby":-5,"category":"$191 - $205","category_index":5},{"value":5,"offby":-6,"category":"$206 - $220","category_index":6}],"phase":1,"number":1,"trial_type":"bar-choose","trial_index":123,"time_elapsed":1274938,"internal_node_id":"0.0-123.0"},{"special_comment":"No, I didn't notice anything.","trial_type":"special_sequence","trial_index":124,"time_elapsed":1283315,"internal_node_id":"0.0-124.0"},{"during":"Nothing","bonus":276,"trial_type":"final","trial_index":125,"time_elapsed":1307883,"internal_node_id":"0.0-125.0"}],"bonus":276}