{"start_time":"2017-05-24 12:02:39","end_time":"2017-05-24 12:41:08","points_phase0":97,"points_phase1":111,"phase_order":1,"age":28,"gender":"m","tries":1,"during":"Nothing","worker_id":"A2LU259QPV1I4V","assignment_id":"3TMSXRD2X7TMNXWBRQACJP86XV21W8","data":[{"rt":31472,"url":"\/christiane\/tickets\/utils\/consent.html","trial_type":"html","trial_index":0,"time_elapsed":32346,"internal_node_id":"0.0-0.0"},{"age":28,"gender":"m","trial_type":"age","trial_index":1,"time_elapsed":41782,"internal_node_id":"0.0-1.0"},{"worker_id":"A2LU259QPV1I4V","trial_type":"workerid","trial_index":2,"time_elapsed":59635,"internal_node_id":"0.0-2.0"},{"tries":1,"trial_type":"instructions_check","trial_index":3,"time_elapsed":120109,"internal_node_id":"0.0-3.0"},{"rt":21928,"url":"\/christiane\/tickets\/utils\/start.html","trial_type":"html","trial_index":4,"time_elapsed":143148,"internal_node_id":"0.0-4.0"},{"trial_type":"number-animation","trial_index":5,"time_elapsed":246074,"internal_node_id":"0.0-5.0"},{"phase":0,"sequence":0,"avg":181,"response":180,"trial_type":"training_avg","trial_index":6,"time_elapsed":286992,"internal_node_id":"0.0-6.0"},{"trial_type":"number-animation","trial_index":7,"time_elapsed":352461,"internal_node_id":"0.0-7.0"},{"phase":0,"sequence":1,"avg":188,"response":188,"trial_type":"training_avg","trial_index":8,"time_elapsed":393495,"internal_node_id":"0.0-8.0"},{"trial_type":"number-animation","trial_index":9,"time_elapsed":452101,"internal_node_id":"0.0-9.0"},{"phase":0,"sequence":2,"avg":188,"response":188,"trial_type":"training_avg","trial_index":10,"time_elapsed":488261,"internal_node_id":"0.0-10.0"},{"trial_type":"number-animation","trial_index":11,"time_elapsed":544146,"internal_node_id":"0.0-11.0"},{"phase":0,"sequence":3,"avg":177,"response":177,"trial_type":"training_avg","trial_index":12,"time_elapsed":566357,"internal_node_id":"0.0-12.0"},{"trial_type":"number-animation","trial_index":13,"time_elapsed":615470,"internal_node_id":"0.0-13.0"},{"phase":0,"sequence":4,"avg":182,"response":182,"trial_type":"training_avg","trial_index":14,"time_elapsed":637992,"internal_node_id":"0.0-14.0"},{"responses":[{"value":0,"offby":-1,"category":"$115 - $130","category_index":0},{"value":0,"offby":-5,"category":"$131 - $145","category_index":1},{"value":5,"offby":-7,"category":"$146 - $160","category_index":2},{"value":10,"offby":-12,"category":"$161 - $175","category_index":3},{"value":70,"offby":36,"category":"$176 - $190","category_index":4},{"value":15,"offby":0,"category":"$191 - $205","category_index":5},{"value":0,"offby":-11,"category":"$206 - $220","category_index":6}],"phase":0,"number":0,"trial_type":"bar-choose","trial_index":15,"time_elapsed":856921,"internal_node_id":"0.0-15.0"},{"rt":30121,"url":"\/christiane\/tickets\/utils\/testing.html","trial_type":"html","trial_index":16,"time_elapsed":888178,"internal_node_id":"0.0-16.0"},{"phase":0,"order":[2,18,21,49,40,22,41,0,30,8,34,33,10,39,37,23,1,9,29,26,25,35,47,27,48,32,42,7,15,28,4,43,36,16,20,44,12,14,5,17,3,11,6,13,24,19,31,38,45,46],"trial_type":"store_order","trial_index":17,"time_elapsed":889181,"internal_node_id":"0.0-17.0"},{"result":165,"points":2,"place":1,"phase":0,"sequence":-1,"prices":[184,180,224,165,181,199,185,193,218,146],"times":[2898,1697,1212,1612],"next_num":4,"trial_type":"ticket-choose","trial_index":18,"time_elapsed":901517,"internal_node_id":"0.0-18.0"},{"rt":37908,"url":"\/christiane\/tickets\/utils\/testing_after.html","trial_type":"html","trial_index":19,"time_elapsed":940566,"internal_node_id":"0.0-19.0"},{"result":153,"points":2,"place":1,"phase":0,"sequence":0,"prices":[167,153,172,185,195,143,184,211,177,227],"times":[3159,2035],"next_num":2,"trial_type":"ticket-choose","trial_index":20,"time_elapsed":949096,"internal_node_id":"0.0-20.0"},{"result":169,"points":1,"place":2,"phase":0,"sequence":1,"prices":[178,175,186,212,167,179,187,169,209,153],"times":[1156,1328,955,1158,1889,1170,1206,1269],"next_num":8,"trial_type":"ticket-choose","trial_index":21,"time_elapsed":963492,"internal_node_id":"0.0-21.0"},{"result":158,"points":2,"place":1,"phase":0,"sequence":2,"prices":[177,175,186,209,158,181,188,167,208,154],"times":[1313,1629,1139,1067,1198],"next_num":5,"trial_type":"ticket-choose","trial_index":22,"time_elapsed":973605,"internal_node_id":"0.0-22.0"},{"result":166,"points":1,"place":2,"phase":0,"sequence":3,"prices":[158,175,186,211,177,180,187,166,209,153],"times":[1662,848,1035,1081,959,1192,1502,1635],"next_num":8,"trial_type":"ticket-choose","trial_index":23,"time_elapsed":987562,"internal_node_id":"0.0-23.0"},{"result":153,"points":3,"place":0,"phase":0,"sequence":4,"prices":[176,175,186,210,163,179,187,166,153,208],"times":[1172,746,1015,1102,1615,1175,1089,1567,2164],"next_num":9,"trial_type":"ticket-choose","trial_index":24,"time_elapsed":1006570,"internal_node_id":"0.0-24.0"},{"result":148,"points":3,"place":0,"phase":0,"sequence":5,"prices":[173,163,185,181,166,148,160,185,176,184],"times":[2041,2072,1103,1168,1566,1155],"next_num":6,"trial_type":"ticket-choose","trial_index":25,"time_elapsed":1019554,"internal_node_id":"0.0-25.0"},{"result":158,"points":2,"place":1,"phase":0,"sequence":6,"prices":[158,176,187,210,177,181,187,165,208,153],"times":[4327],"next_num":1,"trial_type":"ticket-choose","trial_index":26,"time_elapsed":1026421,"internal_node_id":"0.0-26.0"},{"result":170,"points":1,"place":2,"phase":0,"sequence":7,"prices":[199,191,188,174,167,193,189,164,176,170],"times":[1054,915,910,1371,1118,1115,1157,1809,1169,1535],"next_num":10,"trial_type":"ticket-choose","trial_index":27,"time_elapsed":1043332,"internal_node_id":"0.0-27.0"},{"result":168,"points":1,"place":2,"phase":0,"sequence":8,"prices":[167,175,185,224,178,181,186,168,208,156],"times":[1212,1083,1258,1449,1233,1250,1132,2014],"next_num":8,"trial_type":"ticket-choose","trial_index":28,"time_elapsed":1057641,"internal_node_id":"0.0-28.0"},{"result":152,"points":3,"place":0,"phase":0,"sequence":9,"prices":[200,180,203,152,175,170,160,154,176,191],"times":[1022,1631,1085,999],"next_num":4,"trial_type":"ticket-choose","trial_index":29,"time_elapsed":1065612,"internal_node_id":"0.0-29.0"},{"result":168,"points":1,"place":2,"phase":0,"sequence":10,"prices":[178,174,186,217,167,181,188,168,208,156],"times":[1025,1072,1047,1618,1905,1088,1356,1182],"next_num":8,"trial_type":"ticket-choose","trial_index":30,"time_elapsed":1079588,"internal_node_id":"0.0-30.0"},{"result":195,"points":0,"place":7,"phase":0,"sequence":11,"prices":[193,174,224,165,187,190,224,161,194,195],"times":[1242,1537,1098,1569,1175,1041,991,2442,1380,1655],"next_num":10,"trial_type":"ticket-choose","trial_index":31,"time_elapsed":1098272,"internal_node_id":"0.0-31.0"},{"result":166,"points":1,"place":2,"phase":0,"sequence":12,"prices":[177,175,186,210,165,179,187,166,153,208],"times":[1245,999,1188,1126,1601,1210,1268,1040],"next_num":8,"trial_type":"ticket-choose","trial_index":32,"time_elapsed":1111681,"internal_node_id":"0.0-32.0"},{"result":158,"points":2,"place":1,"phase":0,"sequence":13,"prices":[177,175,186,221,158,180,187,166,209,153],"times":[1047,1151,1002,1234,1113],"next_num":5,"trial_type":"ticket-choose","trial_index":33,"time_elapsed":1120331,"internal_node_id":"0.0-33.0"},{"result":168,"points":1,"place":2,"phase":0,"sequence":14,"prices":[167,174,186,211,178,181,188,168,208,156],"times":[1564,1401,2295,1719,1594,2078,1114,2002],"next_num":8,"trial_type":"ticket-choose","trial_index":34,"time_elapsed":1137816,"internal_node_id":"0.0-34.0"},{"result":163,"points":3,"place":0,"phase":0,"sequence":15,"prices":[163,199,196,199,185,195,227,163,177,166],"times":[1048,972,1059,1060,1126,1326,1032,1011],"next_num":8,"trial_type":"ticket-choose","trial_index":35,"time_elapsed":1151205,"internal_node_id":"0.0-35.0"},{"result":165,"points":3,"place":0,"phase":0,"sequence":16,"prices":[189,167,180,197,165,168,172,213,178,171],"times":[3263,1661,599,698,1057],"next_num":5,"trial_type":"ticket-choose","trial_index":36,"time_elapsed":1161983,"internal_node_id":"0.0-36.0"},{"result":167,"points":2,"place":1,"phase":0,"sequence":17,"prices":[178,175,185,215,167,181,186,168,208,156],"times":[3529,928,1163,1091,1422],"next_num":5,"trial_type":"ticket-choose","trial_index":37,"time_elapsed":1173361,"internal_node_id":"0.0-37.0"},{"result":165,"points":3,"place":0,"phase":0,"sequence":18,"prices":[196,171,170,184,187,165,211,169,201,202],"times":[847,1428,959,1031,877,1065],"next_num":6,"trial_type":"ticket-choose","trial_index":38,"time_elapsed":1183000,"internal_node_id":"0.0-38.0"},{"result":158,"points":2,"place":1,"phase":0,"sequence":19,"prices":[177,176,187,225,158,181,187,165,208,153],"times":[3373,1062,996,1162,951],"next_num":5,"trial_type":"ticket-choose","trial_index":39,"time_elapsed":1193650,"internal_node_id":"0.0-39.0"},{"result":165,"points":1,"place":2,"phase":0,"sequence":20,"prices":[185,179,191,165,161,173,199,150,188,168],"times":[5000,828,824,995],"next_num":4,"trial_type":"ticket-choose","trial_index":40,"time_elapsed":1204627,"internal_node_id":"0.0-40.0"},{"result":159,"points":3,"place":0,"phase":0,"sequence":21,"prices":[183,179,188,165,168,173,205,159,187,191],"times":[671,1388,1194,1302,1165,1001,839,849],"next_num":8,"trial_type":"ticket-choose","trial_index":41,"time_elapsed":1216690,"internal_node_id":"0.0-41.0"},{"result":166,"points":1,"place":2,"phase":0,"sequence":22,"prices":[165,175,186,214,177,179,187,166,153,208],"times":[2397,767,851,828,949,1064,1242,1175],"next_num":8,"trial_type":"ticket-choose","trial_index":42,"time_elapsed":1229520,"internal_node_id":"0.0-42.0"},{"result":165,"points":2,"place":1,"phase":0,"sequence":23,"prices":[165,175,187,209,177,180,188,167,154,208],"times":[2093],"next_num":1,"trial_type":"ticket-choose","trial_index":43,"time_elapsed":1233994,"internal_node_id":"0.0-43.0"},{"result":163,"points":2,"place":1,"phase":0,"sequence":24,"prices":[176,187,179,209,163,180,188,165,154,208],"times":[868,1014,1478,997,2286],"next_num":5,"trial_type":"ticket-choose","trial_index":44,"time_elapsed":1243815,"internal_node_id":"0.0-44.0"},{"result":163,"points":2,"place":1,"phase":0,"sequence":25,"prices":[163,174,186,212,176,181,187,166,153,209],"times":[1674],"next_num":1,"trial_type":"ticket-choose","trial_index":45,"time_elapsed":1248232,"internal_node_id":"0.0-45.0"},{"result":157,"points":3,"place":0,"phase":0,"sequence":26,"prices":[201,187,157,184,198,179,188,185,178,170],"times":[5952,1062,1201],"next_num":3,"trial_type":"ticket-choose","trial_index":46,"time_elapsed":1259517,"internal_node_id":"0.0-46.0"},{"result":158,"points":3,"place":0,"phase":0,"sequence":27,"prices":[214,184,226,192,215,158,199,175,176,208],"times":[818,800,988,1038,1149,1089],"next_num":6,"trial_type":"ticket-choose","trial_index":47,"time_elapsed":1268635,"internal_node_id":"0.0-47.0"},{"result":159,"points":1,"place":2,"phase":0,"sequence":28,"prices":[181,159,149,175,185,151,163,174,178,207],"times":[2194,1205],"next_num":2,"trial_type":"ticket-choose","trial_index":48,"time_elapsed":1274943,"internal_node_id":"0.0-48.0"},{"result":186,"points":1,"place":4,"phase":0,"sequence":29,"prices":[220,173,201,197,169,205,198,183,178,186],"times":[666,721,749,592,1138,895,2644,1157,1195,921],"next_num":11,"trial_type":"ticket-choose","trial_index":49,"time_elapsed":1291063,"internal_node_id":"0.0-49.0"},{"result":156,"points":2,"place":1,"phase":0,"sequence":30,"prices":[180,156,149,160,168,186,172,198,176,195],"times":[1413,1155],"next_num":2,"trial_type":"ticket-choose","trial_index":50,"time_elapsed":1296236,"internal_node_id":"0.0-50.0"},{"result":166,"points":1,"place":2,"phase":0,"sequence":31,"prices":[176,186,178,217,163,181,187,166,153,209],"times":[849,908,737,612,2584,641,907,1332],"next_num":8,"trial_type":"ticket-choose","trial_index":51,"time_elapsed":1308176,"internal_node_id":"0.0-51.0"},{"result":155,"points":2,"place":1,"phase":0,"sequence":32,"prices":[200,207,155,158,156,168,167,135,178,177],"times":[905,689,988],"next_num":3,"trial_type":"ticket-choose","trial_index":52,"time_elapsed":1313182,"internal_node_id":"0.0-52.0"},{"result":147,"points":3,"place":0,"phase":0,"sequence":33,"prices":[181,214,169,147,182,193,178,184,176,179],"times":[702,702,840,1012],"next_num":4,"trial_type":"ticket-choose","trial_index":53,"time_elapsed":1319395,"internal_node_id":"0.0-53.0"},{"result":165,"points":1,"place":2,"phase":0,"sequence":34,"prices":[171,169,186,165,163,167,220,148,187,165],"times":[3498,1155,625,1813],"next_num":4,"trial_type":"ticket-choose","trial_index":54,"time_elapsed":1329275,"internal_node_id":"0.0-54.0"},{"result":165,"points":3,"place":0,"phase":0,"sequence":35,"prices":[192,172,171,178,188,165,217,168,195,197],"times":[873,682,581,968,708,2041],"next_num":6,"trial_type":"ticket-choose","trial_index":55,"time_elapsed":1338541,"internal_node_id":"0.0-55.0"},{"result":166,"points":1,"place":2,"phase":0,"sequence":36,"prices":[177,174,186,217,165,181,187,166,153,209],"times":[1868,1408,1565,1028,1394,1039,1054,1692],"next_num":8,"trial_type":"ticket-choose","trial_index":56,"time_elapsed":1353020,"internal_node_id":"0.0-56.0"},{"result":157,"points":3,"place":0,"phase":0,"sequence":37,"prices":[191,170,182,165,175,182,203,157,195,200],"times":[1441,972,647,2265,959,1051,1015,925],"next_num":8,"trial_type":"ticket-choose","trial_index":57,"time_elapsed":1365806,"internal_node_id":"0.0-57.0"},{"result":166,"points":1,"place":2,"phase":0,"sequence":38,"prices":[165,174,186,212,177,181,187,166,153,209],"times":[3697,826,872,1102,867,1032,922,1405],"next_num":8,"trial_type":"ticket-choose","trial_index":58,"time_elapsed":1380023,"internal_node_id":"0.0-58.0"},{"result":150,"points":3,"place":0,"phase":0,"sequence":39,"prices":[190,150,175,161,188,207,157,194,178,199],"times":[741,1032],"next_num":2,"trial_type":"ticket-choose","trial_index":59,"time_elapsed":1384257,"internal_node_id":"0.0-59.0"},{"result":158,"points":2,"place":1,"phase":0,"sequence":40,"prices":[158,175,186,209,177,181,188,167,208,154],"times":[1560],"next_num":1,"trial_type":"ticket-choose","trial_index":60,"time_elapsed":1388214,"internal_node_id":"0.0-60.0"},{"result":184,"points":1,"place":4,"phase":0,"sequence":41,"prices":[193,181,175,181,185,165,224,199,218,184],"times":[906,778,1075,1158,1072,1979,1214,1269,1408,1595],"next_num":10,"trial_type":"ticket-choose","trial_index":61,"time_elapsed":1404525,"internal_node_id":"0.0-61.0"},{"result":165,"points":2,"place":1,"phase":0,"sequence":42,"prices":[201,204,179,166,185,165,214,156,202,165],"times":[1839,894,659,2461,755,1269],"next_num":6,"trial_type":"ticket-choose","trial_index":62,"time_elapsed":1415623,"internal_node_id":"0.0-62.0"},{"result":165,"points":2,"place":1,"phase":0,"sequence":43,"prices":[177,175,187,209,165,180,188,165,154,208],"times":[2413,952,1125,1286,1302,1077,1702,1177],"next_num":8,"trial_type":"ticket-choose","trial_index":63,"time_elapsed":1430622,"internal_node_id":"0.0-63.0"},{"result":165,"points":1,"place":2,"phase":0,"sequence":44,"prices":[163,175,187,209,176,180,188,165,154,208],"times":[3271,585,638,642,948,1151,966,1362],"next_num":8,"trial_type":"ticket-choose","trial_index":64,"time_elapsed":1443602,"internal_node_id":"0.0-64.0"},{"result":151,"points":3,"place":0,"phase":0,"sequence":45,"prices":[199,193,169,165,202,182,151,164,176,171],"times":[1005,1035,1045,1045,975,770,1191],"next_num":7,"trial_type":"ticket-choose","trial_index":65,"time_elapsed":1455069,"internal_node_id":"0.0-65.0"},{"result":154,"points":3,"place":0,"phase":0,"sequence":46,"prices":[187,201,165,172,196,174,178,154,172,180],"times":[2250,610,1052,652,1037,809,704,961],"next_num":8,"trial_type":"ticket-choose","trial_index":66,"time_elapsed":1466920,"internal_node_id":"0.0-66.0"},{"result":153,"points":3,"place":0,"phase":0,"sequence":47,"prices":[167,175,186,225,178,179,187,169,209,153],"times":[1203,652,587,651,701,853,842,995,815,1165],"next_num":10,"trial_type":"ticket-choose","trial_index":67,"time_elapsed":1479794,"internal_node_id":"0.0-67.0"},{"result":165,"points":1,"place":2,"phase":0,"sequence":48,"prices":[200,173,182,169,207,165,152,202,161,204],"times":[1370,956,801,1172,1028,1688],"next_num":6,"trial_type":"ticket-choose","trial_index":68,"time_elapsed":1490029,"internal_node_id":"0.0-68.0"},{"result":153,"points":3,"place":0,"phase":0,"sequence":49,"prices":[163,175,186,214,176,179,187,166,153,208],"times":[2266,621,641,730,1266,912,1047,1657,991],"next_num":9,"trial_type":"ticket-choose","trial_index":69,"time_elapsed":1505024,"internal_node_id":"0.0-69.0"},{"responses":[{"value":0,"offby":-1,"category":"$115 - $130","category_index":0},{"value":5,"offby":0,"category":"$131 - $145","category_index":1},{"value":10,"offby":-2,"category":"$146 - $160","category_index":2},{"value":20,"offby":-2,"category":"$161 - $175","category_index":3},{"value":40,"offby":6,"category":"$176 - $190","category_index":4},{"value":20,"offby":5,"category":"$191 - $205","category_index":5},{"value":5,"offby":-6,"category":"$206 - $220","category_index":6}],"phase":1,"number":1,"trial_type":"bar-choose","trial_index":70,"time_elapsed":1597567,"internal_node_id":"0.0-70.0"},{"rt":35895,"url":"\/christiane\/tickets\/utils\/testing2.html","trial_type":"point_update","trial_index":71,"time_elapsed":1634858,"internal_node_id":"0.0-71.0"},{"phase":1,"order":[35,5,22,18,15,49,20,45,1,47,3,32,9,21,0,38,39,4,28,23,29,33,6,7,16,14,43,46,44,42,34,17,41,48,31,27,11,30,8,40,19,24,25,10,13,37,36,2,26,12],"trial_type":"store_order","trial_index":72,"time_elapsed":1635859,"internal_node_id":"0.0-72.0"},{"result":153,"points":3,"place":0,"phase":1,"sequence":0,"prices":[175,186,167,225,179,187,178,169,209,153],"times":[1716,571,905,689,641,562,605,1982,861,924],"next_num":10,"trial_type":"ticket-choose","trial_index":73,"time_elapsed":1649388,"internal_node_id":"0.0-73.0"},{"result":158,"points":2,"place":1,"phase":1,"sequence":1,"prices":[175,186,158,211,180,187,177,166,209,153],"times":[2937,842,1012],"next_num":3,"trial_type":"ticket-choose","trial_index":74,"time_elapsed":1656540,"internal_node_id":"0.0-74.0"},{"result":158,"points":2,"place":1,"phase":1,"sequence":2,"prices":[175,186,177,221,180,187,158,166,209,153],"times":[1288,694,1062,761,905,863,1161],"next_num":7,"trial_type":"ticket-choose","trial_index":75,"time_elapsed":1666482,"internal_node_id":"0.0-75.0"},{"result":148,"points":3,"place":0,"phase":1,"sequence":3,"prices":[183,163,185,180,166,148,160,186,176,184],"times":[704,1331,622,838,1031,867],"next_num":6,"trial_type":"ticket-choose","trial_index":76,"time_elapsed":1674962,"internal_node_id":"0.0-76.0"},{"result":150,"points":3,"place":0,"phase":1,"sequence":4,"prices":[189,150,175,160,188,207,158,194,178,199],"times":[3722,1024],"next_num":2,"trial_type":"ticket-choose","trial_index":77,"time_elapsed":1681987,"internal_node_id":"0.0-77.0"},{"result":158,"points":2,"place":1,"phase":1,"sequence":5,"prices":[175,186,177,209,181,188,158,167,208,154],"times":[1381,719,902,842,687,1072,1025],"next_num":7,"trial_type":"ticket-choose","trial_index":78,"time_elapsed":1691942,"internal_node_id":"0.0-78.0"},{"result":155,"points":2,"place":1,"phase":1,"sequence":6,"prices":[201,207,155,158,156,165,167,135,178,177],"times":[909,2025,1116],"next_num":3,"trial_type":"ticket-choose","trial_index":79,"time_elapsed":1701159,"internal_node_id":"0.0-79.0"},{"result":156,"points":3,"place":0,"phase":1,"sequence":7,"prices":[174,186,167,211,181,188,178,168,208,156],"times":[995,712,1000,841,922,792,937,2517,1129,908],"next_num":10,"trial_type":"ticket-choose","trial_index":80,"time_elapsed":1715935,"internal_node_id":"0.0-80.0"},{"result":165,"points":3,"place":0,"phase":1,"sequence":8,"prices":[191,172,169,175,182,203,170,195,165,176],"times":[4070,1188,1182,6609,781,907,1357,1818,2355],"next_num":9,"trial_type":"ticket-choose","trial_index":81,"time_elapsed":1740197,"internal_node_id":"0.0-81.0"},{"result":153,"points":3,"place":0,"phase":1,"sequence":9,"prices":[174,186,165,212,181,187,177,167,153,209],"times":[3416,671,1591,892,864,1019,1317,1776,1036],"next_num":9,"trial_type":"ticket-choose","trial_index":82,"time_elapsed":1756689,"internal_node_id":"0.0-82.0"},{"result":155,"points":2,"place":1,"phase":1,"sequence":10,"prices":[181,155,148,161,168,187,172,199,176,194],"times":[2765,1360],"next_num":2,"trial_type":"ticket-choose","trial_index":83,"time_elapsed":1763310,"internal_node_id":"0.0-83.0"},{"result":165,"points":3,"place":0,"phase":1,"sequence":11,"prices":[183,182,192,168,173,205,167,187,165,170],"times":[927,588,552,746,678,738,1472,1229,1097],"next_num":9,"trial_type":"ticket-choose","trial_index":84,"time_elapsed":1775006,"internal_node_id":"0.0-84.0"},{"result":165,"points":2,"place":1,"phase":1,"sequence":12,"prices":[175,187,177,209,180,188,165,165,154,208],"times":[2954,821,848,969,948,1008,988],"next_num":7,"trial_type":"ticket-choose","trial_index":85,"time_elapsed":1787005,"internal_node_id":"0.0-85.0"},{"result":171,"points":1,"place":3,"phase":1,"sequence":13,"prices":[189,167,180,197,165,168,172,213,178,171],"times":[1030,675,717,906,1830,792,1117,1139,1196,1351],"next_num":10,"trial_type":"ticket-choose","trial_index":86,"time_elapsed":1801683,"internal_node_id":"0.0-86.0"},{"result":163,"points":2,"place":1,"phase":1,"sequence":14,"prices":[198,193,169,163,202,182,152,164,177,171],"times":[873,908,1106,1195],"next_num":4,"trial_type":"ticket-choose","trial_index":87,"time_elapsed":1808432,"internal_node_id":"0.0-87.0"},{"result":158,"points":2,"place":1,"phase":1,"sequence":15,"prices":[176,187,177,225,181,187,158,165,208,153],"times":[798,1141,1088,1068,1050,1038,999],"next_num":7,"trial_type":"ticket-choose","trial_index":88,"time_elapsed":1819116,"internal_node_id":"0.0-88.0"},{"result":156,"points":3,"place":0,"phase":1,"sequence":16,"prices":[175,185,167,224,181,186,178,168,208,156],"times":[1204,735,904,1018,1019,939,1217,3094,1142,838],"next_num":10,"trial_type":"ticket-choose","trial_index":89,"time_elapsed":1835447,"internal_node_id":"0.0-89.0"},{"result":165,"points":2,"place":1,"phase":1,"sequence":17,"prices":[175,186,177,210,179,187,165,166,153,208],"times":[2100,864,1239,1050,1084,1103,974],"next_num":7,"trial_type":"ticket-choose","trial_index":90,"time_elapsed":1847254,"internal_node_id":"0.0-90.0"},{"result":171,"points":1,"place":3,"phase":1,"sequence":18,"prices":[185,170,182,201,173,199,171,188,165,168],"times":[2548,875,985,1149,1108,1585,1672],"next_num":7,"trial_type":"ticket-choose","trial_index":91,"time_elapsed":1860523,"internal_node_id":"0.0-91.0"},{"result":180,"points":1,"place":4,"phase":1,"sequence":19,"prices":[200,165,165,173,182,207,161,202,204,180],"times":[977,1201,1058,928,1319,877,1806,1568,918,1028],"next_num":10,"trial_type":"ticket-choose","trial_index":92,"time_elapsed":1876123,"internal_node_id":"0.0-92.0"},{"result":162,"points":3,"place":0,"phase":1,"sequence":20,"prices":[201,165,162,166,185,214,165,202,204,179],"times":[876,982,1290],"next_num":3,"trial_type":"ticket-choose","trial_index":93,"time_elapsed":1881859,"internal_node_id":"0.0-93.0"},{"result":154,"points":2,"place":1,"phase":1,"sequence":21,"prices":[168,154,172,185,195,144,184,211,177,227],"times":[2139,1019],"next_num":2,"trial_type":"ticket-choose","trial_index":94,"time_elapsed":1887303,"internal_node_id":"0.0-94.0"},{"result":152,"points":3,"place":0,"phase":1,"sequence":22,"prices":[200,181,203,152,175,171,160,154,176,191],"times":[1048,594,820,1095],"next_num":4,"trial_type":"ticket-choose","trial_index":95,"time_elapsed":1893654,"internal_node_id":"0.0-95.0"},{"result":186,"points":1,"place":4,"phase":1,"sequence":23,"prices":[192,165,171,178,188,217,172,195,197,186],"times":[1123,621,1256,914,685,764,735,934,1010,1345],"next_num":10,"trial_type":"ticket-choose","trial_index":96,"time_elapsed":1907071,"internal_node_id":"0.0-96.0"},{"result":147,"points":3,"place":0,"phase":1,"sequence":24,"prices":[181,215,169,147,182,193,177,184,176,179],"times":[1518,1070,1207,1004],"next_num":4,"trial_type":"ticket-choose","trial_index":97,"time_elapsed":1915925,"internal_node_id":"0.0-97.0"},{"result":165,"points":3,"place":0,"phase":1,"sequence":25,"prices":[193,169,171,187,190,224,174,194,165,188],"times":[1356,693,871,1131,1148,1462,2748,1474,1102],"next_num":9,"trial_type":"ticket-choose","trial_index":98,"time_elapsed":1932007,"internal_node_id":"0.0-98.0"},{"result":143,"points":3,"place":0,"phase":1,"sequence":26,"prices":[222,173,202,197,143,205,198,183,178,186],"times":[3065,663,731,825,889],"next_num":5,"trial_type":"ticket-choose","trial_index":99,"time_elapsed":1941122,"internal_node_id":"0.0-99.0"},{"result":165,"points":2,"place":1,"phase":1,"sequence":27,"prices":[175,187,165,209,180,188,177,166,154,208],"times":[2197,668,1152],"next_num":3,"trial_type":"ticket-choose","trial_index":100,"time_elapsed":1947664,"internal_node_id":"0.0-100.0"},{"result":163,"points":2,"place":1,"phase":1,"sequence":28,"prices":[175,186,176,210,179,187,163,166,153,208],"times":[683,906,745,967,989,897,1165],"next_num":7,"trial_type":"ticket-choose","trial_index":101,"time_elapsed":1957417,"internal_node_id":"0.0-101.0"},{"result":185,"points":1,"place":4,"phase":1,"sequence":29,"prices":[196,165,170,184,187,211,171,201,202,185],"times":[723,1087,941,794,914,1052,927,1171,1883,1091],"next_num":10,"trial_type":"ticket-choose","trial_index":102,"time_elapsed":1971826,"internal_node_id":"0.0-102.0"},{"result":167,"points":2,"place":1,"phase":1,"sequence":30,"prices":[175,185,178,215,181,186,167,168,208,156],"times":[968,780,797,875,925,1026,882],"next_num":7,"trial_type":"ticket-choose","trial_index":103,"time_elapsed":1981420,"internal_node_id":"0.0-103.0"},{"result":157,"points":3,"place":0,"phase":1,"sequence":31,"prices":[201,187,157,184,198,179,188,185,178,170],"times":[1280,984,1075],"next_num":3,"trial_type":"ticket-choose","trial_index":104,"time_elapsed":1987649,"internal_node_id":"0.0-104.0"},{"result":165,"points":2,"place":1,"phase":1,"sequence":32,"prices":[188,200,165,172,198,174,177,154,177,180],"times":[1546,954,1545],"next_num":3,"trial_type":"ticket-choose","trial_index":105,"time_elapsed":1994218,"internal_node_id":"0.0-105.0"},{"result":163,"points":2,"place":1,"phase":1,"sequence":33,"prices":[175,187,176,209,180,188,163,165,154,208],"times":[1066,865,788,802,979,1076,889],"next_num":7,"trial_type":"ticket-choose","trial_index":106,"time_elapsed":2003932,"internal_node_id":"0.0-106.0"},{"result":158,"points":2,"place":1,"phase":1,"sequence":34,"prices":[176,187,158,210,181,187,177,165,208,153],"times":[980,1439,1064],"next_num":3,"trial_type":"ticket-choose","trial_index":107,"time_elapsed":2009963,"internal_node_id":"0.0-107.0"},{"result":159,"points":1,"place":2,"phase":1,"sequence":35,"prices":[180,159,149,175,185,141,163,174,178,207],"times":[963,1062],"next_num":2,"trial_type":"ticket-choose","trial_index":108,"time_elapsed":2014215,"internal_node_id":"0.0-108.0"},{"result":166,"points":1,"place":2,"phase":1,"sequence":36,"prices":[175,186,163,214,179,187,176,166,153,208],"times":[866,935,1426,860,827,881,956,1005],"next_num":8,"trial_type":"ticket-choose","trial_index":109,"time_elapsed":2025451,"internal_node_id":"0.0-109.0"},{"result":166,"points":1,"place":2,"phase":1,"sequence":37,"prices":[174,186,163,212,181,187,176,166,153,209],"times":[882,1195,4535,632,642,918,957,1231],"next_num":8,"trial_type":"ticket-choose","trial_index":110,"time_elapsed":2039836,"internal_node_id":"0.0-110.0"},{"result":153,"points":3,"place":0,"phase":1,"sequence":38,"prices":[175,186,178,212,179,187,167,169,209,153],"times":[3113,1368,702,708,940,925,1258,1109,853,974],"next_num":10,"trial_type":"ticket-choose","trial_index":111,"time_elapsed":2055581,"internal_node_id":"0.0-111.0"},{"result":163,"points":2,"place":1,"phase":1,"sequence":39,"prices":[174,186,176,217,181,187,163,166,153,209],"times":[2176,812,784,866,983,1138,2040],"next_num":7,"trial_type":"ticket-choose","trial_index":112,"time_elapsed":2067822,"internal_node_id":"0.0-112.0"},{"result":156,"points":3,"place":0,"phase":1,"sequence":40,"prices":[174,186,178,217,181,188,167,168,208,156],"times":[807,998,694,884,1112,1091,1461,3288,1082,969],"next_num":10,"trial_type":"ticket-choose","trial_index":113,"time_elapsed":2084121,"internal_node_id":"0.0-113.0"},{"result":165,"points":2,"place":1,"phase":1,"sequence":41,"prices":[174,186,177,217,181,187,165,166,153,209],"times":[4253,786,976,1131,810,946,1898],"next_num":7,"trial_type":"ticket-choose","trial_index":114,"time_elapsed":2098157,"internal_node_id":"0.0-114.0"},{"result":166,"points":1,"place":2,"phase":1,"sequence":42,"prices":[175,186,165,214,179,187,177,166,153,208],"times":[1159,704,2035,645,1075,645,819,904],"next_num":8,"trial_type":"ticket-choose","trial_index":115,"time_elapsed":2109563,"internal_node_id":"0.0-115.0"},{"result":154,"points":3,"place":0,"phase":1,"sequence":43,"prices":[175,187,163,209,180,188,176,165,154,208],"times":[1118,870,1308,1036,864,1103,1057,1485,1027],"next_num":9,"trial_type":"ticket-choose","trial_index":116,"time_elapsed":2123151,"internal_node_id":"0.0-116.0"},{"result":184,"points":1,"place":4,"phase":1,"sequence":44,"prices":[193,165,175,181,185,224,180,199,218,184],"times":[3175,2427,656,714,848,1042,1192,1111,1381,1498],"next_num":10,"trial_type":"ticket-choose","trial_index":117,"time_elapsed":2141382,"internal_node_id":"0.0-117.0"},{"result":158,"points":2,"place":1,"phase":1,"sequence":45,"prices":[175,186,158,209,181,188,177,167,208,154],"times":[1200,928,988],"next_num":3,"trial_type":"ticket-choose","trial_index":118,"time_elapsed":2146794,"internal_node_id":"0.0-118.0"},{"result":165,"points":3,"place":0,"phase":1,"sequence":46,"prices":[171,203,175,170,167,220,192,186,165,165],"times":[1644,815,648,1018,773,1223,980,1038,879],"next_num":9,"trial_type":"ticket-choose","trial_index":119,"time_elapsed":2159761,"internal_node_id":"0.0-119.0"},{"result":163,"points":3,"place":0,"phase":1,"sequence":47,"prices":[168,199,196,198,185,195,227,163,177,166],"times":[2380,678,731,945,956,1439,1017,1235],"next_num":8,"trial_type":"ticket-choose","trial_index":120,"time_elapsed":2172910,"internal_node_id":"0.0-120.0"},{"result":164,"points":3,"place":0,"phase":1,"sequence":48,"prices":[212,192,188,184,167,193,189,164,176,170],"times":[2584,628,684,675,1216,821,981,1305],"next_num":8,"trial_type":"ticket-choose","trial_index":121,"time_elapsed":2185364,"internal_node_id":"0.0-121.0"},{"result":158,"points":3,"place":0,"phase":1,"sequence":49,"prices":[210,184,226,193,215,158,199,175,176,208],"times":[2591,1233,724,764,877,1406],"next_num":6,"trial_type":"ticket-choose","trial_index":122,"time_elapsed":2196783,"internal_node_id":"0.0-122.0"},{"responses":[{"value":5,"offby":4,"category":"$115 - $130","category_index":0},{"value":5,"offby":0,"category":"$131 - $145","category_index":1},{"value":10,"offby":-2,"category":"$146 - $160","category_index":2},{"value":25,"offby":3,"category":"$161 - $175","category_index":3},{"value":35,"offby":1,"category":"$176 - $190","category_index":4},{"value":15,"offby":0,"category":"$191 - $205","category_index":5},{"value":5,"offby":-6,"category":"$206 - $220","category_index":6}],"phase":1,"number":1,"trial_type":"bar-choose","trial_index":123,"time_elapsed":2262977,"internal_node_id":"0.0-123.0"},{"special_comment":"No","trial_type":"special_sequence","trial_index":124,"time_elapsed":2272157,"internal_node_id":"0.0-124.0"},{"during":"Nothing","bonus":276,"trial_type":"final","trial_index":125,"time_elapsed":2305097,"internal_node_id":"0.0-125.0"}],"bonus":276}