{"start_time":"2017-05-24 16:29:44","end_time":"2017-05-24 16:53:05","points_phase0":96,"points_phase1":99,"phase_order":1,"age":40,"gender":"f","tries":1,"during":"Nothing","worker_id":"A2LVCS009DMEAT","assignment_id":"3E337GFOLA1T4ID0H84SUTZL69YGNF","data":[{"rt":34917,"url":"\/christiane\/tickets\/utils\/consent.html","trial_type":"html","trial_index":0,"time_elapsed":35602,"internal_node_id":"0.0-0.0"},{"age":40,"gender":"f","trial_type":"age","trial_index":1,"time_elapsed":63059,"internal_node_id":"0.0-1.0"},{"worker_id":"A2LVCS009DMEAT","trial_type":"workerid","trial_index":2,"time_elapsed":75347,"internal_node_id":"0.0-2.0"},{"tries":1,"trial_type":"instructions_check","trial_index":3,"time_elapsed":100095,"internal_node_id":"0.0-3.0"},{"rt":15465,"url":"\/christiane\/tickets\/utils\/start.html","trial_type":"html","trial_index":4,"time_elapsed":116682,"internal_node_id":"0.0-4.0"},{"trial_type":"number-animation","trial_index":5,"time_elapsed":138645,"internal_node_id":"0.0-5.0"},{"phase":0,"sequence":0,"avg":181,"response":165,"trial_type":"training_avg","trial_index":6,"time_elapsed":150264,"internal_node_id":"0.0-6.0"},{"trial_type":"number-animation","trial_index":7,"time_elapsed":169266,"internal_node_id":"0.0-7.0"},{"phase":0,"sequence":1,"avg":188,"response":185,"trial_type":"training_avg","trial_index":8,"time_elapsed":180642,"internal_node_id":"0.0-8.0"},{"trial_type":"number-animation","trial_index":9,"time_elapsed":201847,"internal_node_id":"0.0-9.0"},{"phase":0,"sequence":2,"avg":188,"response":182,"trial_type":"training_avg","trial_index":10,"time_elapsed":222725,"internal_node_id":"0.0-10.0"},{"trial_type":"number-animation","trial_index":11,"time_elapsed":273342,"internal_node_id":"0.0-11.0"},{"phase":0,"sequence":3,"avg":177,"response":177,"trial_type":"training_avg","trial_index":12,"time_elapsed":288859,"internal_node_id":"0.0-12.0"},{"trial_type":"number-animation","trial_index":13,"time_elapsed":317877,"internal_node_id":"0.0-13.0"},{"phase":0,"sequence":4,"avg":182,"response":171,"trial_type":"training_avg","trial_index":14,"time_elapsed":328952,"internal_node_id":"0.0-14.0"},{"responses":[{"value":0,"offby":-1,"category":"$115 - $130","category_index":0},{"value":0,"offby":-5,"category":"$131 - $145","category_index":1},{"value":3,"offby":-9,"category":"$146 - $160","category_index":2},{"value":50,"offby":28,"category":"$161 - $175","category_index":3},{"value":15,"offby":-19,"category":"$176 - $190","category_index":4},{"value":20,"offby":5,"category":"$191 - $205","category_index":5},{"value":12,"offby":1,"category":"$206 - $220","category_index":6}],"phase":0,"number":0,"trial_type":"bar-choose","trial_index":15,"time_elapsed":414691,"internal_node_id":"0.0-15.0"},{"rt":16888,"url":"\/christiane\/tickets\/utils\/testing.html","trial_type":"html","trial_index":16,"time_elapsed":432700,"internal_node_id":"0.0-16.0"},{"phase":0,"order":[1,3,15,30,47,5,35,42,40,21,44,26,28,31,38,46,41,18,12,29,32,4,6,10,7,45,11,34,16,36,20,33,24,0,2,25,37,49,8,13,27,23,48,9,19,39,43,14,17,22],"trial_type":"store_order","trial_index":17,"time_elapsed":433705,"internal_node_id":"0.0-17.0"},{"result":165,"points":2,"place":1,"phase":0,"sequence":-1,"prices":[184,180,224,165,181,199,185,193,218,146],"times":[7903,2502,1464,1981],"next_num":4,"trial_type":"ticket-choose","trial_index":18,"time_elapsed":451093,"internal_node_id":"0.0-18.0"},{"rt":18140,"url":"\/christiane\/tickets\/utils\/testing_after.html","trial_type":"html","trial_index":19,"time_elapsed":470380,"internal_node_id":"0.0-19.0"},{"result":167,"points":2,"place":1,"phase":0,"sequence":0,"prices":[189,167,180,197,165,168,172,213,178,171],"times":[2190,3623],"next_num":2,"trial_type":"ticket-choose","trial_index":20,"time_elapsed":479647,"internal_node_id":"0.0-20.0"},{"result":147,"points":3,"place":0,"phase":0,"sequence":1,"prices":[181,214,169,147,182,193,178,184,176,179],"times":[1509,1182,3401,1722],"next_num":4,"trial_type":"ticket-choose","trial_index":21,"time_elapsed":491662,"internal_node_id":"0.0-21.0"},{"result":158,"points":2,"place":1,"phase":0,"sequence":2,"prices":[177,176,187,225,158,181,187,165,208,153],"times":[1791,1742,1020,1156,2171],"next_num":5,"trial_type":"ticket-choose","trial_index":22,"time_elapsed":503534,"internal_node_id":"0.0-22.0"},{"result":207,"points":0,"place":9,"phase":0,"sequence":3,"prices":[181,159,149,175,185,151,163,174,178,207],"times":[1228,2856,4853,917,829,939,915,888,1711,2489],"next_num":10,"trial_type":"ticket-choose","trial_index":23,"time_elapsed":526095,"internal_node_id":"0.0-23.0"},{"result":165,"points":1,"place":2,"phase":0,"sequence":4,"prices":[171,169,186,165,163,167,220,148,187,165],"times":[1704,2254,990,2910],"next_num":4,"trial_type":"ticket-choose","trial_index":24,"time_elapsed":537146,"internal_node_id":"0.0-24.0"},{"result":165,"points":2,"place":1,"phase":0,"sequence":5,"prices":[177,174,186,217,165,181,187,166,153,209],"times":[1349,1351,978,992,1653],"next_num":5,"trial_type":"ticket-choose","trial_index":25,"time_elapsed":546917,"internal_node_id":"0.0-25.0"},{"result":148,"points":3,"place":0,"phase":0,"sequence":6,"prices":[173,163,185,181,166,148,160,185,176,184],"times":[1587,3340,972,1064,1368,1434],"next_num":6,"trial_type":"ticket-choose","trial_index":26,"time_elapsed":561014,"internal_node_id":"0.0-26.0"},{"result":167,"points":2,"place":1,"phase":0,"sequence":7,"prices":[178,174,186,217,167,181,188,168,208,156],"times":[1369,1427,1057,986,2895],"next_num":5,"trial_type":"ticket-choose","trial_index":27,"time_elapsed":572238,"internal_node_id":"0.0-27.0"},{"result":157,"points":3,"place":0,"phase":0,"sequence":8,"prices":[201,187,157,184,198,179,188,185,178,170],"times":[1150,1106,1885],"next_num":3,"trial_type":"ticket-choose","trial_index":28,"time_elapsed":579735,"internal_node_id":"0.0-28.0"},{"result":165,"points":3,"place":0,"phase":0,"sequence":9,"prices":[196,171,170,184,187,165,211,169,201,202],"times":[3827,1146,1179,1143,906,1854],"next_num":6,"trial_type":"ticket-choose","trial_index":29,"time_elapsed":593654,"internal_node_id":"0.0-29.0"},{"result":169,"points":1,"place":2,"phase":0,"sequence":10,"prices":[167,175,186,225,178,179,187,169,209,153],"times":[3547,718,605,887,899,711,762,2437],"next_num":8,"trial_type":"ticket-choose","trial_index":30,"time_elapsed":608211,"internal_node_id":"0.0-30.0"},{"result":163,"points":2,"place":1,"phase":0,"sequence":11,"prices":[163,175,186,214,176,179,187,166,153,208],"times":[2308],"next_num":1,"trial_type":"ticket-choose","trial_index":31,"time_elapsed":613297,"internal_node_id":"0.0-31.0"},{"result":158,"points":2,"place":1,"phase":0,"sequence":12,"prices":[177,175,186,221,158,180,187,166,209,153],"times":[1266,1032,988,826,1285],"next_num":5,"trial_type":"ticket-choose","trial_index":32,"time_elapsed":622575,"internal_node_id":"0.0-32.0"},{"result":167,"points":2,"place":1,"phase":0,"sequence":13,"prices":[178,175,185,215,167,181,186,168,208,156],"times":[1566,994,1020,947,2716],"next_num":5,"trial_type":"ticket-choose","trial_index":33,"time_elapsed":633244,"internal_node_id":"0.0-33.0"},{"result":169,"points":3,"place":0,"phase":0,"sequence":14,"prices":[220,173,201,197,169,205,198,183,178,186],"times":[1138,1086,1020,1189,1509],"next_num":5,"trial_type":"ticket-choose","trial_index":34,"time_elapsed":642563,"internal_node_id":"0.0-34.0"},{"result":150,"points":3,"place":0,"phase":0,"sequence":15,"prices":[190,150,175,161,188,207,157,194,178,199],"times":[1089,2538],"next_num":2,"trial_type":"ticket-choose","trial_index":35,"time_elapsed":648943,"internal_node_id":"0.0-35.0"},{"result":153,"points":2,"place":1,"phase":0,"sequence":16,"prices":[167,153,172,185,195,143,184,211,177,227],"times":[1312,2810],"next_num":2,"trial_type":"ticket-choose","trial_index":36,"time_elapsed":655710,"internal_node_id":"0.0-36.0"},{"result":167,"points":2,"place":1,"phase":0,"sequence":17,"prices":[178,175,186,212,167,179,187,169,209,153],"times":[1710,1145,968,848,2208],"next_num":5,"trial_type":"ticket-choose","trial_index":37,"time_elapsed":666066,"internal_node_id":"0.0-37.0"},{"result":179,"points":1,"place":4,"phase":0,"sequence":18,"prices":[201,204,179,166,185,165,214,156,202,165],"times":[1230,872,1612],"next_num":3,"trial_type":"ticket-choose","trial_index":38,"time_elapsed":672812,"internal_node_id":"0.0-38.0"},{"result":163,"points":2,"place":1,"phase":0,"sequence":19,"prices":[176,186,178,217,163,181,187,166,153,209],"times":[1702,1485,1815,1103,1518],"next_num":5,"trial_type":"ticket-choose","trial_index":39,"time_elapsed":683956,"internal_node_id":"0.0-39.0"},{"result":166,"points":1,"place":2,"phase":0,"sequence":20,"prices":[163,174,186,212,176,181,187,166,153,209],"times":[1255,1591,1014,910,971,1040,918,2513],"next_num":8,"trial_type":"ticket-choose","trial_index":40,"time_elapsed":698262,"internal_node_id":"0.0-40.0"},{"result":184,"points":1,"place":4,"phase":0,"sequence":21,"prices":[193,181,175,181,185,165,224,199,218,184],"times":[1238,1761,734,710,771,754,1596,2063,1525,1036],"next_num":10,"trial_type":"ticket-choose","trial_index":41,"time_elapsed":714935,"internal_node_id":"0.0-41.0"},{"result":165,"points":1,"place":2,"phase":0,"sequence":22,"prices":[185,179,191,165,161,173,199,150,188,168],"times":[1563,1486,836,1250],"next_num":4,"trial_type":"ticket-choose","trial_index":42,"time_elapsed":722981,"internal_node_id":"0.0-42.0"},{"result":169,"points":1,"place":3,"phase":0,"sequence":23,"prices":[199,193,169,165,202,182,151,164,176,171],"times":[1140,866,1489],"next_num":3,"trial_type":"ticket-choose","trial_index":43,"time_elapsed":729303,"internal_node_id":"0.0-43.0"},{"result":169,"points":1,"place":3,"phase":0,"sequence":24,"prices":[200,173,182,169,207,165,152,202,161,204],"times":[850,1722,823,1066],"next_num":4,"trial_type":"ticket-choose","trial_index":44,"time_elapsed":736792,"internal_node_id":"0.0-44.0"},{"result":152,"points":3,"place":0,"phase":0,"sequence":25,"prices":[200,180,203,152,175,170,160,154,176,191],"times":[883,580,941,1443],"next_num":4,"trial_type":"ticket-choose","trial_index":45,"time_elapsed":743569,"internal_node_id":"0.0-45.0"},{"result":172,"points":1,"place":3,"phase":0,"sequence":26,"prices":[192,172,171,178,188,165,217,168,195,197],"times":[920,2006],"next_num":2,"trial_type":"ticket-choose","trial_index":46,"time_elapsed":749009,"internal_node_id":"0.0-46.0"},{"result":158,"points":2,"place":1,"phase":0,"sequence":27,"prices":[158,176,187,210,177,181,187,165,208,153],"times":[1346],"next_num":1,"trial_type":"ticket-choose","trial_index":47,"time_elapsed":752871,"internal_node_id":"0.0-47.0"},{"result":165,"points":2,"place":1,"phase":0,"sequence":28,"prices":[165,175,186,214,177,179,187,166,153,208],"times":[3055],"next_num":1,"trial_type":"ticket-choose","trial_index":48,"time_elapsed":758501,"internal_node_id":"0.0-48.0"},{"result":163,"points":2,"place":1,"phase":0,"sequence":29,"prices":[163,175,187,209,176,180,188,165,154,208],"times":[3019],"next_num":1,"trial_type":"ticket-choose","trial_index":49,"time_elapsed":764081,"internal_node_id":"0.0-49.0"},{"result":163,"points":3,"place":0,"phase":0,"sequence":30,"prices":[163,199,196,199,185,195,227,163,177,166],"times":[1550,773,769,758,995,790,754,1371],"next_num":8,"trial_type":"ticket-choose","trial_index":50,"time_elapsed":775896,"internal_node_id":"0.0-50.0"},{"result":158,"points":3,"place":0,"phase":0,"sequence":31,"prices":[214,184,226,192,215,158,199,175,176,208],"times":[1470,1197,1045,1086,758,1195],"next_num":6,"trial_type":"ticket-choose","trial_index":51,"time_elapsed":786024,"internal_node_id":"0.0-51.0"},{"result":163,"points":2,"place":1,"phase":0,"sequence":32,"prices":[176,175,186,210,163,179,187,166,153,208],"times":[1419,1166,848,765,1235],"next_num":5,"trial_type":"ticket-choose","trial_index":52,"time_elapsed":794653,"internal_node_id":"0.0-52.0"},{"result":163,"points":2,"place":1,"phase":0,"sequence":33,"prices":[176,187,179,209,163,180,188,165,154,208],"times":[1180,780,868,756,1197],"next_num":5,"trial_type":"ticket-choose","trial_index":53,"time_elapsed":802573,"internal_node_id":"0.0-53.0"},{"result":158,"points":2,"place":1,"phase":0,"sequence":34,"prices":[158,175,186,211,177,180,187,166,209,153],"times":[1354],"next_num":1,"trial_type":"ticket-choose","trial_index":54,"time_elapsed":806142,"internal_node_id":"0.0-54.0"},{"result":155,"points":2,"place":1,"phase":0,"sequence":35,"prices":[200,207,155,158,156,168,167,135,178,177],"times":[931,811,1304],"next_num":3,"trial_type":"ticket-choose","trial_index":55,"time_elapsed":811712,"internal_node_id":"0.0-55.0"},{"result":165,"points":2,"place":1,"phase":0,"sequence":36,"prices":[193,174,224,165,187,190,224,161,194,195],"times":[885,1880,925,1175],"next_num":4,"trial_type":"ticket-choose","trial_index":56,"time_elapsed":819496,"internal_node_id":"0.0-56.0"},{"result":164,"points":3,"place":0,"phase":0,"sequence":37,"prices":[199,191,188,174,167,193,189,164,176,170],"times":[989,871,1247,1120,1308,1110,801,1240],"next_num":8,"trial_type":"ticket-choose","trial_index":57,"time_elapsed":831977,"internal_node_id":"0.0-57.0"},{"result":166,"points":1,"place":2,"phase":0,"sequence":38,"prices":[165,174,186,212,177,181,187,166,153,209],"times":[1664,1145,749,747,696,969,769,1957],"next_num":8,"trial_type":"ticket-choose","trial_index":58,"time_elapsed":844287,"internal_node_id":"0.0-58.0"},{"result":165,"points":2,"place":1,"phase":0,"sequence":39,"prices":[177,175,186,210,165,179,187,166,153,208],"times":[1094,1440,925,915,1394],"next_num":5,"trial_type":"ticket-choose","trial_index":59,"time_elapsed":853069,"internal_node_id":"0.0-59.0"},{"result":158,"points":2,"place":1,"phase":0,"sequence":40,"prices":[177,175,186,209,158,181,188,167,208,154],"times":[948,1100,1195,815,1273],"next_num":5,"trial_type":"ticket-choose","trial_index":60,"time_elapsed":861588,"internal_node_id":"0.0-60.0"},{"result":165,"points":2,"place":1,"phase":0,"sequence":41,"prices":[187,201,165,172,196,174,178,154,172,180],"times":[948,792,1361],"next_num":3,"trial_type":"ticket-choose","trial_index":61,"time_elapsed":867418,"internal_node_id":"0.0-61.0"},{"result":168,"points":1,"place":2,"phase":0,"sequence":42,"prices":[167,174,186,211,178,181,188,168,208,156],"times":[874,705,735,723,669,889,1029,1182],"next_num":8,"trial_type":"ticket-choose","trial_index":62,"time_elapsed":877888,"internal_node_id":"0.0-62.0"},{"result":165,"points":2,"place":1,"phase":0,"sequence":43,"prices":[177,175,187,209,165,180,188,165,154,208],"times":[1924,3231,782,773,1195],"next_num":5,"trial_type":"ticket-choose","trial_index":63,"time_elapsed":888898,"internal_node_id":"0.0-63.0"},{"result":158,"points":2,"place":1,"phase":0,"sequence":44,"prices":[158,175,186,209,177,181,188,167,208,154],"times":[1409],"next_num":1,"trial_type":"ticket-choose","trial_index":64,"time_elapsed":892609,"internal_node_id":"0.0-64.0"},{"result":165,"points":2,"place":1,"phase":0,"sequence":45,"prices":[183,179,188,165,168,173,205,159,187,191],"times":[1303,1030,798,1180],"next_num":4,"trial_type":"ticket-choose","trial_index":65,"time_elapsed":900821,"internal_node_id":"0.0-65.0"},{"result":156,"points":2,"place":1,"phase":0,"sequence":46,"prices":[180,156,149,160,168,186,172,198,176,195],"times":[948,1162],"next_num":2,"trial_type":"ticket-choose","trial_index":66,"time_elapsed":905496,"internal_node_id":"0.0-66.0"},{"result":168,"points":1,"place":2,"phase":0,"sequence":47,"prices":[167,175,185,224,178,181,186,168,208,156],"times":[945,823,1575,819,1170,746,856,1118],"next_num":8,"trial_type":"ticket-choose","trial_index":67,"time_elapsed":917174,"internal_node_id":"0.0-67.0"},{"result":165,"points":2,"place":1,"phase":0,"sequence":48,"prices":[191,170,182,165,175,182,203,157,195,200],"times":[1085,1600,1264,1455],"next_num":4,"trial_type":"ticket-choose","trial_index":68,"time_elapsed":925297,"internal_node_id":"0.0-68.0"},{"result":165,"points":2,"place":1,"phase":0,"sequence":49,"prices":[165,175,187,209,177,180,188,167,154,208],"times":[2674],"next_num":1,"trial_type":"ticket-choose","trial_index":69,"time_elapsed":930292,"internal_node_id":"0.0-69.0"},{"responses":[{"value":0,"offby":-1,"category":"$115 - $130","category_index":0},{"value":5,"offby":0,"category":"$131 - $145","category_index":1},{"value":30,"offby":18,"category":"$146 - $160","category_index":2},{"value":25,"offby":3,"category":"$161 - $175","category_index":3},{"value":20,"offby":-14,"category":"$176 - $190","category_index":4},{"value":5,"offby":-10,"category":"$191 - $205","category_index":5},{"value":5,"offby":-6,"category":"$206 - $220","category_index":6}],"phase":1,"number":1,"trial_type":"bar-choose","trial_index":70,"time_elapsed":972213,"internal_node_id":"0.0-70.0"},{"rt":13225,"url":"\/christiane\/tickets\/utils\/testing2.html","trial_type":"point_update","trial_index":71,"time_elapsed":986756,"internal_node_id":"0.0-71.0"},{"phase":1,"order":[39,48,23,44,31,11,49,3,43,28,2,12,21,4,42,40,35,5,25,17,14,24,29,37,26,47,27,20,6,13,38,46,15,16,18,41,32,45,8,9,22,36,0,10,19,33,34,1,30,7],"trial_type":"store_order","trial_index":72,"time_elapsed":987761,"internal_node_id":"0.0-72.0"},{"result":167,"points":2,"place":1,"phase":1,"sequence":0,"prices":[175,185,167,224,181,186,178,168,208,156],"times":[24511,793,1342],"next_num":3,"trial_type":"ticket-choose","trial_index":73,"time_elapsed":1017005,"internal_node_id":"0.0-73.0"},{"result":167,"points":2,"place":1,"phase":1,"sequence":1,"prices":[174,186,178,217,181,188,167,168,208,156],"times":[1048,646,673,726,849,709,1782],"next_num":7,"trial_type":"ticket-choose","trial_index":74,"time_elapsed":1027299,"internal_node_id":"0.0-74.0"},{"result":163,"points":2,"place":1,"phase":1,"sequence":2,"prices":[175,186,176,210,179,187,163,166,153,208],"times":[1304,734,691,760,721,844,1259],"next_num":7,"trial_type":"ticket-choose","trial_index":75,"time_elapsed":1037026,"internal_node_id":"0.0-75.0"},{"result":169,"points":2,"place":1,"phase":1,"sequence":3,"prices":[191,172,169,175,182,203,170,195,165,176],"times":[986,666,1823],"next_num":3,"trial_type":"ticket-choose","trial_index":76,"time_elapsed":1042893,"internal_node_id":"0.0-76.0"},{"result":152,"points":3,"place":0,"phase":1,"sequence":4,"prices":[200,181,203,152,175,171,160,154,176,191],"times":[1814,757,750,1095],"next_num":4,"trial_type":"ticket-choose","trial_index":77,"time_elapsed":1050132,"internal_node_id":"0.0-77.0"},{"result":167,"points":2,"place":1,"phase":1,"sequence":5,"prices":[175,186,178,212,179,187,167,169,209,153],"times":[815,1943,998,741,819,721,1877],"next_num":7,"trial_type":"ticket-choose","trial_index":78,"time_elapsed":1061511,"internal_node_id":"0.0-78.0"},{"result":168,"points":1,"place":2,"phase":1,"sequence":6,"prices":[168,154,172,185,195,144,184,211,177,227],"times":[1221],"next_num":1,"trial_type":"ticket-choose","trial_index":79,"time_elapsed":1064894,"internal_node_id":"0.0-79.0"},{"result":173,"points":2,"place":1,"phase":1,"sequence":7,"prices":[222,173,202,197,143,205,198,183,178,186],"times":[1172,1206],"next_num":2,"trial_type":"ticket-choose","trial_index":80,"time_elapsed":1069652,"internal_node_id":"0.0-80.0"},{"result":150,"points":3,"place":0,"phase":1,"sequence":8,"prices":[189,150,175,160,188,207,158,194,178,199],"times":[898,1129],"next_num":2,"trial_type":"ticket-choose","trial_index":81,"time_elapsed":1074977,"internal_node_id":"0.0-81.0"},{"result":158,"points":2,"place":1,"phase":1,"sequence":9,"prices":[175,186,177,221,180,187,158,166,209,153],"times":[1147,812,1724,911,995,800,1098],"next_num":7,"trial_type":"ticket-choose","trial_index":82,"time_elapsed":1085912,"internal_node_id":"0.0-82.0"},{"result":159,"points":1,"place":2,"phase":1,"sequence":10,"prices":[180,159,149,175,185,141,163,174,178,207],"times":[1002,1238],"next_num":2,"trial_type":"ticket-choose","trial_index":83,"time_elapsed":1090456,"internal_node_id":"0.0-83.0"},{"result":165,"points":2,"place":1,"phase":1,"sequence":11,"prices":[200,165,165,173,182,207,161,202,204,180],"times":[877,1272],"next_num":2,"trial_type":"ticket-choose","trial_index":84,"time_elapsed":1094861,"internal_node_id":"0.0-84.0"},{"result":165,"points":3,"place":0,"phase":1,"sequence":12,"prices":[196,165,170,184,187,211,171,201,202,185],"times":[808,1127],"next_num":2,"trial_type":"ticket-choose","trial_index":85,"time_elapsed":1099109,"internal_node_id":"0.0-85.0"},{"result":167,"points":1,"place":2,"phase":1,"sequence":13,"prices":[171,203,175,170,167,220,192,186,165,165],"times":[845,728,715,781,1031],"next_num":5,"trial_type":"ticket-choose","trial_index":86,"time_elapsed":1106058,"internal_node_id":"0.0-86.0"},{"result":168,"points":1,"place":2,"phase":1,"sequence":14,"prices":[168,199,196,198,185,195,227,163,177,166],"times":[1137],"next_num":1,"trial_type":"ticket-choose","trial_index":87,"time_elapsed":1109258,"internal_node_id":"0.0-87.0"},{"result":158,"points":3,"place":0,"phase":1,"sequence":15,"prices":[210,184,226,193,215,158,199,175,176,208],"times":[817,934,708,729,708,1324],"next_num":6,"trial_type":"ticket-choose","trial_index":88,"time_elapsed":1117672,"internal_node_id":"0.0-88.0"},{"result":155,"points":2,"place":1,"phase":1,"sequence":16,"prices":[201,207,155,158,156,165,167,135,178,177],"times":[788,660,1138],"next_num":3,"trial_type":"ticket-choose","trial_index":89,"time_elapsed":1122761,"internal_node_id":"0.0-89.0"},{"result":158,"points":2,"place":1,"phase":1,"sequence":17,"prices":[175,186,158,211,180,187,177,166,209,153],"times":[1060,759,1053],"next_num":3,"trial_type":"ticket-choose","trial_index":90,"time_elapsed":1128169,"internal_node_id":"0.0-90.0"},{"result":166,"points":1,"place":2,"phase":1,"sequence":18,"prices":[175,186,163,214,179,187,176,166,153,208],"times":[897,710,736,816,698,701,713,1128],"next_num":8,"trial_type":"ticket-choose","trial_index":91,"time_elapsed":1138076,"internal_node_id":"0.0-91.0"},{"result":171,"points":1,"place":3,"phase":1,"sequence":19,"prices":[185,170,182,201,173,199,171,188,165,168],"times":[938,718,756,727,729,790,1443],"next_num":7,"trial_type":"ticket-choose","trial_index":92,"time_elapsed":1147625,"internal_node_id":"0.0-92.0"},{"result":169,"points":2,"place":1,"phase":1,"sequence":20,"prices":[193,169,171,187,190,224,174,194,165,188],"times":[831,1743],"next_num":2,"trial_type":"ticket-choose","trial_index":93,"time_elapsed":1152441,"internal_node_id":"0.0-93.0"},{"result":167,"points":2,"place":1,"phase":1,"sequence":21,"prices":[175,185,178,215,181,186,167,168,208,156],"times":[1050,811,673,779,893,837,1216],"next_num":7,"trial_type":"ticket-choose","trial_index":94,"time_elapsed":1162112,"internal_node_id":"0.0-94.0"},{"result":165,"points":2,"place":1,"phase":1,"sequence":22,"prices":[175,186,165,214,179,187,177,166,153,208],"times":[942,920,1224],"next_num":3,"trial_type":"ticket-choose","trial_index":95,"time_elapsed":1167885,"internal_node_id":"0.0-95.0"},{"result":165,"points":2,"place":1,"phase":1,"sequence":23,"prices":[175,187,177,209,180,188,165,165,154,208],"times":[839,879,777,771,705,698,1112],"next_num":7,"trial_type":"ticket-choose","trial_index":96,"time_elapsed":1177010,"internal_node_id":"0.0-96.0"},{"result":175,"points":1,"place":3,"phase":1,"sequence":24,"prices":[175,187,165,209,180,188,177,166,154,208],"times":[1074],"next_num":1,"trial_type":"ticket-choose","trial_index":97,"time_elapsed":1180111,"internal_node_id":"0.0-97.0"},{"result":167,"points":2,"place":1,"phase":1,"sequence":25,"prices":[212,192,188,184,167,193,189,164,176,170],"times":[800,882,710,1251,973],"next_num":5,"trial_type":"ticket-choose","trial_index":98,"time_elapsed":1187577,"internal_node_id":"0.0-98.0"},{"result":165,"points":2,"place":1,"phase":1,"sequence":26,"prices":[174,186,177,217,181,187,165,166,153,209],"times":[3186,729,670,674,788,714,1090],"next_num":7,"trial_type":"ticket-choose","trial_index":99,"time_elapsed":1198876,"internal_node_id":"0.0-99.0"},{"result":155,"points":2,"place":1,"phase":1,"sequence":27,"prices":[181,155,148,161,168,187,172,199,176,194],"times":[812,1114],"next_num":2,"trial_type":"ticket-choose","trial_index":100,"time_elapsed":1202898,"internal_node_id":"0.0-100.0"},{"result":163,"points":2,"place":1,"phase":1,"sequence":28,"prices":[175,187,176,209,180,188,163,165,154,208],"times":[754,730,863,736,874,990,893],"next_num":7,"trial_type":"ticket-choose","trial_index":101,"time_elapsed":1212105,"internal_node_id":"0.0-101.0"},{"result":165,"points":2,"place":1,"phase":1,"sequence":29,"prices":[188,200,165,172,198,174,177,154,177,180],"times":[729,783,1141],"next_num":3,"trial_type":"ticket-choose","trial_index":102,"time_elapsed":1217208,"internal_node_id":"0.0-102.0"},{"result":158,"points":2,"place":1,"phase":1,"sequence":30,"prices":[176,187,158,210,181,187,177,165,208,153],"times":[930,666,1018],"next_num":3,"trial_type":"ticket-choose","trial_index":103,"time_elapsed":1222203,"internal_node_id":"0.0-103.0"},{"result":168,"points":1,"place":2,"phase":1,"sequence":31,"prices":[183,182,192,168,173,205,167,187,165,170],"times":[811,738,845,1156],"next_num":4,"trial_type":"ticket-choose","trial_index":104,"time_elapsed":1228333,"internal_node_id":"0.0-104.0"},{"result":165,"points":3,"place":0,"phase":1,"sequence":32,"prices":[193,165,175,181,185,224,180,199,218,184],"times":[778,988],"next_num":2,"trial_type":"ticket-choose","trial_index":105,"time_elapsed":1232239,"internal_node_id":"0.0-105.0"},{"result":167,"points":2,"place":1,"phase":1,"sequence":33,"prices":[174,186,167,211,181,188,178,168,208,156],"times":[928,689,1045],"next_num":3,"trial_type":"ticket-choose","trial_index":106,"time_elapsed":1237457,"internal_node_id":"0.0-106.0"},{"result":167,"points":2,"place":1,"phase":1,"sequence":34,"prices":[175,186,167,225,179,187,178,169,209,153],"times":[890,798,1012],"next_num":3,"trial_type":"ticket-choose","trial_index":107,"time_elapsed":1242732,"internal_node_id":"0.0-107.0"},{"result":165,"points":2,"place":1,"phase":1,"sequence":35,"prices":[201,165,162,166,185,214,165,202,204,179],"times":[876,1023],"next_num":2,"trial_type":"ticket-choose","trial_index":108,"time_elapsed":1246716,"internal_node_id":"0.0-108.0"},{"result":169,"points":1,"place":3,"phase":1,"sequence":36,"prices":[198,193,169,163,202,182,152,164,177,171],"times":[846,742,1084],"next_num":3,"trial_type":"ticket-choose","trial_index":109,"time_elapsed":1251688,"internal_node_id":"0.0-109.0"},{"result":148,"points":3,"place":0,"phase":1,"sequence":37,"prices":[183,163,185,180,166,148,160,186,176,184],"times":[730,745,1079,732,1343,981],"next_num":6,"trial_type":"ticket-choose","trial_index":110,"time_elapsed":1260367,"internal_node_id":"0.0-110.0"},{"result":165,"points":2,"place":1,"phase":1,"sequence":38,"prices":[174,186,165,212,181,187,177,167,153,209],"times":[844,785,1099],"next_num":3,"trial_type":"ticket-choose","trial_index":111,"time_elapsed":1265629,"internal_node_id":"0.0-111.0"},{"result":163,"points":2,"place":1,"phase":1,"sequence":39,"prices":[175,187,163,209,180,188,176,165,154,208],"times":[778,782,1089],"next_num":3,"trial_type":"ticket-choose","trial_index":112,"time_elapsed":1270773,"internal_node_id":"0.0-112.0"},{"result":165,"points":3,"place":0,"phase":1,"sequence":40,"prices":[192,165,171,178,188,217,172,195,197,186],"times":[810,1080],"next_num":2,"trial_type":"ticket-choose","trial_index":113,"time_elapsed":1274848,"internal_node_id":"0.0-113.0"},{"result":158,"points":2,"place":1,"phase":1,"sequence":41,"prices":[176,187,177,225,181,187,158,165,208,153],"times":[875,754,714,814,887,729,1096],"next_num":7,"trial_type":"ticket-choose","trial_index":114,"time_elapsed":1284197,"internal_node_id":"0.0-114.0"},{"result":169,"points":2,"place":1,"phase":1,"sequence":42,"prices":[181,215,169,147,182,193,177,184,176,179],"times":[841,783,1048],"next_num":3,"trial_type":"ticket-choose","trial_index":115,"time_elapsed":1289278,"internal_node_id":"0.0-115.0"},{"result":165,"points":2,"place":1,"phase":1,"sequence":43,"prices":[175,186,177,210,179,187,165,166,153,208],"times":[894,764,783,821,1415,730,1064],"next_num":7,"trial_type":"ticket-choose","trial_index":116,"time_elapsed":1299039,"internal_node_id":"0.0-116.0"},{"result":158,"points":2,"place":1,"phase":1,"sequence":44,"prices":[175,186,158,209,181,188,177,167,208,154],"times":[1183,760,938],"next_num":3,"trial_type":"ticket-choose","trial_index":117,"time_elapsed":1304331,"internal_node_id":"0.0-117.0"},{"result":167,"points":2,"place":1,"phase":1,"sequence":45,"prices":[189,167,180,197,165,168,172,213,178,171],"times":[824,1130],"next_num":2,"trial_type":"ticket-choose","trial_index":118,"time_elapsed":1308434,"internal_node_id":"0.0-118.0"},{"result":157,"points":3,"place":0,"phase":1,"sequence":46,"prices":[201,187,157,184,198,179,188,185,178,170],"times":[790,1160,1051],"next_num":3,"trial_type":"ticket-choose","trial_index":119,"time_elapsed":1313815,"internal_node_id":"0.0-119.0"},{"result":163,"points":2,"place":1,"phase":1,"sequence":47,"prices":[174,186,163,212,181,187,176,166,153,209],"times":[602,793,1517],"next_num":3,"trial_type":"ticket-choose","trial_index":120,"time_elapsed":1319266,"internal_node_id":"0.0-120.0"},{"result":163,"points":2,"place":1,"phase":1,"sequence":48,"prices":[174,186,176,217,181,187,163,166,153,209],"times":[834,821,842,789,1084,745,1092],"next_num":7,"trial_type":"ticket-choose","trial_index":121,"time_elapsed":1328814,"internal_node_id":"0.0-121.0"},{"result":158,"points":2,"place":1,"phase":1,"sequence":49,"prices":[175,186,177,209,181,188,158,167,208,154],"times":[851,732,730,745,810,699,1175],"next_num":7,"trial_type":"ticket-choose","trial_index":122,"time_elapsed":1338092,"internal_node_id":"0.0-122.0"},{"responses":[{"value":0,"offby":-1,"category":"$115 - $130","category_index":0},{"value":10,"offby":5,"category":"$131 - $145","category_index":1},{"value":30,"offby":18,"category":"$146 - $160","category_index":2},{"value":40,"offby":18,"category":"$161 - $175","category_index":3},{"value":10,"offby":-24,"category":"$176 - $190","category_index":4},{"value":10,"offby":-5,"category":"$191 - $205","category_index":5},{"value":0,"offby":-11,"category":"$206 - $220","category_index":6}],"phase":1,"number":1,"trial_type":"bar-choose","trial_index":123,"time_elapsed":1366783,"internal_node_id":"0.0-123.0"},{"special_comment":"No","trial_type":"special_sequence","trial_index":124,"time_elapsed":1373203,"internal_node_id":"0.0-124.0"},{"during":"Nothing","bonus":260,"trial_type":"final","trial_index":125,"time_elapsed":1393574,"internal_node_id":"0.0-125.0"}],"bonus":260}