{"start_time":"2017-05-24 12:20:27","end_time":"2017-05-24 12:34:38","points_phase0":102,"points_phase1":78,"phase_order":0,"age":27,"gender":"f","tries":1,"during":"Nothing","worker_id":"A2M5VW97GIYLHB","assignment_id":"3L4PIM1GQU9E57QS4L7FADBZC1VYRZ","data":[{"rt":3656,"url":"\/christiane\/tickets\/utils\/consent.html","trial_type":"html","trial_index":0,"time_elapsed":4092,"internal_node_id":"0.0-0.0"},{"age":27,"gender":"f","trial_type":"age","trial_index":1,"time_elapsed":10221,"internal_node_id":"0.0-1.0"},{"worker_id":"A2M5VW97GIYLHB","trial_type":"workerid","trial_index":2,"time_elapsed":35842,"internal_node_id":"0.0-2.0"},{"tries":1,"trial_type":"instructions_check","trial_index":3,"time_elapsed":56868,"internal_node_id":"0.0-3.0"},{"rt":5647,"url":"\/christiane\/tickets\/utils\/start.html","trial_type":"html","trial_index":4,"time_elapsed":64570,"internal_node_id":"0.0-4.0"},{"trial_type":"number-animation","trial_index":5,"time_elapsed":77856,"internal_node_id":"0.0-5.0"},{"phase":0,"sequence":0,"avg":181,"response":165,"trial_type":"training_avg","trial_index":6,"time_elapsed":86826,"internal_node_id":"0.0-6.0"},{"trial_type":"number-animation","trial_index":7,"time_elapsed":93308,"internal_node_id":"0.0-7.0"},{"phase":0,"sequence":1,"avg":188,"response":190,"trial_type":"training_avg","trial_index":8,"time_elapsed":100282,"internal_node_id":"0.0-8.0"},{"trial_type":"number-animation","trial_index":9,"time_elapsed":106601,"internal_node_id":"0.0-9.0"},{"phase":0,"sequence":2,"avg":188,"response":188,"trial_type":"training_avg","trial_index":10,"time_elapsed":113889,"internal_node_id":"0.0-10.0"},{"trial_type":"number-animation","trial_index":11,"time_elapsed":119580,"internal_node_id":"0.0-11.0"},{"phase":0,"sequence":3,"avg":177,"response":177,"trial_type":"training_avg","trial_index":12,"time_elapsed":124938,"internal_node_id":"0.0-12.0"},{"trial_type":"number-animation","trial_index":13,"time_elapsed":131514,"internal_node_id":"0.0-13.0"},{"phase":0,"sequence":4,"avg":182,"response":184,"trial_type":"training_avg","trial_index":14,"time_elapsed":140018,"internal_node_id":"0.0-14.0"},{"responses":[{"value":4,"offby":3,"category":"$115 - $130","category_index":0},{"value":9,"offby":4,"category":"$131 - $145","category_index":1},{"value":17,"offby":5,"category":"$146 - $160","category_index":2},{"value":25,"offby":3,"category":"$161 - $175","category_index":3},{"value":25,"offby":-9,"category":"$176 - $190","category_index":4},{"value":9,"offby":-6,"category":"$191 - $205","category_index":5},{"value":11,"offby":0,"category":"$206 - $220","category_index":6}],"phase":0,"number":0,"trial_type":"bar-choose","trial_index":15,"time_elapsed":188141,"internal_node_id":"0.0-15.0"},{"rt":2518,"url":"\/christiane\/tickets\/utils\/testing.html","trial_type":"html","trial_index":16,"time_elapsed":191939,"internal_node_id":"0.0-16.0"},{"phase":0,"order":[20,47,29,27,37,43,44,25,24,32,33,39,45,41,9,11,31,12,13,5,19,8,22,16,14,10,2,28,0,23,49,40,34,48,17,35,4,7,46,3,18,36,30,6,21,42,1,26,38,15],"trial_type":"store_order","trial_index":17,"time_elapsed":192939,"internal_node_id":"0.0-17.0"},{"result":165,"points":2,"place":1,"phase":0,"sequence":-1,"prices":[184,180,224,165,181,199,185,193,218,146],"times":[2600,1411,812,1040],"next_num":4,"trial_type":"ticket-choose","trial_index":18,"time_elapsed":202427,"internal_node_id":"0.0-18.0"},{"rt":1816,"url":"\/christiane\/tickets\/utils\/testing_after.html","trial_type":"html","trial_index":19,"time_elapsed":205534,"internal_node_id":"0.0-19.0"},{"result":165,"points":1,"place":2,"phase":0,"sequence":0,"prices":[176,187,158,210,181,187,177,165,208,153],"times":[1948,565,565,528,596,640,614,857],"next_num":8,"trial_type":"ticket-choose","trial_index":20,"time_elapsed":215442,"internal_node_id":"0.0-20.0"},{"result":152,"points":3,"place":0,"phase":0,"sequence":1,"prices":[200,181,203,152,175,171,160,154,176,191],"times":[1726,581,576,996],"next_num":4,"trial_type":"ticket-choose","trial_index":21,"time_elapsed":222803,"internal_node_id":"0.0-21.0"},{"result":171,"points":1,"place":3,"phase":0,"sequence":2,"prices":[185,170,182,201,173,199,171,188,165,168],"times":[1065,516,534,582,1030,600,869],"next_num":7,"trial_type":"ticket-choose","trial_index":22,"time_elapsed":231506,"internal_node_id":"0.0-22.0"},{"result":165,"points":3,"place":0,"phase":0,"sequence":3,"prices":[192,165,171,178,188,217,172,195,197,186],"times":[1090,838],"next_num":2,"trial_type":"ticket-choose","trial_index":23,"time_elapsed":236002,"internal_node_id":"0.0-23.0"},{"result":169,"points":1,"place":3,"phase":0,"sequence":4,"prices":[198,193,169,163,202,182,152,164,177,171],"times":[1188,598,1711],"next_num":3,"trial_type":"ticket-choose","trial_index":24,"time_elapsed":241953,"internal_node_id":"0.0-24.0"},{"result":157,"points":3,"place":0,"phase":0,"sequence":5,"prices":[201,187,157,184,198,179,188,185,178,170],"times":[813,526,974],"next_num":3,"trial_type":"ticket-choose","trial_index":25,"time_elapsed":246706,"internal_node_id":"0.0-25.0"},{"result":159,"points":1,"place":2,"phase":0,"sequence":6,"prices":[180,159,149,175,185,141,163,174,178,207],"times":[713,1292],"next_num":2,"trial_type":"ticket-choose","trial_index":26,"time_elapsed":250938,"internal_node_id":"0.0-26.0"},{"result":162,"points":3,"place":0,"phase":0,"sequence":7,"prices":[201,165,162,166,185,214,165,202,204,179],"times":[655,734,1086],"next_num":3,"trial_type":"ticket-choose","trial_index":27,"time_elapsed":255779,"internal_node_id":"0.0-27.0"},{"result":165,"points":3,"place":0,"phase":0,"sequence":8,"prices":[193,165,175,181,185,224,180,199,218,184],"times":[679,1238],"next_num":2,"trial_type":"ticket-choose","trial_index":28,"time_elapsed":260666,"internal_node_id":"0.0-28.0"},{"result":165,"points":3,"place":0,"phase":0,"sequence":9,"prices":[193,169,171,187,190,224,174,194,165,188],"times":[1027,654,606,543,582,581,680,548,948],"next_num":9,"trial_type":"ticket-choose","trial_index":29,"time_elapsed":270436,"internal_node_id":"0.0-29.0"},{"result":168,"points":1,"place":2,"phase":0,"sequence":10,"prices":[183,182,192,168,173,205,167,187,165,170],"times":[497,542,502,1015],"next_num":4,"trial_type":"ticket-choose","trial_index":30,"time_elapsed":275537,"internal_node_id":"0.0-30.0"},{"result":167,"points":2,"place":1,"phase":0,"sequence":11,"prices":[189,167,180,197,165,168,172,213,178,171],"times":[548,1004],"next_num":2,"trial_type":"ticket-choose","trial_index":31,"time_elapsed":279202,"internal_node_id":"0.0-31.0"},{"result":164,"points":3,"place":0,"phase":0,"sequence":12,"prices":[212,192,188,184,167,193,189,164,176,170],"times":[567,549,519,549,1020,542,494,1067],"next_num":8,"trial_type":"ticket-choose","trial_index":32,"time_elapsed":287865,"internal_node_id":"0.0-32.0"},{"result":156,"points":1,"place":2,"phase":0,"sequence":13,"prices":[201,207,155,158,156,165,167,135,178,177],"times":[673,493,502,1040,538],"next_num":5,"trial_type":"ticket-choose","trial_index":33,"time_elapsed":293881,"internal_node_id":"0.0-33.0"},{"result":179,"points":0,"place":5,"phase":0,"sequence":14,"prices":[175,186,177,210,179,187,165,166,153,208],"times":[736,533,583,605,1319],"next_num":5,"trial_type":"ticket-choose","trial_index":34,"time_elapsed":300418,"internal_node_id":"0.0-34.0"},{"result":165,"points":2,"place":1,"phase":0,"sequence":15,"prices":[174,186,177,217,181,187,165,166,153,209],"times":[535,525,623,605,622,534,1071],"next_num":7,"trial_type":"ticket-choose","trial_index":35,"time_elapsed":308049,"internal_node_id":"0.0-35.0"},{"result":170,"points":1,"place":3,"phase":0,"sequence":16,"prices":[171,203,175,170,167,220,192,186,165,165],"times":[653,558,718,1518],"next_num":4,"trial_type":"ticket-choose","trial_index":36,"time_elapsed":314537,"internal_node_id":"0.0-36.0"},{"result":163,"points":2,"place":1,"phase":0,"sequence":17,"prices":[175,186,163,214,179,187,176,166,153,208],"times":[550,510,1124],"next_num":3,"trial_type":"ticket-choose","trial_index":37,"time_elapsed":319250,"internal_node_id":"0.0-37.0"},{"result":163,"points":2,"place":1,"phase":0,"sequence":18,"prices":[175,187,163,209,180,188,176,165,154,208],"times":[678,538,1341],"next_num":3,"trial_type":"ticket-choose","trial_index":38,"time_elapsed":324065,"internal_node_id":"0.0-38.0"},{"result":167,"points":2,"place":1,"phase":0,"sequence":19,"prices":[175,186,178,212,179,187,167,169,209,153],"times":[442,532,534,607,581,533,1437],"next_num":7,"trial_type":"ticket-choose","trial_index":39,"time_elapsed":332249,"internal_node_id":"0.0-39.0"},{"result":158,"points":2,"place":1,"phase":0,"sequence":20,"prices":[175,186,158,209,181,188,177,167,208,154],"times":[561,501,1046],"next_num":3,"trial_type":"ticket-choose","trial_index":40,"time_elapsed":336778,"internal_node_id":"0.0-40.0"},{"result":153,"points":3,"place":0,"phase":0,"sequence":21,"prices":[174,186,165,212,181,187,177,167,153,209],"times":[439,508,494,366,519,547,518,527,1295],"next_num":9,"trial_type":"ticket-choose","trial_index":41,"time_elapsed":345658,"internal_node_id":"0.0-41.0"},{"result":167,"points":1,"place":2,"phase":0,"sequence":22,"prices":[175,186,177,209,181,188,158,167,208,154],"times":[558,508,494,596,582,534,518,1019],"next_num":8,"trial_type":"ticket-choose","trial_index":42,"time_elapsed":353801,"internal_node_id":"0.0-42.0"},{"result":163,"points":2,"place":1,"phase":0,"sequence":23,"prices":[175,187,176,209,180,188,163,165,154,208],"times":[793,503,677,917,524,527,998],"next_num":7,"trial_type":"ticket-choose","trial_index":43,"time_elapsed":362107,"internal_node_id":"0.0-43.0"},{"result":163,"points":2,"place":1,"phase":0,"sequence":24,"prices":[174,186,163,212,181,187,176,166,153,209],"times":[454,678,1133],"next_num":3,"trial_type":"ticket-choose","trial_index":44,"time_elapsed":366826,"internal_node_id":"0.0-44.0"},{"result":165,"points":2,"place":1,"phase":0,"sequence":25,"prices":[175,187,177,209,180,188,165,165,154,208],"times":[585,509,533,597,510,542,1477],"next_num":7,"trial_type":"ticket-choose","trial_index":45,"time_elapsed":374818,"internal_node_id":"0.0-45.0"},{"result":153,"points":3,"place":0,"phase":0,"sequence":26,"prices":[175,186,167,225,179,187,178,169,209,153],"times":[649,542,398,325,581,558,613,892,582,1230],"next_num":10,"trial_type":"ticket-choose","trial_index":46,"time_elapsed":385499,"internal_node_id":"0.0-46.0"},{"result":185,"points":1,"place":4,"phase":0,"sequence":27,"prices":[196,165,170,184,187,211,171,201,202,185],"times":[879,1926,606,717,597,614,841,621,645,816],"next_num":11,"trial_type":"ticket-choose","trial_index":47,"time_elapsed":398416,"internal_node_id":"0.0-47.0"},{"result":167,"points":2,"place":1,"phase":0,"sequence":28,"prices":[174,186,167,211,181,188,178,168,208,156],"times":[813,566,1110],"next_num":3,"trial_type":"ticket-choose","trial_index":48,"time_elapsed":403264,"internal_node_id":"0.0-48.0"},{"result":158,"points":2,"place":1,"phase":0,"sequence":29,"prices":[176,187,177,225,181,187,158,165,208,153],"times":[771,387,246,598,559,533,923],"next_num":7,"trial_type":"ticket-choose","trial_index":49,"time_elapsed":410312,"internal_node_id":"0.0-49.0"},{"result":163,"points":1,"place":2,"phase":0,"sequence":30,"prices":[183,163,185,180,166,148,160,186,176,184],"times":[499,2514],"next_num":2,"trial_type":"ticket-choose","trial_index":50,"time_elapsed":415649,"internal_node_id":"0.0-50.0"},{"result":160,"points":1,"place":2,"phase":0,"sequence":31,"prices":[189,150,175,160,188,207,158,194,178,199],"times":[858,519,638,876],"next_num":4,"trial_type":"ticket-choose","trial_index":51,"time_elapsed":421008,"internal_node_id":"0.0-51.0"},{"result":148,"points":3,"place":0,"phase":0,"sequence":32,"prices":[181,155,148,161,168,187,172,199,176,194],"times":[842,548,862],"next_num":3,"trial_type":"ticket-choose","trial_index":52,"time_elapsed":425584,"internal_node_id":"0.0-52.0"},{"result":147,"points":3,"place":0,"phase":0,"sequence":33,"prices":[181,215,169,147,182,193,177,184,176,179],"times":[1049,562,782,892],"next_num":4,"trial_type":"ticket-choose","trial_index":53,"time_elapsed":431817,"internal_node_id":"0.0-53.0"},{"result":163,"points":2,"place":1,"phase":0,"sequence":34,"prices":[174,186,176,217,181,187,163,166,153,209],"times":[567,534,550,550,535,534,1125],"next_num":7,"trial_type":"ticket-choose","trial_index":54,"time_elapsed":439664,"internal_node_id":"0.0-54.0"},{"result":154,"points":2,"place":1,"phase":0,"sequence":35,"prices":[168,154,172,185,195,144,184,211,177,227],"times":[517,974],"next_num":2,"trial_type":"ticket-choose","trial_index":55,"time_elapsed":443256,"internal_node_id":"0.0-55.0"},{"result":167,"points":2,"place":1,"phase":0,"sequence":36,"prices":[175,185,178,215,181,186,167,168,208,156],"times":[553,534,495,551,531,645,911],"next_num":7,"trial_type":"ticket-choose","trial_index":56,"time_elapsed":450617,"internal_node_id":"0.0-56.0"},{"result":165,"points":2,"place":1,"phase":0,"sequence":37,"prices":[175,187,165,209,180,188,177,166,154,208],"times":[552,495,870],"next_num":3,"trial_type":"ticket-choose","trial_index":57,"time_elapsed":454707,"internal_node_id":"0.0-57.0"},{"result":158,"points":3,"place":0,"phase":0,"sequence":38,"prices":[210,184,226,193,215,158,199,175,176,208],"times":[452,501,533,549,605,886],"next_num":6,"trial_type":"ticket-choose","trial_index":58,"time_elapsed":461297,"internal_node_id":"0.0-58.0"},{"result":167,"points":2,"place":1,"phase":0,"sequence":39,"prices":[174,186,178,217,181,188,167,168,208,156],"times":[457,534,538,540,533,502,984],"next_num":7,"trial_type":"ticket-choose","trial_index":59,"time_elapsed":468538,"internal_node_id":"0.0-59.0"},{"result":158,"points":2,"place":1,"phase":0,"sequence":40,"prices":[175,186,158,211,180,187,177,166,209,153],"times":[497,532,890],"next_num":3,"trial_type":"ticket-choose","trial_index":60,"time_elapsed":472745,"internal_node_id":"0.0-60.0"},{"result":165,"points":2,"place":1,"phase":0,"sequence":41,"prices":[188,200,165,172,198,174,177,154,177,180],"times":[456,582,1057],"next_num":3,"trial_type":"ticket-choose","trial_index":61,"time_elapsed":477132,"internal_node_id":"0.0-61.0"},{"result":165,"points":3,"place":0,"phase":0,"sequence":42,"prices":[191,172,169,175,182,203,170,195,165,176],"times":[739,557,803,602,653,558,870,589,1030],"next_num":9,"trial_type":"ticket-choose","trial_index":62,"time_elapsed":487305,"internal_node_id":"0.0-62.0"},{"result":165,"points":2,"place":1,"phase":0,"sequence":43,"prices":[175,186,165,214,179,187,177,166,153,208],"times":[471,551,1109],"next_num":3,"trial_type":"ticket-choose","trial_index":63,"time_elapsed":491714,"internal_node_id":"0.0-63.0"},{"result":158,"points":2,"place":1,"phase":0,"sequence":44,"prices":[175,186,177,221,180,187,158,166,209,153],"times":[555,596,678,543,565,550,1023],"next_num":7,"trial_type":"ticket-choose","trial_index":64,"time_elapsed":499441,"internal_node_id":"0.0-64.0"},{"result":143,"points":3,"place":0,"phase":0,"sequence":45,"prices":[222,173,202,197,143,205,198,183,178,186],"times":[646,725,557,543,1358],"next_num":5,"trial_type":"ticket-choose","trial_index":65,"time_elapsed":506244,"internal_node_id":"0.0-65.0"},{"result":167,"points":2,"place":1,"phase":0,"sequence":46,"prices":[175,185,167,224,181,186,178,168,208,156],"times":[485,558,1047],"next_num":3,"trial_type":"ticket-choose","trial_index":66,"time_elapsed":510756,"internal_node_id":"0.0-66.0"},{"result":165,"points":2,"place":1,"phase":0,"sequence":47,"prices":[200,165,165,173,182,207,161,202,204,180],"times":[389,902],"next_num":2,"trial_type":"ticket-choose","trial_index":67,"time_elapsed":514258,"internal_node_id":"0.0-67.0"},{"result":163,"points":3,"place":0,"phase":0,"sequence":48,"prices":[168,199,196,198,185,195,227,163,177,166],"times":[642,572,686,534,552,660,589,1063],"next_num":8,"trial_type":"ticket-choose","trial_index":68,"time_elapsed":523929,"internal_node_id":"0.0-68.0"},{"result":163,"points":2,"place":1,"phase":0,"sequence":49,"prices":[175,186,176,210,179,187,163,166,153,208],"times":[1094,545,516,601,515,637,1173],"next_num":7,"trial_type":"ticket-choose","trial_index":69,"time_elapsed":532657,"internal_node_id":"0.0-69.0"},{"responses":[{"value":2,"offby":1,"category":"$115 - $130","category_index":0},{"value":5,"offby":0,"category":"$131 - $145","category_index":1},{"value":16,"offby":4,"category":"$146 - $160","category_index":2},{"value":33,"offby":11,"category":"$161 - $175","category_index":3},{"value":21,"offby":-13,"category":"$176 - $190","category_index":4},{"value":16,"offby":1,"category":"$191 - $205","category_index":5},{"value":7,"offby":-4,"category":"$206 - $220","category_index":6}],"phase":1,"number":1,"trial_type":"bar-choose","trial_index":70,"time_elapsed":569438,"internal_node_id":"0.0-70.0"},{"rt":1643,"url":"\/christiane\/tickets\/utils\/testing2.html","trial_type":"point_update","trial_index":71,"time_elapsed":572579,"internal_node_id":"0.0-71.0"},{"phase":1,"order":[26,40,15,41,27,1,6,34,42,23,43,18,7,31,33,8,45,47,29,14,37,24,22,21,5,32,9,19,16,36,11,12,20,17,39,35,44,38,10,3,0,13,46,2,28,48,49,25,4,30],"trial_type":"store_order","trial_index":72,"time_elapsed":573581,"internal_node_id":"0.0-72.0"},{"result":173,"points":1,"place":4,"phase":1,"sequence":0,"prices":[200,173,182,169,207,165,152,202,161,204],"times":[1316,727],"next_num":2,"trial_type":"ticket-choose","trial_index":73,"time_elapsed":577827,"internal_node_id":"0.0-73.0"},{"result":175,"points":1,"place":3,"phase":1,"sequence":1,"prices":[190,150,175,161,188,207,157,194,178,199],"times":[635,451,446],"next_num":3,"trial_type":"ticket-choose","trial_index":74,"time_elapsed":581646,"internal_node_id":"0.0-74.0"},{"result":175,"points":1,"place":3,"phase":1,"sequence":2,"prices":[176,175,186,210,163,179,187,166,153,208],"times":[661,221],"next_num":2,"trial_type":"ticket-choose","trial_index":75,"time_elapsed":584453,"internal_node_id":"0.0-75.0"},{"result":155,"points":2,"place":1,"phase":1,"sequence":3,"prices":[200,207,155,158,156,168,167,135,178,177],"times":[717,510,313],"next_num":3,"trial_type":"ticket-choose","trial_index":76,"time_elapsed":588099,"internal_node_id":"0.0-76.0"},{"result":171,"points":1,"place":2,"phase":1,"sequence":4,"prices":[192,172,171,178,188,165,217,168,195,197],"times":[632,590,247],"next_num":3,"trial_type":"ticket-choose","trial_index":77,"time_elapsed":591683,"internal_node_id":"0.0-77.0"},{"result":175,"points":1,"place":3,"phase":1,"sequence":5,"prices":[167,175,185,224,178,181,186,168,208,156],"times":[678,310],"next_num":2,"trial_type":"ticket-choose","trial_index":78,"time_elapsed":594811,"internal_node_id":"0.0-78.0"},{"result":165,"points":2,"place":1,"phase":1,"sequence":6,"prices":[165,175,186,214,177,179,187,166,153,208],"times":[879],"next_num":1,"trial_type":"ticket-choose","trial_index":79,"time_elapsed":597642,"internal_node_id":"0.0-79.0"},{"result":156,"points":2,"place":1,"phase":1,"sequence":7,"prices":[180,156,149,160,168,186,172,198,176,195],"times":[759,725],"next_num":2,"trial_type":"ticket-choose","trial_index":80,"time_elapsed":601122,"internal_node_id":"0.0-80.0"},{"result":169,"points":3,"place":0,"phase":1,"sequence":8,"prices":[220,173,201,197,169,205,198,183,178,186],"times":[431,672,783,655,766],"next_num":5,"trial_type":"ticket-choose","trial_index":81,"time_elapsed":606941,"internal_node_id":"0.0-81.0"},{"result":158,"points":2,"place":1,"phase":1,"sequence":9,"prices":[177,176,187,225,158,181,187,165,208,153],"times":[542,1013,544,556,816],"next_num":5,"trial_type":"ticket-choose","trial_index":82,"time_elapsed":613049,"internal_node_id":"0.0-82.0"},{"result":157,"points":3,"place":0,"phase":1,"sequence":10,"prices":[201,187,157,184,198,179,188,185,178,170],"times":[520,516,590],"next_num":3,"trial_type":"ticket-choose","trial_index":83,"time_elapsed":616796,"internal_node_id":"0.0-83.0"},{"result":175,"points":1,"place":3,"phase":1,"sequence":11,"prices":[158,175,186,211,177,180,187,166,209,153],"times":[472,525],"next_num":2,"trial_type":"ticket-choose","trial_index":84,"time_elapsed":619788,"internal_node_id":"0.0-84.0"},{"result":165,"points":2,"place":1,"phase":1,"sequence":12,"prices":[165,175,187,209,177,180,188,167,154,208],"times":[821],"next_num":1,"trial_type":"ticket-choose","trial_index":85,"time_elapsed":623218,"internal_node_id":"0.0-85.0"},{"result":169,"points":0,"place":5,"phase":1,"sequence":13,"prices":[171,169,186,165,163,167,220,148,187,165],"times":[737,574],"next_num":2,"trial_type":"ticket-choose","trial_index":86,"time_elapsed":626370,"internal_node_id":"0.0-86.0"},{"result":165,"points":2,"place":1,"phase":1,"sequence":14,"prices":[183,179,188,165,168,173,205,159,187,191],"times":[424,528,534,1087],"next_num":4,"trial_type":"ticket-choose","trial_index":87,"time_elapsed":631283,"internal_node_id":"0.0-87.0"},{"result":166,"points":1,"place":2,"phase":1,"sequence":15,"prices":[165,174,186,212,177,181,187,166,153,209],"times":[622,726,517,591,504,532,518,1029],"next_num":8,"trial_type":"ticket-choose","trial_index":88,"time_elapsed":639539,"internal_node_id":"0.0-88.0"},{"result":167,"points":2,"place":1,"phase":1,"sequence":16,"prices":[199,191,188,174,167,193,189,164,176,170],"times":[652,519,557,669,608],"next_num":5,"trial_type":"ticket-choose","trial_index":89,"time_elapsed":645170,"internal_node_id":"0.0-89.0"},{"result":152,"points":3,"place":0,"phase":1,"sequence":17,"prices":[200,180,203,152,175,170,160,154,176,191],"times":[553,516,542,926],"next_num":4,"trial_type":"ticket-choose","trial_index":90,"time_elapsed":650010,"internal_node_id":"0.0-90.0"},{"result":165,"points":1,"place":2,"phase":1,"sequence":18,"prices":[185,179,191,165,161,173,199,150,188,168],"times":[1018,550,532,854],"next_num":4,"trial_type":"ticket-choose","trial_index":91,"time_elapsed":655434,"internal_node_id":"0.0-91.0"},{"result":163,"points":2,"place":1,"phase":1,"sequence":19,"prices":[163,174,186,212,176,181,187,166,153,209],"times":[1198],"next_num":1,"trial_type":"ticket-choose","trial_index":92,"time_elapsed":658681,"internal_node_id":"0.0-92.0"},{"result":169,"points":1,"place":3,"phase":1,"sequence":20,"prices":[199,193,169,165,202,182,151,164,176,171],"times":[810,574,910],"next_num":3,"trial_type":"ticket-choose","trial_index":93,"time_elapsed":663498,"internal_node_id":"0.0-93.0"},{"result":175,"points":2,"place":1,"phase":1,"sequence":21,"prices":[193,181,175,181,185,165,224,199,218,184],"times":[615,550,815],"next_num":3,"trial_type":"ticket-choose","trial_index":94,"time_elapsed":667586,"internal_node_id":"0.0-94.0"},{"result":175,"points":1,"place":3,"phase":1,"sequence":22,"prices":[177,175,186,209,158,181,188,167,208,154],"times":[520,646],"next_num":2,"trial_type":"ticket-choose","trial_index":95,"time_elapsed":670617,"internal_node_id":"0.0-95.0"},{"result":180,"points":0,"place":5,"phase":1,"sequence":23,"prices":[177,175,186,221,158,180,187,166,209,153],"times":[471,694,502,542,505,443],"next_num":6,"trial_type":"ticket-choose","trial_index":96,"time_elapsed":676611,"internal_node_id":"0.0-96.0"},{"result":175,"points":1,"place":3,"phase":1,"sequence":24,"prices":[178,175,186,212,167,179,187,169,209,153],"times":[686,813],"next_num":2,"trial_type":"ticket-choose","trial_index":97,"time_elapsed":680034,"internal_node_id":"0.0-97.0"},{"result":174,"points":1,"place":2,"phase":1,"sequence":25,"prices":[193,174,224,165,187,190,224,161,194,195],"times":[671,781],"next_num":2,"trial_type":"ticket-choose","trial_index":98,"time_elapsed":683402,"internal_node_id":"0.0-98.0"},{"result":165,"points":2,"place":1,"phase":1,"sequence":26,"prices":[177,175,186,210,165,179,187,166,153,208],"times":[519,725,535,581,902],"next_num":5,"trial_type":"ticket-choose","trial_index":99,"time_elapsed":689154,"internal_node_id":"0.0-99.0"},{"result":167,"points":1,"place":2,"phase":1,"sequence":27,"prices":[158,175,186,209,177,181,188,167,208,154],"times":[527,687,525,590,479,541,534,838],"next_num":8,"trial_type":"ticket-choose","trial_index":100,"time_elapsed":697074,"internal_node_id":"0.0-100.0"},{"result":163,"points":2,"place":1,"phase":1,"sequence":28,"prices":[176,187,179,209,163,180,188,165,154,208],"times":[567,549,493,525,885],"next_num":5,"trial_type":"ticket-choose","trial_index":101,"time_elapsed":702555,"internal_node_id":"0.0-101.0"},{"result":165,"points":2,"place":1,"phase":1,"sequence":29,"prices":[187,201,165,172,196,174,178,154,172,180],"times":[454,606,800],"next_num":3,"trial_type":"ticket-choose","trial_index":102,"time_elapsed":706850,"internal_node_id":"0.0-102.0"},{"result":174,"points":1,"place":3,"phase":1,"sequence":30,"prices":[177,174,186,217,165,181,187,166,153,209],"times":[920,869],"next_num":2,"trial_type":"ticket-choose","trial_index":103,"time_elapsed":710601,"internal_node_id":"0.0-103.0"},{"result":163,"points":2,"place":1,"phase":1,"sequence":31,"prices":[163,175,186,214,176,179,187,166,153,208],"times":[1270],"next_num":1,"trial_type":"ticket-choose","trial_index":104,"time_elapsed":713857,"internal_node_id":"0.0-104.0"},{"result":165,"points":1,"place":2,"phase":1,"sequence":32,"prices":[158,176,187,210,177,181,187,165,208,153],"times":[497,811,519,526,494,526,511,1000],"next_num":8,"trial_type":"ticket-choose","trial_index":105,"time_elapsed":722058,"internal_node_id":"0.0-105.0"},{"result":163,"points":2,"place":1,"phase":1,"sequence":33,"prices":[176,186,178,217,163,181,187,166,153,209],"times":[538,536,532,548,1030],"next_num":5,"trial_type":"ticket-choose","trial_index":106,"time_elapsed":727802,"internal_node_id":"0.0-106.0"},{"result":167,"points":2,"place":1,"phase":1,"sequence":34,"prices":[189,167,180,197,165,168,172,213,178,171],"times":[661,945],"next_num":2,"trial_type":"ticket-choose","trial_index":107,"time_elapsed":731313,"internal_node_id":"0.0-107.0"},{"result":167,"points":1,"place":2,"phase":1,"sequence":35,"prices":[167,153,172,185,195,143,184,211,177,227],"times":[1040],"next_num":1,"trial_type":"ticket-choose","trial_index":108,"time_elapsed":734043,"internal_node_id":"0.0-108.0"},{"result":159,"points":1,"place":2,"phase":1,"sequence":36,"prices":[181,159,149,175,185,151,163,174,178,207],"times":[430,798],"next_num":2,"trial_type":"ticket-choose","trial_index":109,"time_elapsed":737163,"internal_node_id":"0.0-109.0"},{"result":163,"points":3,"place":0,"phase":1,"sequence":37,"prices":[163,199,196,199,185,195,227,163,177,166],"times":[454,695,544,540,502,510,516,958],"next_num":8,"trial_type":"ticket-choose","trial_index":110,"time_elapsed":745266,"internal_node_id":"0.0-110.0"},{"result":165,"points":2,"place":1,"phase":1,"sequence":38,"prices":[177,175,187,209,165,180,188,165,154,208],"times":[940,577,588,544,518,543,518,901],"next_num":8,"trial_type":"ticket-choose","trial_index":111,"time_elapsed":753513,"internal_node_id":"0.0-111.0"},{"result":174,"points":1,"place":3,"phase":1,"sequence":39,"prices":[178,174,186,217,167,181,188,168,208,156],"times":[559,1061],"next_num":2,"trial_type":"ticket-choose","trial_index":112,"time_elapsed":756986,"internal_node_id":"0.0-112.0"},{"result":167,"points":2,"place":1,"phase":1,"sequence":40,"prices":[167,174,186,211,178,181,188,168,208,156],"times":[1020],"next_num":1,"trial_type":"ticket-choose","trial_index":113,"time_elapsed":760329,"internal_node_id":"0.0-113.0"},{"result":163,"points":2,"place":1,"phase":1,"sequence":41,"prices":[163,175,187,209,176,180,188,165,154,208],"times":[1062],"next_num":1,"trial_type":"ticket-choose","trial_index":114,"time_elapsed":763801,"internal_node_id":"0.0-114.0"},{"result":175,"points":2,"place":1,"phase":1,"sequence":42,"prices":[214,184,226,192,215,158,199,175,176,208],"times":[975,568,549,575,566,508,615,1439],"next_num":8,"trial_type":"ticket-choose","trial_index":115,"time_elapsed":772930,"internal_node_id":"0.0-115.0"},{"result":167,"points":2,"place":1,"phase":1,"sequence":43,"prices":[167,175,186,225,178,179,187,169,209,153],"times":[1030],"next_num":1,"trial_type":"ticket-choose","trial_index":116,"time_elapsed":775754,"internal_node_id":"0.0-116.0"},{"result":171,"points":1,"place":3,"phase":1,"sequence":44,"prices":[196,171,170,184,187,165,211,169,201,202],"times":[957,757],"next_num":2,"trial_type":"ticket-choose","trial_index":117,"time_elapsed":779369,"internal_node_id":"0.0-117.0"},{"result":147,"points":3,"place":0,"phase":1,"sequence":45,"prices":[181,214,169,147,182,193,178,184,176,179],"times":[806,530,520,639],"next_num":4,"trial_type":"ticket-choose","trial_index":118,"time_elapsed":784210,"internal_node_id":"0.0-118.0"},{"result":163,"points":1,"place":2,"phase":1,"sequence":46,"prices":[173,163,185,181,166,148,160,185,176,184],"times":[499,765],"next_num":2,"trial_type":"ticket-choose","trial_index":119,"time_elapsed":787393,"internal_node_id":"0.0-119.0"},{"result":166,"points":1,"place":3,"phase":1,"sequence":47,"prices":[201,204,179,166,185,165,214,156,202,165],"times":[501,525,541,828],"next_num":4,"trial_type":"ticket-choose","trial_index":120,"time_elapsed":792340,"internal_node_id":"0.0-120.0"},{"result":175,"points":1,"place":3,"phase":1,"sequence":48,"prices":[178,175,185,215,167,181,186,168,208,156],"times":[465,831],"next_num":2,"trial_type":"ticket-choose","trial_index":121,"time_elapsed":795530,"internal_node_id":"0.0-121.0"},{"result":170,"points":1,"place":2,"phase":1,"sequence":49,"prices":[191,170,182,165,175,182,203,157,195,200],"times":[437,807],"next_num":2,"trial_type":"ticket-choose","trial_index":122,"time_elapsed":798690,"internal_node_id":"0.0-122.0"},{"responses":[{"value":10,"offby":9,"category":"$115 - $130","category_index":0},{"value":11,"offby":6,"category":"$131 - $145","category_index":1},{"value":14,"offby":2,"category":"$146 - $160","category_index":2},{"value":21,"offby":-1,"category":"$161 - $175","category_index":3},{"value":27,"offby":-7,"category":"$176 - $190","category_index":4},{"value":11,"offby":-4,"category":"$191 - $205","category_index":5},{"value":6,"offby":-5,"category":"$206 - $220","category_index":6}],"phase":1,"number":1,"trial_type":"bar-choose","trial_index":123,"time_elapsed":819332,"internal_node_id":"0.0-123.0"},{"special_comment":"no","trial_type":"special_sequence","trial_index":124,"time_elapsed":824275,"internal_node_id":"0.0-124.0"},{"during":"Nothing","bonus":240,"trial_type":"final","trial_index":125,"time_elapsed":847712,"internal_node_id":"0.0-125.0"}],"bonus":240}