{"start_time":"2017-05-24 16:09:27","end_time":"2017-05-24 16:28:54","points_phase0":109,"points_phase1":91,"phase_order":0,"age":30,"gender":"f","tries":1,"during":"Nothing","worker_id":"A2OWVYIPSQB0QP","assignment_id":"3ZOTGHDK5J4EC8M3DNYMYWITKUXOSM","data":[{"rt":14826,"url":"\/christiane\/tickets\/utils\/consent.html","trial_type":"html","trial_index":0,"time_elapsed":15007,"internal_node_id":"0.0-0.0"},{"age":30,"gender":"f","trial_type":"age","trial_index":1,"time_elapsed":19960,"internal_node_id":"0.0-1.0"},{"worker_id":"A2OWVYIPSQB0QP","trial_type":"workerid","trial_index":2,"time_elapsed":46265,"internal_node_id":"0.0-2.0"},{"tries":1,"trial_type":"instructions_check","trial_index":3,"time_elapsed":68747,"internal_node_id":"0.0-3.0"},{"rt":10680,"url":"\/christiane\/tickets\/utils\/start.html","trial_type":"html","trial_index":4,"time_elapsed":80711,"internal_node_id":"0.0-4.0"},{"trial_type":"number-animation","trial_index":5,"time_elapsed":99260,"internal_node_id":"0.0-5.0"},{"phase":0,"sequence":0,"avg":181,"response":180,"trial_type":"training_avg","trial_index":6,"time_elapsed":107854,"internal_node_id":"0.0-6.0"},{"trial_type":"number-animation","trial_index":7,"time_elapsed":122592,"internal_node_id":"0.0-7.0"},{"phase":0,"sequence":1,"avg":188,"response":189,"trial_type":"training_avg","trial_index":8,"time_elapsed":130993,"internal_node_id":"0.0-8.0"},{"trial_type":"number-animation","trial_index":9,"time_elapsed":142461,"internal_node_id":"0.0-9.0"},{"phase":0,"sequence":2,"avg":188,"response":184,"trial_type":"training_avg","trial_index":10,"time_elapsed":149708,"internal_node_id":"0.0-10.0"},{"trial_type":"number-animation","trial_index":11,"time_elapsed":160490,"internal_node_id":"0.0-11.0"},{"phase":0,"sequence":3,"avg":177,"response":165,"trial_type":"training_avg","trial_index":12,"time_elapsed":168130,"internal_node_id":"0.0-12.0"},{"trial_type":"number-animation","trial_index":13,"time_elapsed":184190,"internal_node_id":"0.0-13.0"},{"phase":0,"sequence":4,"avg":182,"response":175,"trial_type":"training_avg","trial_index":14,"time_elapsed":192760,"internal_node_id":"0.0-14.0"},{"responses":[{"value":0,"offby":-1,"category":"$115 - $130","category_index":0},{"value":0,"offby":-5,"category":"$131 - $145","category_index":1},{"value":10,"offby":-2,"category":"$146 - $160","category_index":2},{"value":10,"offby":-12,"category":"$161 - $175","category_index":3},{"value":35,"offby":1,"category":"$176 - $190","category_index":4},{"value":35,"offby":20,"category":"$191 - $205","category_index":5},{"value":10,"offby":-1,"category":"$206 - $220","category_index":6}],"phase":0,"number":0,"trial_type":"bar-choose","trial_index":15,"time_elapsed":292747,"internal_node_id":"0.0-15.0"},{"rt":15981,"url":"\/christiane\/tickets\/utils\/testing.html","trial_type":"html","trial_index":16,"time_elapsed":309847,"internal_node_id":"0.0-16.0"},{"phase":0,"order":[37,40,48,25,12,45,10,30,42,9,43,20,41,5,44,7,0,14,49,39,15,34,33,24,11,47,32,27,38,36,35,19,22,29,13,6,1,2,31,46,3,28,26,18,16,8,23,21,4,17],"trial_type":"store_order","trial_index":17,"time_elapsed":310848,"internal_node_id":"0.0-17.0"},{"result":146,"points":3,"place":0,"phase":0,"sequence":-1,"prices":[184,180,224,165,181,199,185,193,218,146],"times":[7850,972,1793,1281,602,578,611,738,825,1064],"next_num":10,"trial_type":"ticket-choose","trial_index":18,"time_elapsed":331817,"internal_node_id":"0.0-18.0"},{"rt":15448,"url":"\/christiane\/tickets\/utils\/testing_after.html","trial_type":"html","trial_index":19,"time_elapsed":348419,"internal_node_id":"0.0-19.0"},{"result":163,"points":2,"place":1,"phase":0,"sequence":0,"prices":[198,193,169,163,202,182,152,164,177,171],"times":[1774,515,476,934],"next_num":4,"trial_type":"ticket-choose","trial_index":20,"time_elapsed":355054,"internal_node_id":"0.0-20.0"},{"result":150,"points":3,"place":0,"phase":0,"sequence":1,"prices":[189,150,175,160,188,207,158,194,178,199],"times":[1280,1183],"next_num":2,"trial_type":"ticket-choose","trial_index":21,"time_elapsed":360030,"internal_node_id":"0.0-21.0"},{"result":147,"points":3,"place":0,"phase":0,"sequence":2,"prices":[181,215,169,147,182,193,177,184,176,179],"times":[571,490,539,1105],"next_num":4,"trial_type":"ticket-choose","trial_index":22,"time_elapsed":365076,"internal_node_id":"0.0-22.0"},{"result":162,"points":3,"place":0,"phase":0,"sequence":3,"prices":[201,165,162,166,185,214,165,202,204,179],"times":[1145,580,970],"next_num":3,"trial_type":"ticket-choose","trial_index":23,"time_elapsed":369828,"internal_node_id":"0.0-23.0"},{"result":163,"points":2,"place":1,"phase":0,"sequence":4,"prices":[175,186,163,214,179,187,176,166,153,208],"times":[670,457,922],"next_num":3,"trial_type":"ticket-choose","trial_index":24,"time_elapsed":373962,"internal_node_id":"0.0-24.0"},{"result":164,"points":3,"place":0,"phase":0,"sequence":5,"prices":[212,192,188,184,167,193,189,164,176,170],"times":[808,602,506,470,1127,487,460,1104],"next_num":8,"trial_type":"ticket-choose","trial_index":25,"time_elapsed":382640,"internal_node_id":"0.0-25.0"},{"result":165,"points":2,"place":1,"phase":0,"sequence":6,"prices":[175,187,177,209,180,188,165,165,154,208],"times":[643,1309,447,458,450,439,1141],"next_num":7,"trial_type":"ticket-choose","trial_index":26,"time_elapsed":390436,"internal_node_id":"0.0-26.0"},{"result":165,"points":3,"place":0,"phase":0,"sequence":7,"prices":[191,172,169,175,182,203,170,195,165,176],"times":[466,426,901,455,483,480,475,462,1190],"next_num":9,"trial_type":"ticket-choose","trial_index":27,"time_elapsed":399400,"internal_node_id":"0.0-27.0"},{"result":143,"points":3,"place":0,"phase":0,"sequence":8,"prices":[222,173,202,197,143,205,198,183,178,186],"times":[541,395,403,485,1142],"next_num":5,"trial_type":"ticket-choose","trial_index":28,"time_elapsed":404904,"internal_node_id":"0.0-28.0"},{"result":165,"points":2,"place":1,"phase":0,"sequence":9,"prices":[175,186,177,210,179,187,165,166,153,208],"times":[648,594,382,470,448,523,887],"next_num":7,"trial_type":"ticket-choose","trial_index":29,"time_elapsed":411824,"internal_node_id":"0.0-29.0"},{"result":157,"points":3,"place":0,"phase":0,"sequence":10,"prices":[201,187,157,184,198,179,188,185,178,170],"times":[457,318,1047],"next_num":3,"trial_type":"ticket-choose","trial_index":30,"time_elapsed":415680,"internal_node_id":"0.0-30.0"},{"result":165,"points":1,"place":2,"phase":0,"sequence":11,"prices":[176,187,158,210,181,187,177,165,208,153],"times":[489,448,476,415,493,455,474,700],"next_num":8,"trial_type":"ticket-choose","trial_index":31,"time_elapsed":422758,"internal_node_id":"0.0-31.0"},{"result":155,"points":2,"place":1,"phase":0,"sequence":12,"prices":[201,207,155,158,156,165,167,135,178,177],"times":[391,373,931],"next_num":3,"trial_type":"ticket-choose","trial_index":32,"time_elapsed":426590,"internal_node_id":"0.0-32.0"},{"result":153,"points":3,"place":0,"phase":0,"sequence":13,"prices":[175,186,178,212,179,187,167,169,209,153],"times":[382,407,404,461,411,425,995,831,515,683],"next_num":10,"trial_type":"ticket-choose","trial_index":33,"time_elapsed":435815,"internal_node_id":"0.0-33.0"},{"result":159,"points":1,"place":2,"phase":0,"sequence":14,"prices":[180,159,149,175,185,141,163,174,178,207],"times":[410,1059],"next_num":2,"trial_type":"ticket-choose","trial_index":34,"time_elapsed":439168,"internal_node_id":"0.0-34.0"},{"result":154,"points":3,"place":0,"phase":0,"sequence":15,"prices":[175,187,165,209,180,188,177,166,154,208],"times":[526,490,1005,437,432,419,459,494,628],"next_num":9,"trial_type":"ticket-choose","trial_index":35,"time_elapsed":447443,"internal_node_id":"0.0-35.0"},{"result":156,"points":3,"place":0,"phase":0,"sequence":16,"prices":[174,186,167,211,181,188,178,168,208,156],"times":[508,453,348,423,455,468,479,1510,820,526],"next_num":10,"trial_type":"ticket-choose","trial_index":36,"time_elapsed":457079,"internal_node_id":"0.0-36.0"},{"result":163,"points":2,"place":1,"phase":0,"sequence":17,"prices":[174,186,163,212,181,187,176,166,153,209],"times":[694,464,1558],"next_num":3,"trial_type":"ticket-choose","trial_index":37,"time_elapsed":461923,"internal_node_id":"0.0-37.0"},{"result":163,"points":1,"place":2,"phase":0,"sequence":18,"prices":[183,163,185,180,166,148,160,186,176,184],"times":[399,853],"next_num":2,"trial_type":"ticket-choose","trial_index":38,"time_elapsed":465029,"internal_node_id":"0.0-38.0"},{"result":171,"points":1,"place":3,"phase":0,"sequence":19,"prices":[189,167,180,197,165,168,172,213,178,171],"times":[468,758,455,433,749,538,534,528,477,777],"next_num":10,"trial_type":"ticket-choose","trial_index":39,"time_elapsed":474509,"internal_node_id":"0.0-39.0"},{"result":163,"points":2,"place":1,"phase":0,"sequence":20,"prices":[175,186,176,210,179,187,163,166,153,208],"times":[540,491,465,482,451,478,1187],"next_num":7,"trial_type":"ticket-choose","trial_index":40,"time_elapsed":481516,"internal_node_id":"0.0-40.0"},{"result":155,"points":2,"place":1,"phase":0,"sequence":21,"prices":[181,155,148,161,168,187,172,199,176,194],"times":[543,989],"next_num":2,"trial_type":"ticket-choose","trial_index":41,"time_elapsed":484878,"internal_node_id":"0.0-41.0"},{"result":170,"points":1,"place":3,"phase":0,"sequence":22,"prices":[183,182,192,168,173,205,167,187,165,170],"times":[571,446,471,439,410,524,514,479,908,637],"next_num":10,"trial_type":"ticket-choose","trial_index":42,"time_elapsed":493872,"internal_node_id":"0.0-42.0"},{"result":184,"points":1,"place":4,"phase":0,"sequence":23,"prices":[193,165,175,181,185,224,180,199,218,184],"times":[473,529,410,460,513,463,464,452,504,1130],"next_num":10,"trial_type":"ticket-choose","trial_index":43,"time_elapsed":502996,"internal_node_id":"0.0-43.0"},{"result":165,"points":2,"place":1,"phase":0,"sequence":24,"prices":[174,186,177,217,181,187,165,166,153,209],"times":[581,436,472,517,573,467,1021],"next_num":7,"trial_type":"ticket-choose","trial_index":44,"time_elapsed":509926,"internal_node_id":"0.0-44.0"},{"result":152,"points":3,"place":0,"phase":0,"sequence":25,"prices":[200,181,203,152,175,171,160,154,176,191],"times":[481,424,397,729],"next_num":4,"trial_type":"ticket-choose","trial_index":45,"time_elapsed":514213,"internal_node_id":"0.0-45.0"},{"result":165,"points":3,"place":0,"phase":0,"sequence":26,"prices":[193,169,171,187,190,224,174,194,165,188],"times":[424,430,491,413,416,472,494,496,944],"next_num":9,"trial_type":"ticket-choose","trial_index":46,"time_elapsed":522188,"internal_node_id":"0.0-46.0"},{"result":186,"points":1,"place":4,"phase":0,"sequence":27,"prices":[192,165,171,178,188,217,172,195,197,186],"times":[337,340,389,480,432,453,432,530,607,674],"next_num":10,"trial_type":"ticket-choose","trial_index":47,"time_elapsed":530571,"internal_node_id":"0.0-47.0"},{"result":163,"points":3,"place":0,"phase":0,"sequence":28,"prices":[168,199,196,198,185,195,227,163,177,166],"times":[507,444,448,412,453,463,448,654],"next_num":8,"trial_type":"ticket-choose","trial_index":48,"time_elapsed":537554,"internal_node_id":"0.0-48.0"},{"result":165,"points":2,"place":1,"phase":0,"sequence":29,"prices":[188,200,165,172,198,174,177,154,177,180],"times":[436,372,872],"next_num":3,"trial_type":"ticket-choose","trial_index":49,"time_elapsed":541262,"internal_node_id":"0.0-49.0"},{"result":144,"points":3,"place":0,"phase":0,"sequence":30,"prices":[168,154,172,185,195,144,184,211,177,227],"times":[514,372,486,452,492,813],"next_num":6,"trial_type":"ticket-choose","trial_index":50,"time_elapsed":547120,"internal_node_id":"0.0-50.0"},{"result":158,"points":2,"place":1,"phase":0,"sequence":31,"prices":[175,186,158,209,181,188,177,167,208,154],"times":[551,708,737],"next_num":3,"trial_type":"ticket-choose","trial_index":51,"time_elapsed":551168,"internal_node_id":"0.0-51.0"},{"result":158,"points":2,"place":1,"phase":0,"sequence":32,"prices":[175,186,177,209,181,188,158,167,208,154],"times":[526,463,424,456,554,486,629],"next_num":7,"trial_type":"ticket-choose","trial_index":52,"time_elapsed":557588,"internal_node_id":"0.0-52.0"},{"result":165,"points":3,"place":0,"phase":0,"sequence":33,"prices":[185,170,182,201,173,199,171,188,165,168],"times":[482,388,482,500,483,518,467,486,624],"next_num":9,"trial_type":"ticket-choose","trial_index":53,"time_elapsed":565336,"internal_node_id":"0.0-53.0"},{"result":163,"points":2,"place":1,"phase":0,"sequence":34,"prices":[175,187,163,209,180,188,176,165,154,208],"times":[918,533,1365],"next_num":3,"trial_type":"ticket-choose","trial_index":54,"time_elapsed":570134,"internal_node_id":"0.0-54.0"},{"result":165,"points":2,"place":1,"phase":0,"sequence":35,"prices":[175,186,165,214,179,187,177,166,153,208],"times":[446,376,695],"next_num":3,"trial_type":"ticket-choose","trial_index":55,"time_elapsed":573744,"internal_node_id":"0.0-55.0"},{"result":167,"points":2,"place":1,"phase":0,"sequence":36,"prices":[175,185,167,224,181,186,178,168,208,156],"times":[389,411,1002],"next_num":3,"trial_type":"ticket-choose","trial_index":56,"time_elapsed":577712,"internal_node_id":"0.0-56.0"},{"result":153,"points":3,"place":0,"phase":0,"sequence":37,"prices":[175,186,167,225,179,187,178,169,209,153],"times":[720,462,932,433,463,555,445,743,471,648],"next_num":10,"trial_type":"ticket-choose","trial_index":57,"time_elapsed":587092,"internal_node_id":"0.0-57.0"},{"result":165,"points":3,"place":0,"phase":0,"sequence":38,"prices":[171,203,175,170,167,220,192,186,165,165],"times":[499,331,347,404,817,507,561,450,917],"next_num":9,"trial_type":"ticket-choose","trial_index":58,"time_elapsed":595349,"internal_node_id":"0.0-58.0"},{"result":208,"points":0,"place":6,"phase":0,"sequence":39,"prices":[210,184,226,193,215,158,199,175,176,208],"times":[412,325,496,485,475,466,479,450,495,1985],"next_num":10,"trial_type":"ticket-choose","trial_index":59,"time_elapsed":605168,"internal_node_id":"0.0-59.0"},{"result":167,"points":2,"place":1,"phase":0,"sequence":40,"prices":[174,186,178,217,181,188,167,168,208,156],"times":[852,598,1212,482,483,474,793],"next_num":7,"trial_type":"ticket-choose","trial_index":60,"time_elapsed":612957,"internal_node_id":"0.0-60.0"},{"result":165,"points":3,"place":0,"phase":0,"sequence":41,"prices":[196,165,170,184,187,211,171,201,202,185],"times":[548,1016],"next_num":2,"trial_type":"ticket-choose","trial_index":61,"time_elapsed":616942,"internal_node_id":"0.0-61.0"},{"result":165,"points":2,"place":1,"phase":0,"sequence":42,"prices":[200,165,165,173,182,207,161,202,204,180],"times":[595,874],"next_num":2,"trial_type":"ticket-choose","trial_index":62,"time_elapsed":620256,"internal_node_id":"0.0-62.0"},{"result":158,"points":2,"place":1,"phase":0,"sequence":43,"prices":[175,186,158,211,180,187,177,166,209,153],"times":[521,486,931],"next_num":3,"trial_type":"ticket-choose","trial_index":63,"time_elapsed":624221,"internal_node_id":"0.0-63.0"},{"result":163,"points":2,"place":1,"phase":0,"sequence":44,"prices":[175,187,176,209,180,188,163,165,154,208],"times":[503,483,537,501,513,534,1005],"next_num":7,"trial_type":"ticket-choose","trial_index":64,"time_elapsed":631158,"internal_node_id":"0.0-64.0"},{"result":165,"points":2,"place":1,"phase":0,"sequence":45,"prices":[174,186,165,212,181,187,177,167,153,209],"times":[675,1842,1093],"next_num":3,"trial_type":"ticket-choose","trial_index":65,"time_elapsed":636883,"internal_node_id":"0.0-65.0"},{"result":158,"points":2,"place":1,"phase":0,"sequence":46,"prices":[176,187,177,225,181,187,158,165,208,153],"times":[817,1683,1886,460,457,448,1023],"next_num":7,"trial_type":"ticket-choose","trial_index":66,"time_elapsed":646586,"internal_node_id":"0.0-66.0"},{"result":158,"points":2,"place":1,"phase":0,"sequence":47,"prices":[175,186,177,221,180,187,158,166,209,153],"times":[625,1512,510,552,576,897,1045],"next_num":7,"trial_type":"ticket-choose","trial_index":67,"time_elapsed":655556,"internal_node_id":"0.0-67.0"},{"result":167,"points":2,"place":1,"phase":0,"sequence":48,"prices":[175,185,178,215,181,186,167,168,208,156],"times":[523,825,1118,467,502,502,990],"next_num":7,"trial_type":"ticket-choose","trial_index":68,"time_elapsed":663436,"internal_node_id":"0.0-68.0"},{"result":163,"points":2,"place":1,"phase":0,"sequence":49,"prices":[174,186,176,217,181,187,163,166,153,209],"times":[676,436,413,447,440,459,1521],"next_num":7,"trial_type":"ticket-choose","trial_index":69,"time_elapsed":670891,"internal_node_id":"0.0-69.0"},{"responses":[{"value":0,"offby":-1,"category":"$115 - $130","category_index":0},{"value":5,"offby":0,"category":"$131 - $145","category_index":1},{"value":20,"offby":8,"category":"$146 - $160","category_index":2},{"value":40,"offby":18,"category":"$161 - $175","category_index":3},{"value":20,"offby":-14,"category":"$176 - $190","category_index":4},{"value":10,"offby":-5,"category":"$191 - $205","category_index":5},{"value":5,"offby":-6,"category":"$206 - $220","category_index":6}],"phase":1,"number":1,"trial_type":"bar-choose","trial_index":70,"time_elapsed":714025,"internal_node_id":"0.0-70.0"},{"rt":20501,"url":"\/christiane\/tickets\/utils\/testing2.html","trial_type":"point_update","trial_index":71,"time_elapsed":735864,"internal_node_id":"0.0-71.0"},{"phase":1,"order":[3,43,1,38,34,8,42,46,37,29,45,44,17,24,6,47,27,19,49,41,40,35,9,28,39,10,12,48,31,7,18,16,20,25,4,21,11,5,30,14,23,2,33,22,26,13,32,36,15,0],"trial_type":"store_order","trial_index":72,"time_elapsed":736866,"internal_node_id":"0.0-72.0"},{"result":167,"points":2,"place":1,"phase":1,"sequence":0,"prices":[178,174,186,217,167,181,188,168,208,156],"times":[1385,541,524,540,987],"next_num":5,"trial_type":"ticket-choose","trial_index":73,"time_elapsed":743495,"internal_node_id":"0.0-73.0"},{"result":157,"points":3,"place":0,"phase":1,"sequence":1,"prices":[201,187,157,184,198,179,188,185,178,170],"times":[883,616,863],"next_num":3,"trial_type":"ticket-choose","trial_index":74,"time_elapsed":747967,"internal_node_id":"0.0-74.0"},{"result":168,"points":1,"place":2,"phase":1,"sequence":2,"prices":[167,175,185,224,178,181,186,168,208,156],"times":[1222,609,507,524,532,532,570,1558],"next_num":8,"trial_type":"ticket-choose","trial_index":75,"time_elapsed":757269,"internal_node_id":"0.0-75.0"},{"result":163,"points":3,"place":0,"phase":1,"sequence":3,"prices":[163,199,196,199,185,195,227,163,177,166],"times":[912],"next_num":1,"trial_type":"ticket-choose","trial_index":76,"time_elapsed":759955,"internal_node_id":"0.0-76.0"},{"result":156,"points":2,"place":1,"phase":1,"sequence":4,"prices":[180,156,149,160,168,186,172,198,176,195],"times":[793,764],"next_num":2,"trial_type":"ticket-choose","trial_index":77,"time_elapsed":763348,"internal_node_id":"0.0-77.0"},{"result":165,"points":2,"place":1,"phase":1,"sequence":5,"prices":[165,174,186,212,177,181,187,166,153,209],"times":[1013],"next_num":1,"trial_type":"ticket-choose","trial_index":78,"time_elapsed":765965,"internal_node_id":"0.0-78.0"},{"result":186,"points":1,"place":4,"phase":1,"sequence":6,"prices":[220,173,201,197,169,205,198,183,178,186],"times":[616,507,615,603,500,540,547,570,531,848],"next_num":10,"trial_type":"ticket-choose","trial_index":79,"time_elapsed":775705,"internal_node_id":"0.0-79.0"},{"result":158,"points":3,"place":0,"phase":1,"sequence":7,"prices":[214,184,226,192,215,158,199,175,176,208],"times":[1313,516,524,500,609,881],"next_num":6,"trial_type":"ticket-choose","trial_index":80,"time_elapsed":782743,"internal_node_id":"0.0-80.0"},{"result":169,"points":1,"place":3,"phase":1,"sequence":8,"prices":[199,193,169,165,202,182,151,164,176,171],"times":[434,532,856],"next_num":3,"trial_type":"ticket-choose","trial_index":81,"time_elapsed":786605,"internal_node_id":"0.0-81.0"},{"result":165,"points":1,"place":2,"phase":1,"sequence":9,"prices":[185,179,191,165,161,173,199,150,188,168],"times":[394,530,548,856],"next_num":4,"trial_type":"ticket-choose","trial_index":82,"time_elapsed":791163,"internal_node_id":"0.0-82.0"},{"result":167,"points":2,"place":1,"phase":1,"sequence":10,"prices":[199,191,188,174,167,193,189,164,176,170],"times":[415,393,524,468,1129],"next_num":5,"trial_type":"ticket-choose","trial_index":83,"time_elapsed":796717,"internal_node_id":"0.0-83.0"},{"result":159,"points":1,"place":2,"phase":1,"sequence":11,"prices":[181,159,149,175,185,151,163,174,178,207],"times":[443,787],"next_num":2,"trial_type":"ticket-choose","trial_index":84,"time_elapsed":799783,"internal_node_id":"0.0-84.0"},{"result":163,"points":2,"place":1,"phase":1,"sequence":12,"prices":[176,186,178,217,163,181,187,166,153,209],"times":[470,500,509,594,948],"next_num":5,"trial_type":"ticket-choose","trial_index":85,"time_elapsed":805229,"internal_node_id":"0.0-85.0"},{"result":184,"points":1,"place":4,"phase":1,"sequence":13,"prices":[193,181,175,181,185,165,224,199,218,184],"times":[520,485,569,554,577,688,476,556,538,681],"next_num":10,"trial_type":"ticket-choose","trial_index":86,"time_elapsed":814844,"internal_node_id":"0.0-86.0"},{"result":165,"points":2,"place":1,"phase":1,"sequence":14,"prices":[165,175,186,214,177,179,187,166,153,208],"times":[853],"next_num":1,"trial_type":"ticket-choose","trial_index":87,"time_elapsed":817301,"internal_node_id":"0.0-87.0"},{"result":152,"points":3,"place":0,"phase":1,"sequence":15,"prices":[200,180,203,152,175,170,160,154,176,191],"times":[520,548,530,796],"next_num":4,"trial_type":"ticket-choose","trial_index":88,"time_elapsed":821937,"internal_node_id":"0.0-88.0"},{"result":165,"points":3,"place":0,"phase":1,"sequence":16,"prices":[192,172,171,178,188,165,217,168,195,197],"times":[436,531,554,578,548,771],"next_num":6,"trial_type":"ticket-choose","trial_index":89,"time_elapsed":828009,"internal_node_id":"0.0-89.0"},{"result":167,"points":1,"place":2,"phase":1,"sequence":17,"prices":[158,175,186,209,177,181,188,167,208,154],"times":[407,554,409,507,492,516,570,947],"next_num":8,"trial_type":"ticket-choose","trial_index":90,"time_elapsed":835462,"internal_node_id":"0.0-90.0"},{"result":163,"points":1,"place":2,"phase":1,"sequence":18,"prices":[173,163,185,181,166,148,160,185,176,184],"times":[421,762],"next_num":2,"trial_type":"ticket-choose","trial_index":91,"time_elapsed":838723,"internal_node_id":"0.0-91.0"},{"result":155,"points":2,"place":1,"phase":1,"sequence":19,"prices":[200,207,155,158,156,168,167,135,178,177],"times":[404,455,816],"next_num":3,"trial_type":"ticket-choose","trial_index":92,"time_elapsed":842484,"internal_node_id":"0.0-92.0"},{"result":199,"points":0,"place":8,"phase":1,"sequence":20,"prices":[190,150,175,161,188,207,157,194,178,199],"times":[552,315,639,770,494,516,471,591,772,772],"next_num":10,"trial_type":"ticket-choose","trial_index":93,"time_elapsed":852380,"internal_node_id":"0.0-93.0"},{"result":153,"points":2,"place":1,"phase":1,"sequence":21,"prices":[167,153,172,185,195,143,184,211,177,227],"times":[745,802],"next_num":2,"trial_type":"ticket-choose","trial_index":94,"time_elapsed":855754,"internal_node_id":"0.0-94.0"},{"result":166,"points":1,"place":2,"phase":1,"sequence":22,"prices":[177,175,186,210,165,179,187,166,153,208],"times":[605,518,538,564,795,748,516,1034],"next_num":8,"trial_type":"ticket-choose","trial_index":95,"time_elapsed":864182,"internal_node_id":"0.0-95.0"},{"result":165,"points":3,"place":0,"phase":1,"sequence":23,"prices":[196,171,170,184,187,165,211,169,201,202],"times":[461,470,499,527,520,873],"next_num":6,"trial_type":"ticket-choose","trial_index":96,"time_elapsed":870262,"internal_node_id":"0.0-96.0"},{"result":167,"points":2,"place":1,"phase":1,"sequence":24,"prices":[189,167,180,197,165,168,172,213,178,171],"times":[473,964],"next_num":2,"trial_type":"ticket-choose","trial_index":97,"time_elapsed":873536,"internal_node_id":"0.0-97.0"},{"result":165,"points":2,"place":1,"phase":1,"sequence":25,"prices":[177,175,187,209,165,180,188,165,154,208],"times":[629,625,511,553,865],"next_num":5,"trial_type":"ticket-choose","trial_index":98,"time_elapsed":879160,"internal_node_id":"0.0-98.0"},{"result":166,"points":1,"place":2,"phase":1,"sequence":26,"prices":[163,175,186,214,176,179,187,166,153,208],"times":[432,330,462,524,546,540,563,950],"next_num":8,"trial_type":"ticket-choose","trial_index":99,"time_elapsed":886592,"internal_node_id":"0.0-99.0"},{"result":179,"points":1,"place":4,"phase":1,"sequence":27,"prices":[181,214,169,147,182,193,178,184,176,179],"times":[574,640,741,509,354,509,524,570,686,541],"next_num":10,"trial_type":"ticket-choose","trial_index":100,"time_elapsed":895992,"internal_node_id":"0.0-100.0"},{"result":169,"points":0,"place":5,"phase":1,"sequence":28,"prices":[171,169,186,165,163,167,220,148,187,165],"times":[999,811],"next_num":2,"trial_type":"ticket-choose","trial_index":101,"time_elapsed":899918,"internal_node_id":"0.0-101.0"},{"result":167,"points":1,"place":2,"phase":1,"sequence":29,"prices":[165,175,187,209,177,180,188,167,154,208],"times":[1440,524,541,547,524,524,509,941],"next_num":8,"trial_type":"ticket-choose","trial_index":102,"time_elapsed":908636,"internal_node_id":"0.0-102.0"},{"result":166,"points":1,"place":2,"phase":1,"sequence":30,"prices":[158,175,186,211,177,180,187,166,209,153],"times":[432,462,554,569,525,587,540,779],"next_num":8,"trial_type":"ticket-choose","trial_index":103,"time_elapsed":916300,"internal_node_id":"0.0-103.0"},{"result":163,"points":2,"place":1,"phase":1,"sequence":31,"prices":[176,187,179,209,163,180,188,165,154,208],"times":[710,555,539,571,773],"next_num":5,"trial_type":"ticket-choose","trial_index":104,"time_elapsed":921916,"internal_node_id":"0.0-104.0"},{"result":158,"points":2,"place":1,"phase":1,"sequence":32,"prices":[158,176,187,210,177,181,187,165,208,153],"times":[814],"next_num":1,"trial_type":"ticket-choose","trial_index":105,"time_elapsed":924447,"internal_node_id":"0.0-105.0"},{"result":165,"points":2,"place":1,"phase":1,"sequence":33,"prices":[201,204,179,166,185,165,214,156,202,165],"times":[637,508,538,802,555,1359,553,866,810,826],"next_num":10,"trial_type":"ticket-choose","trial_index":106,"time_elapsed":935409,"internal_node_id":"0.0-106.0"},{"result":156,"points":3,"place":0,"phase":1,"sequence":34,"prices":[178,175,185,215,167,181,186,168,208,156],"times":[588,546,508,531,739,516,554,794,531,893],"next_num":10,"trial_type":"ticket-choose","trial_index":107,"time_elapsed":945133,"internal_node_id":"0.0-107.0"},{"result":158,"points":2,"place":1,"phase":1,"sequence":35,"prices":[177,175,186,221,158,180,187,166,209,153],"times":[558,416,554,547,880],"next_num":5,"trial_type":"ticket-choose","trial_index":108,"time_elapsed":950639,"internal_node_id":"0.0-108.0"},{"result":165,"points":2,"place":1,"phase":1,"sequence":36,"prices":[177,174,186,217,165,181,187,166,153,209],"times":[536,407,492,524,1142],"next_num":5,"trial_type":"ticket-choose","trial_index":109,"time_elapsed":956181,"internal_node_id":"0.0-109.0"},{"result":153,"points":3,"place":0,"phase":1,"sequence":37,"prices":[178,175,186,212,167,179,187,169,209,153],"times":[702,462,1110,518,832,509,563,794,564,824],"next_num":10,"trial_type":"ticket-choose","trial_index":110,"time_elapsed":966600,"internal_node_id":"0.0-110.0"},{"result":157,"points":3,"place":0,"phase":1,"sequence":38,"prices":[191,170,182,165,175,182,203,157,195,200],"times":[596,470,570,741,516,554,540,933],"next_num":8,"trial_type":"ticket-choose","trial_index":111,"time_elapsed":974648,"internal_node_id":"0.0-111.0"},{"result":166,"points":1,"place":2,"phase":1,"sequence":39,"prices":[163,174,186,212,176,181,187,166,153,209],"times":[451,508,531,809,748,609,547,1499],"next_num":8,"trial_type":"ticket-choose","trial_index":112,"time_elapsed":983430,"internal_node_id":"0.0-112.0"},{"result":158,"points":2,"place":1,"phase":1,"sequence":40,"prices":[177,176,187,225,158,181,187,165,208,153],"times":[534,502,525,562,903],"next_num":5,"trial_type":"ticket-choose","trial_index":113,"time_elapsed":988890,"internal_node_id":"0.0-113.0"},{"result":153,"points":3,"place":0,"phase":1,"sequence":41,"prices":[167,175,186,225,178,179,187,169,209,153],"times":[462,433,548,515,509,587,548,849,487,670],"next_num":10,"trial_type":"ticket-choose","trial_index":114,"time_elapsed":998036,"internal_node_id":"0.0-114.0"},{"result":168,"points":1,"place":2,"phase":1,"sequence":42,"prices":[183,179,188,165,168,173,205,159,187,191],"times":[690,563,462,1628,1568],"next_num":5,"trial_type":"ticket-choose","trial_index":115,"time_elapsed":1005404,"internal_node_id":"0.0-115.0"},{"result":158,"points":2,"place":1,"phase":1,"sequence":43,"prices":[177,175,186,209,158,181,188,167,208,154],"times":[720,623,608,569,882],"next_num":5,"trial_type":"ticket-choose","trial_index":116,"time_elapsed":1011398,"internal_node_id":"0.0-116.0"},{"result":161,"points":2,"place":1,"phase":1,"sequence":44,"prices":[200,173,182,169,207,165,152,202,161,204],"times":[713,471,531,587,577,1791,423,879,849],"next_num":9,"trial_type":"ticket-choose","trial_index":117,"time_elapsed":1021624,"internal_node_id":"0.0-117.0"},{"result":154,"points":3,"place":0,"phase":1,"sequence":45,"prices":[163,175,187,209,176,180,188,165,154,208],"times":[1052,494,516,532,524,686,739,1781,909],"next_num":9,"trial_type":"ticket-choose","trial_index":118,"time_elapsed":1032168,"internal_node_id":"0.0-118.0"},{"result":195,"points":0,"place":7,"phase":1,"sequence":46,"prices":[193,174,224,165,187,190,224,161,194,195],"times":[848,516,549,1334,486,570,538,624,564,649],"next_num":11,"trial_type":"ticket-choose","trial_index":119,"time_elapsed":1044226,"internal_node_id":"0.0-119.0"},{"result":154,"points":3,"place":0,"phase":1,"sequence":47,"prices":[187,201,165,172,196,174,178,154,172,180],"times":[638,523,1358,524,548,537,524,832],"next_num":8,"trial_type":"ticket-choose","trial_index":120,"time_elapsed":1052867,"internal_node_id":"0.0-120.0"},{"result":166,"points":1,"place":2,"phase":1,"sequence":48,"prices":[176,175,186,210,163,179,187,166,153,208],"times":[698,532,578,570,1181,594,561,1766],"next_num":8,"trial_type":"ticket-choose","trial_index":121,"time_elapsed":1062415,"internal_node_id":"0.0-121.0"},{"result":156,"points":3,"place":0,"phase":1,"sequence":49,"prices":[167,174,186,211,178,181,188,168,208,156],"times":[843,538,527,559,556,569,581,1147,609,654],"next_num":10,"trial_type":"ticket-choose","trial_index":122,"time_elapsed":1072827,"internal_node_id":"0.0-122.0"},{"responses":[{"value":2,"offby":1,"category":"$115 - $130","category_index":0},{"value":10,"offby":5,"category":"$131 - $145","category_index":1},{"value":20,"offby":8,"category":"$146 - $160","category_index":2},{"value":31,"offby":9,"category":"$161 - $175","category_index":3},{"value":20,"offby":-14,"category":"$176 - $190","category_index":4},{"value":15,"offby":0,"category":"$191 - $205","category_index":5},{"value":2,"offby":-9,"category":"$206 - $220","category_index":6}],"phase":1,"number":1,"trial_type":"bar-choose","trial_index":123,"time_elapsed":1112324,"internal_node_id":"0.0-123.0"},{"special_comment":"No.","trial_type":"special_sequence","trial_index":124,"time_elapsed":1118045,"internal_node_id":"0.0-124.0"},{"during":"Nothing","bonus":268,"trial_type":"final","trial_index":125,"time_elapsed":1164295,"internal_node_id":"0.0-125.0"}],"bonus":268}