{"start_time":"2017-05-24 12:14:50","end_time":"2017-05-24 12:37:32","points_phase0":117,"points_phase1":114,"phase_order":0,"age":44,"gender":"m","tries":2,"during":"Nothing","worker_id":"A2RRC5B4M80XXO","assignment_id":"3IGI0VL648DHWVUY5RH0Z28NXTRNO7","data":[{"rt":3370,"url":"\/christiane\/tickets\/utils\/consent.html","trial_type":"html","trial_index":0,"time_elapsed":3583,"internal_node_id":"0.0-0.0"},{"age":44,"gender":"m","trial_type":"age","trial_index":1,"time_elapsed":9539,"internal_node_id":"0.0-1.0"},{"worker_id":"A2RRC5B4M80XXO","trial_type":"workerid","trial_index":2,"time_elapsed":27684,"internal_node_id":"0.0-2.0"},{"tries":2,"trial_type":"instructions_check","trial_index":3,"time_elapsed":83608,"internal_node_id":"0.0-3.0"},{"rt":9757,"url":"\/christiane\/tickets\/utils\/start.html","trial_type":"html","trial_index":4,"time_elapsed":94530,"internal_node_id":"0.0-4.0"},{"trial_type":"number-animation","trial_index":5,"time_elapsed":113838,"internal_node_id":"0.0-5.0"},{"phase":0,"sequence":0,"avg":181,"response":183,"trial_type":"training_avg","trial_index":6,"time_elapsed":127904,"internal_node_id":"0.0-6.0"},{"trial_type":"number-animation","trial_index":7,"time_elapsed":139263,"internal_node_id":"0.0-7.0"},{"phase":0,"sequence":1,"avg":188,"response":174,"trial_type":"training_avg","trial_index":8,"time_elapsed":148554,"internal_node_id":"0.0-8.0"},{"trial_type":"number-animation","trial_index":9,"time_elapsed":158770,"internal_node_id":"0.0-9.0"},{"phase":0,"sequence":2,"avg":188,"response":188,"trial_type":"training_avg","trial_index":10,"time_elapsed":166614,"internal_node_id":"0.0-10.0"},{"trial_type":"number-animation","trial_index":11,"time_elapsed":176113,"internal_node_id":"0.0-11.0"},{"phase":0,"sequence":3,"avg":177,"response":185,"trial_type":"training_avg","trial_index":12,"time_elapsed":183431,"internal_node_id":"0.0-12.0"},{"trial_type":"number-animation","trial_index":13,"time_elapsed":194414,"internal_node_id":"0.0-13.0"},{"phase":0,"sequence":4,"avg":182,"response":174,"trial_type":"training_avg","trial_index":14,"time_elapsed":202999,"internal_node_id":"0.0-14.0"},{"responses":[{"value":0,"offby":-1,"category":"$115 - $130","category_index":0},{"value":0,"offby":-5,"category":"$131 - $145","category_index":1},{"value":0,"offby":-12,"category":"$146 - $160","category_index":2},{"value":0,"offby":-22,"category":"$161 - $175","category_index":3},{"value":0,"offby":-34,"category":"$176 - $190","category_index":4},{"value":47,"offby":32,"category":"$191 - $205","category_index":5},{"value":53,"offby":42,"category":"$206 - $220","category_index":6}],"phase":0,"number":0,"trial_type":"bar-choose","trial_index":15,"time_elapsed":260297,"internal_node_id":"0.0-15.0"},{"rt":3132,"url":"\/christiane\/tickets\/utils\/testing.html","trial_type":"html","trial_index":16,"time_elapsed":264592,"internal_node_id":"0.0-16.0"},{"phase":0,"order":[27,37,47,5,18,2,42,3,8,48,38,9,33,7,35,1,10,44,34,31,16,12,30,45,17,6,28,20,39,40,36,14,26,11,15,29,19,25,21,4,24,46,23,32,43,0,49,41,22,13],"trial_type":"store_order","trial_index":17,"time_elapsed":265604,"internal_node_id":"0.0-17.0"},{"result":185,"points":0,"place":5,"phase":0,"sequence":-1,"prices":[184,180,224,165,181,199,185,193,218,146],"times":[4109,3192,922,2081,1244,1153,1566],"next_num":7,"trial_type":"ticket-choose","trial_index":18,"time_elapsed":283697,"internal_node_id":"0.0-18.0"},{"rt":11463,"url":"\/christiane\/tickets\/utils\/testing_after.html","trial_type":"html","trial_index":19,"time_elapsed":296345,"internal_node_id":"0.0-19.0"},{"result":186,"points":1,"place":4,"phase":0,"sequence":0,"prices":[192,165,171,178,188,217,172,195,197,186],"times":[3203,5446,1113,1080,1096,742,765,995,1106,2000],"next_num":11,"trial_type":"ticket-choose","trial_index":20,"time_elapsed":319404,"internal_node_id":"0.0-20.0"},{"result":169,"points":1,"place":3,"phase":0,"sequence":1,"prices":[198,193,169,163,202,182,152,164,177,171],"times":[2067,866,1070],"next_num":3,"trial_type":"ticket-choose","trial_index":21,"time_elapsed":326383,"internal_node_id":"0.0-21.0"},{"result":152,"points":3,"place":0,"phase":0,"sequence":2,"prices":[200,181,203,152,175,171,160,154,176,191],"times":[1665,691,759,2271],"next_num":4,"trial_type":"ticket-choose","trial_index":22,"time_elapsed":335736,"internal_node_id":"0.0-22.0"},{"result":167,"points":2,"place":1,"phase":0,"sequence":3,"prices":[175,186,178,212,179,187,167,169,209,153],"times":[1483,660,697,729,727,744,1334],"next_num":7,"trial_type":"ticket-choose","trial_index":23,"time_elapsed":345873,"internal_node_id":"0.0-23.0"},{"result":158,"points":2,"place":1,"phase":0,"sequence":4,"prices":[175,186,158,211,180,187,177,166,209,153],"times":[1231,685,1811],"next_num":3,"trial_type":"ticket-choose","trial_index":24,"time_elapsed":352370,"internal_node_id":"0.0-24.0"},{"result":169,"points":1,"place":2,"phase":0,"sequence":5,"prices":[175,186,167,225,179,187,178,169,209,153],"times":[1144,672,674,1066,656,1036,1385,1527],"next_num":8,"trial_type":"ticket-choose","trial_index":25,"time_elapsed":364291,"internal_node_id":"0.0-25.0"},{"result":143,"points":3,"place":0,"phase":0,"sequence":6,"prices":[222,173,202,197,143,205,198,183,178,186],"times":[1136,672,657,636,1102],"next_num":5,"trial_type":"ticket-choose","trial_index":26,"time_elapsed":371778,"internal_node_id":"0.0-26.0"},{"result":167,"points":2,"place":1,"phase":0,"sequence":7,"prices":[174,186,178,217,181,188,167,168,208,156],"times":[1322,718,716,693,773,914,1008],"next_num":7,"trial_type":"ticket-choose","trial_index":27,"time_elapsed":381435,"internal_node_id":"0.0-27.0"},{"result":167,"points":1,"place":2,"phase":0,"sequence":8,"prices":[174,186,165,212,181,187,177,167,153,209],"times":[1068,857,1746,631,700,709,767,2278],"next_num":8,"trial_type":"ticket-choose","trial_index":28,"time_elapsed":394260,"internal_node_id":"0.0-28.0"},{"result":147,"points":3,"place":0,"phase":0,"sequence":9,"prices":[181,215,169,147,182,193,177,184,176,179],"times":[5929,640,1443,1073],"next_num":4,"trial_type":"ticket-choose","trial_index":29,"time_elapsed":406995,"internal_node_id":"0.0-29.0"},{"result":163,"points":3,"place":0,"phase":0,"sequence":10,"prices":[168,199,196,198,185,195,227,163,177,166],"times":[1526,752,513,543,552,634,703,886],"next_num":8,"trial_type":"ticket-choose","trial_index":30,"time_elapsed":416926,"internal_node_id":"0.0-30.0"},{"result":165,"points":2,"place":1,"phase":0,"sequence":11,"prices":[175,186,177,210,179,187,165,166,153,208],"times":[823,553,650,606,558,758,1644],"next_num":7,"trial_type":"ticket-choose","trial_index":31,"time_elapsed":425855,"internal_node_id":"0.0-31.0"},{"result":167,"points":2,"place":1,"phase":0,"sequence":12,"prices":[183,182,192,168,173,205,167,187,165,170],"times":[720,602,636,1104,660,671,1836],"next_num":7,"trial_type":"ticket-choose","trial_index":32,"time_elapsed":435412,"internal_node_id":"0.0-32.0"},{"result":165,"points":2,"place":1,"phase":0,"sequence":13,"prices":[175,187,165,209,180,188,177,166,154,208],"times":[883,3068,3864],"next_num":3,"trial_type":"ticket-choose","trial_index":33,"time_elapsed":445751,"internal_node_id":"0.0-33.0"},{"result":154,"points":2,"place":1,"phase":0,"sequence":14,"prices":[168,154,172,185,195,144,184,211,177,227],"times":[755,1135],"next_num":2,"trial_type":"ticket-choose","trial_index":34,"time_elapsed":450017,"internal_node_id":"0.0-34.0"},{"result":156,"points":3,"place":0,"phase":0,"sequence":15,"prices":[175,185,167,224,181,186,178,168,208,156],"times":[899,553,1226,670,684,711,940,1513,973,821],"next_num":10,"trial_type":"ticket-choose","trial_index":35,"time_elapsed":463898,"internal_node_id":"0.0-35.0"},{"result":165,"points":2,"place":1,"phase":0,"sequence":16,"prices":[175,187,177,209,180,188,165,165,154,208],"times":[1268,702,680,617,634,665,1091],"next_num":7,"trial_type":"ticket-choose","trial_index":36,"time_elapsed":472839,"internal_node_id":"0.0-36.0"},{"result":149,"points":2,"place":1,"phase":0,"sequence":17,"prices":[180,159,149,175,185,141,163,174,178,207],"times":[758,595,1160],"next_num":3,"trial_type":"ticket-choose","trial_index":37,"time_elapsed":477887,"internal_node_id":"0.0-37.0"},{"result":148,"points":3,"place":0,"phase":0,"sequence":18,"prices":[181,155,148,161,168,187,172,199,176,194],"times":[847,1748,2256],"next_num":3,"trial_type":"ticket-choose","trial_index":38,"time_elapsed":485317,"internal_node_id":"0.0-38.0"},{"result":165,"points":3,"place":0,"phase":0,"sequence":19,"prices":[171,203,175,170,167,220,192,186,165,165],"times":[1396,1301,1205,671,1331,722,685,754,858],"next_num":9,"trial_type":"ticket-choose","trial_index":39,"time_elapsed":498673,"internal_node_id":"0.0-39.0"},{"result":163,"points":2,"place":1,"phase":0,"sequence":20,"prices":[175,187,176,209,180,188,163,165,154,208],"times":[936,543,641,663,661,582,886],"next_num":7,"trial_type":"ticket-choose","trial_index":40,"time_elapsed":506849,"internal_node_id":"0.0-40.0"},{"result":153,"points":3,"place":0,"phase":0,"sequence":21,"prices":[175,186,163,214,179,187,176,166,153,208],"times":[753,469,2168,654,723,638,793,1443,1218],"next_num":9,"trial_type":"ticket-choose","trial_index":41,"time_elapsed":519566,"internal_node_id":"0.0-41.0"},{"result":165,"points":3,"place":0,"phase":0,"sequence":22,"prices":[191,172,169,175,182,203,170,195,165,176],"times":[840,788,704,686,668,731,869,1110,1017],"next_num":9,"trial_type":"ticket-choose","trial_index":42,"time_elapsed":530906,"internal_node_id":"0.0-42.0"},{"result":164,"points":3,"place":0,"phase":0,"sequence":23,"prices":[212,192,188,184,167,193,189,164,176,170],"times":[816,995,679,768,1589,758,998,863],"next_num":8,"trial_type":"ticket-choose","trial_index":43,"time_elapsed":541965,"internal_node_id":"0.0-43.0"},{"result":163,"points":2,"place":1,"phase":0,"sequence":24,"prices":[174,186,176,217,181,187,163,166,153,209],"times":[702,686,840,756,781,747,1031],"next_num":7,"trial_type":"ticket-choose","trial_index":44,"time_elapsed":550803,"internal_node_id":"0.0-44.0"},{"result":153,"points":3,"place":0,"phase":0,"sequence":25,"prices":[175,186,165,214,179,187,177,166,153,208],"times":[688,710,1579,609,674,771,671,1500,887],"next_num":9,"trial_type":"ticket-choose","trial_index":45,"time_elapsed":562670,"internal_node_id":"0.0-45.0"},{"result":185,"points":1,"place":4,"phase":0,"sequence":26,"prices":[196,165,170,184,187,211,171,201,202,185],"times":[981,864,611,721,677,720,715,774,801,1547],"next_num":10,"trial_type":"ticket-choose","trial_index":46,"time_elapsed":575169,"internal_node_id":"0.0-46.0"},{"result":158,"points":2,"place":1,"phase":0,"sequence":27,"prices":[176,187,158,210,181,187,177,165,208,153],"times":[853,4765,960],"next_num":3,"trial_type":"ticket-choose","trial_index":47,"time_elapsed":584267,"internal_node_id":"0.0-47.0"},{"result":165,"points":3,"place":0,"phase":0,"sequence":28,"prices":[189,167,180,197,165,168,172,213,178,171],"times":[727,539,623,653,935],"next_num":5,"trial_type":"ticket-choose","trial_index":48,"time_elapsed":591135,"internal_node_id":"0.0-48.0"},{"result":150,"points":3,"place":0,"phase":0,"sequence":29,"prices":[189,150,175,160,188,207,158,194,178,199],"times":[1800,1038],"next_num":2,"trial_type":"ticket-choose","trial_index":49,"time_elapsed":596396,"internal_node_id":"0.0-49.0"},{"result":154,"points":3,"place":0,"phase":0,"sequence":30,"prices":[188,200,165,172,198,174,177,154,177,180],"times":[959,675,966,669,753,704,684,920],"next_num":8,"trial_type":"ticket-choose","trial_index":50,"time_elapsed":606496,"internal_node_id":"0.0-50.0"},{"result":166,"points":1,"place":2,"phase":0,"sequence":31,"prices":[174,186,163,212,181,187,176,166,153,209],"times":[798,691,1962,648,728,761,784,1688],"next_num":8,"trial_type":"ticket-choose","trial_index":51,"time_elapsed":618168,"internal_node_id":"0.0-51.0"},{"result":161,"points":3,"place":0,"phase":0,"sequence":32,"prices":[200,165,165,173,182,207,161,202,204,180],"times":[770,1280,1315,685,667,639,1046],"next_num":7,"trial_type":"ticket-choose","trial_index":52,"time_elapsed":628202,"internal_node_id":"0.0-52.0"},{"result":165,"points":2,"place":1,"phase":0,"sequence":33,"prices":[174,186,177,217,181,187,165,166,153,209],"times":[3000,571,630,640,711,623,1551],"next_num":7,"trial_type":"ticket-choose","trial_index":53,"time_elapsed":639056,"internal_node_id":"0.0-53.0"},{"result":163,"points":2,"place":1,"phase":0,"sequence":34,"prices":[175,186,176,210,179,187,163,166,153,208],"times":[814,551,611,618,662,702,1446],"next_num":7,"trial_type":"ticket-choose","trial_index":54,"time_elapsed":647676,"internal_node_id":"0.0-54.0"},{"result":165,"points":3,"place":0,"phase":0,"sequence":35,"prices":[185,170,182,201,173,199,171,188,165,168],"times":[814,559,648,600,718,1947,1618,961,816],"next_num":9,"trial_type":"ticket-choose","trial_index":55,"time_elapsed":660064,"internal_node_id":"0.0-55.0"},{"result":158,"points":2,"place":1,"phase":0,"sequence":36,"prices":[175,186,158,209,181,188,177,167,208,154],"times":[1746,716,1070],"next_num":3,"trial_type":"ticket-choose","trial_index":56,"time_elapsed":666029,"internal_node_id":"0.0-56.0"},{"result":162,"points":3,"place":0,"phase":0,"sequence":37,"prices":[201,165,162,166,185,214,165,202,204,179],"times":[2866,1438,996],"next_num":3,"trial_type":"ticket-choose","trial_index":57,"time_elapsed":673791,"internal_node_id":"0.0-57.0"},{"result":158,"points":2,"place":1,"phase":0,"sequence":38,"prices":[175,186,177,221,180,187,158,166,209,153],"times":[2137,582,611,796,637,664,941],"next_num":7,"trial_type":"ticket-choose","trial_index":58,"time_elapsed":683476,"internal_node_id":"0.0-58.0"},{"result":156,"points":3,"place":0,"phase":0,"sequence":39,"prices":[175,185,178,215,181,186,167,168,208,156],"times":[869,640,582,595,630,1557,1652,1270,709,807],"next_num":10,"trial_type":"ticket-choose","trial_index":59,"time_elapsed":696848,"internal_node_id":"0.0-59.0"},{"result":184,"points":1,"place":4,"phase":0,"sequence":40,"prices":[193,165,175,181,185,224,180,199,218,184],"times":[900,1236,578,580,632,880,959,782,1250,1055],"next_num":10,"trial_type":"ticket-choose","trial_index":60,"time_elapsed":709474,"internal_node_id":"0.0-60.0"},{"result":158,"points":3,"place":0,"phase":0,"sequence":41,"prices":[210,184,226,193,215,158,199,175,176,208],"times":[2236,717,615,633,693,953],"next_num":6,"trial_type":"ticket-choose","trial_index":61,"time_elapsed":718328,"internal_node_id":"0.0-61.0"},{"result":158,"points":2,"place":1,"phase":0,"sequence":42,"prices":[176,187,177,225,181,187,158,165,208,153],"times":[2367,2028,1210,594,649,675,892],"next_num":7,"trial_type":"ticket-choose","trial_index":62,"time_elapsed":729948,"internal_node_id":"0.0-62.0"},{"result":165,"points":3,"place":0,"phase":0,"sequence":43,"prices":[193,169,171,187,190,224,174,194,165,188],"times":[712,646,642,596,671,641,677,745,888],"next_num":9,"trial_type":"ticket-choose","trial_index":63,"time_elapsed":739805,"internal_node_id":"0.0-63.0"},{"result":157,"points":3,"place":0,"phase":0,"sequence":44,"prices":[201,187,157,184,198,179,188,185,178,170],"times":[745,575,1138],"next_num":3,"trial_type":"ticket-choose","trial_index":64,"time_elapsed":744976,"internal_node_id":"0.0-64.0"},{"result":156,"points":3,"place":0,"phase":0,"sequence":45,"prices":[174,186,167,211,181,188,178,168,208,156],"times":[713,549,1027,640,631,660,664,991,944,780],"next_num":10,"trial_type":"ticket-choose","trial_index":65,"time_elapsed":756671,"internal_node_id":"0.0-65.0"},{"result":148,"points":3,"place":0,"phase":0,"sequence":46,"prices":[183,163,185,180,166,148,160,186,176,184],"times":[731,563,598,592,1395,983],"next_num":6,"trial_type":"ticket-choose","trial_index":66,"time_elapsed":765014,"internal_node_id":"0.0-66.0"},{"result":155,"points":2,"place":1,"phase":0,"sequence":47,"prices":[201,207,155,158,156,165,167,135,178,177],"times":[1846,668,2352],"next_num":3,"trial_type":"ticket-choose","trial_index":67,"time_elapsed":772380,"internal_node_id":"0.0-67.0"},{"result":158,"points":2,"place":1,"phase":0,"sequence":48,"prices":[175,186,177,209,181,188,158,167,208,154],"times":[741,624,628,575,703,658,1118],"next_num":7,"trial_type":"ticket-choose","trial_index":68,"time_elapsed":780638,"internal_node_id":"0.0-68.0"},{"result":154,"points":3,"place":0,"phase":0,"sequence":49,"prices":[175,187,163,209,180,188,176,165,154,208],"times":[714,584,1614,722,644,614,652,959,1100],"next_num":9,"trial_type":"ticket-choose","trial_index":69,"time_elapsed":792002,"internal_node_id":"0.0-69.0"},{"responses":[{"value":2,"offby":1,"category":"$115 - $130","category_index":0},{"value":5,"offby":0,"category":"$131 - $145","category_index":1},{"value":10,"offby":-2,"category":"$146 - $160","category_index":2},{"value":12,"offby":-10,"category":"$161 - $175","category_index":3},{"value":16,"offby":-18,"category":"$176 - $190","category_index":4},{"value":21,"offby":6,"category":"$191 - $205","category_index":5},{"value":34,"offby":23,"category":"$206 - $220","category_index":6}],"phase":1,"number":1,"trial_type":"bar-choose","trial_index":70,"time_elapsed":879056,"internal_node_id":"0.0-70.0"},{"rt":5271,"url":"\/christiane\/tickets\/utils\/testing2.html","trial_type":"point_update","trial_index":71,"time_elapsed":885639,"internal_node_id":"0.0-71.0"},{"phase":1,"order":[29,44,18,1,25,26,27,35,38,5,30,16,28,43,22,11,46,34,24,15,8,36,39,40,20,32,42,19,47,6,31,45,13,12,23,4,9,3,33,17,14,49,37,48,0,7,10,41,21,2],"trial_type":"store_order","trial_index":72,"time_elapsed":886652,"internal_node_id":"0.0-72.0"},{"result":150,"points":3,"place":0,"phase":1,"sequence":0,"prices":[185,179,191,165,161,173,199,150,188,168],"times":[995,479,488,488,512,665,578,882],"next_num":8,"trial_type":"ticket-choose","trial_index":73,"time_elapsed":895132,"internal_node_id":"0.0-73.0"},{"result":159,"points":1,"place":2,"phase":1,"sequence":1,"prices":[181,159,149,175,185,151,163,174,178,207],"times":[752,921],"next_num":2,"trial_type":"ticket-choose","trial_index":74,"time_elapsed":898895,"internal_node_id":"0.0-74.0"},{"result":153,"points":3,"place":0,"phase":1,"sequence":2,"prices":[158,175,186,211,177,180,187,166,209,153],"times":[2193,550,535,496,532,553,631,900,646,910],"next_num":10,"trial_type":"ticket-choose","trial_index":75,"time_elapsed":910634,"internal_node_id":"0.0-75.0"},{"result":156,"points":3,"place":0,"phase":1,"sequence":3,"prices":[167,175,185,224,178,181,186,168,208,156],"times":[779,570,593,567,575,563,694,944,1189,729],"next_num":10,"trial_type":"ticket-choose","trial_index":76,"time_elapsed":921666,"internal_node_id":"0.0-76.0"},{"result":165,"points":2,"place":1,"phase":1,"sequence":4,"prices":[201,204,179,166,185,165,214,156,202,165],"times":[730,494,516,643,618,1556],"next_num":6,"trial_type":"ticket-choose","trial_index":77,"time_elapsed":929198,"internal_node_id":"0.0-77.0"},{"result":161,"points":2,"place":1,"phase":1,"sequence":5,"prices":[200,173,182,169,207,165,152,202,161,204],"times":[754,431,491,730,595,1152,665,812,795],"next_num":9,"trial_type":"ticket-choose","trial_index":78,"time_elapsed":939208,"internal_node_id":"0.0-78.0"},{"result":165,"points":3,"place":0,"phase":1,"sequence":6,"prices":[192,172,171,178,188,165,217,168,195,197],"times":[679,707,682,618,671,1498],"next_num":6,"trial_type":"ticket-choose","trial_index":79,"time_elapsed":947008,"internal_node_id":"0.0-79.0"},{"result":143,"points":3,"place":0,"phase":1,"sequence":7,"prices":[167,153,172,185,195,143,184,211,177,227],"times":[656,481,848,587,671,820],"next_num":6,"trial_type":"ticket-choose","trial_index":80,"time_elapsed":953924,"internal_node_id":"0.0-80.0"},{"result":163,"points":3,"place":0,"phase":1,"sequence":8,"prices":[163,199,196,199,185,195,227,163,177,166],"times":[666,597,614,592,693,650,717,1278],"next_num":8,"trial_type":"ticket-choose","trial_index":81,"time_elapsed":963201,"internal_node_id":"0.0-81.0"},{"result":153,"points":3,"place":0,"phase":1,"sequence":9,"prices":[178,175,186,212,167,179,187,169,209,153],"times":[657,557,613,621,854,679,638,872,918,789],"next_num":10,"trial_type":"ticket-choose","trial_index":82,"time_elapsed":974166,"internal_node_id":"0.0-82.0"},{"result":157,"points":3,"place":0,"phase":1,"sequence":10,"prices":[191,170,182,165,175,182,203,157,195,200],"times":[659,570,608,1442,727,593,596,808],"next_num":8,"trial_type":"ticket-choose","trial_index":83,"time_elapsed":983336,"internal_node_id":"0.0-83.0"},{"result":154,"points":3,"place":0,"phase":1,"sequence":11,"prices":[176,187,179,209,163,180,188,165,154,208],"times":[670,535,484,579,828,654,536,930,819],"next_num":9,"trial_type":"ticket-choose","trial_index":84,"time_elapsed":992977,"internal_node_id":"0.0-84.0"},{"result":202,"points":0,"place":8,"phase":1,"sequence":12,"prices":[196,171,170,184,187,165,211,169,201,202],"times":[1500,465,541,655,573,783,690,615,1011,2730],"next_num":10,"trial_type":"ticket-choose","trial_index":85,"time_elapsed":1006625,"internal_node_id":"0.0-85.0"},{"result":157,"points":3,"place":0,"phase":1,"sequence":13,"prices":[201,187,157,184,198,179,188,185,178,170],"times":[713,504,1025],"next_num":3,"trial_type":"ticket-choose","trial_index":86,"time_elapsed":1011179,"internal_node_id":"0.0-86.0"},{"result":158,"points":2,"place":1,"phase":1,"sequence":14,"prices":[177,175,186,209,158,181,188,167,208,154],"times":[599,282,653,580,766],"next_num":5,"trial_type":"ticket-choose","trial_index":87,"time_elapsed":1016634,"internal_node_id":"0.0-87.0"},{"result":153,"points":3,"place":0,"phase":1,"sequence":15,"prices":[177,174,186,217,165,181,187,166,153,209],"times":[518,327,511,435,672,531,556,824,741],"next_num":9,"trial_type":"ticket-choose","trial_index":88,"time_elapsed":1025159,"internal_node_id":"0.0-88.0"},{"result":158,"points":3,"place":0,"phase":1,"sequence":16,"prices":[214,184,226,192,215,158,199,175,176,208],"times":[534,444,470,524,528,873],"next_num":6,"trial_type":"ticket-choose","trial_index":89,"time_elapsed":1031357,"internal_node_id":"0.0-89.0"},{"result":160,"points":1,"place":2,"phase":1,"sequence":17,"prices":[180,156,149,160,168,186,172,198,176,195],"times":[649,416,504,1465],"next_num":4,"trial_type":"ticket-choose","trial_index":90,"time_elapsed":1036886,"internal_node_id":"0.0-90.0"},{"result":184,"points":1,"place":4,"phase":1,"sequence":18,"prices":[193,181,175,181,185,165,224,199,218,184],"times":[749,696,573,618,621,1114,674,663,651,778],"next_num":10,"trial_type":"ticket-choose","trial_index":91,"time_elapsed":1047697,"internal_node_id":"0.0-91.0"},{"result":163,"points":2,"place":1,"phase":1,"sequence":19,"prices":[176,175,186,210,163,179,187,166,153,208],"times":[671,517,597,616,923],"next_num":5,"trial_type":"ticket-choose","trial_index":92,"time_elapsed":1053644,"internal_node_id":"0.0-92.0"},{"result":153,"points":3,"place":0,"phase":1,"sequence":20,"prices":[165,174,186,212,177,181,187,166,153,209],"times":[560,547,568,595,589,643,556,1467,831],"next_num":9,"trial_type":"ticket-choose","trial_index":93,"time_elapsed":1063388,"internal_node_id":"0.0-93.0"},{"result":154,"points":3,"place":0,"phase":1,"sequence":21,"prices":[187,201,165,172,196,174,178,154,172,180],"times":[550,501,467,1322,626,575,570,1609],"next_num":8,"trial_type":"ticket-choose","trial_index":94,"time_elapsed":1072956,"internal_node_id":"0.0-94.0"},{"result":167,"points":2,"place":1,"phase":1,"sequence":22,"prices":[189,167,180,197,165,168,172,213,178,171],"times":[671,1219],"next_num":2,"trial_type":"ticket-choose","trial_index":95,"time_elapsed":1076845,"internal_node_id":"0.0-95.0"},{"result":157,"points":2,"place":1,"phase":1,"sequence":23,"prices":[190,150,175,161,188,207,157,194,178,199],"times":[1460,466,584,688,580,581,811],"next_num":7,"trial_type":"ticket-choose","trial_index":96,"time_elapsed":1085001,"internal_node_id":"0.0-96.0"},{"result":153,"points":3,"place":0,"phase":1,"sequence":24,"prices":[158,176,187,210,177,181,187,165,208,153],"times":[687,506,568,560,615,591,686,1127,675,718],"next_num":10,"trial_type":"ticket-choose","trial_index":97,"time_elapsed":1095372,"internal_node_id":"0.0-97.0"},{"result":161,"points":3,"place":0,"phase":1,"sequence":25,"prices":[193,174,224,165,187,190,224,161,194,195],"times":[665,565,547,1778,566,579,574,839],"next_num":8,"trial_type":"ticket-choose","trial_index":98,"time_elapsed":1104665,"internal_node_id":"0.0-98.0"},{"result":186,"points":1,"place":4,"phase":1,"sequence":26,"prices":[220,173,201,197,169,205,198,183,178,186],"times":[491,425,605,697,1012,664,644,727,754,643],"next_num":10,"trial_type":"ticket-choose","trial_index":99,"time_elapsed":1115027,"internal_node_id":"0.0-99.0"},{"result":167,"points":1,"place":2,"phase":1,"sequence":27,"prices":[158,175,186,209,177,181,188,167,208,154],"times":[433,674,536,550,545,593,1039,1542],"next_num":8,"trial_type":"ticket-choose","trial_index":100,"time_elapsed":1124309,"internal_node_id":"0.0-100.0"},{"result":152,"points":3,"place":0,"phase":1,"sequence":28,"prices":[200,180,203,152,175,170,160,154,176,191],"times":[731,492,568,899],"next_num":4,"trial_type":"ticket-choose","trial_index":101,"time_elapsed":1129369,"internal_node_id":"0.0-101.0"},{"result":153,"points":3,"place":0,"phase":1,"sequence":29,"prices":[165,175,186,214,177,179,187,166,153,208],"times":[630,507,517,592,614,562,626,1470,794],"next_num":9,"trial_type":"ticket-choose","trial_index":102,"time_elapsed":1139028,"internal_node_id":"0.0-102.0"},{"result":165,"points":1,"place":2,"phase":1,"sequence":30,"prices":[171,169,186,165,163,167,220,148,187,165],"times":[559,440,579,861],"next_num":4,"trial_type":"ticket-choose","trial_index":103,"time_elapsed":1143825,"internal_node_id":"0.0-103.0"},{"result":164,"points":3,"place":0,"phase":1,"sequence":31,"prices":[199,191,188,174,167,193,189,164,176,170],"times":[538,529,535,650,660,666,626,1194],"next_num":8,"trial_type":"ticket-choose","trial_index":104,"time_elapsed":1152386,"internal_node_id":"0.0-104.0"},{"result":154,"points":3,"place":0,"phase":1,"sequence":32,"prices":[163,175,187,209,176,180,188,165,154,208],"times":[510,598,555,532,750,621,658,1286,820],"next_num":9,"trial_type":"ticket-choose","trial_index":105,"time_elapsed":1162082,"internal_node_id":"0.0-105.0"},{"result":153,"points":3,"place":0,"phase":1,"sequence":33,"prices":[163,175,186,214,176,179,187,166,153,208],"times":[497,534,497,576,560,564,620,941,867],"next_num":9,"trial_type":"ticket-choose","trial_index":106,"time_elapsed":1171150,"internal_node_id":"0.0-106.0"},{"result":165,"points":1,"place":2,"phase":1,"sequence":34,"prices":[177,176,187,225,158,181,187,165,208,153],"times":[580,547,532,626,604,608,621,1230],"next_num":8,"trial_type":"ticket-choose","trial_index":107,"time_elapsed":1179770,"internal_node_id":"0.0-107.0"},{"result":167,"points":2,"place":1,"phase":1,"sequence":35,"prices":[178,175,185,215,167,181,186,168,208,156],"times":[613,596,563,587,1772],"next_num":5,"trial_type":"ticket-choose","trial_index":108,"time_elapsed":1186473,"internal_node_id":"0.0-108.0"},{"result":166,"points":1,"place":2,"phase":1,"sequence":36,"prices":[177,175,186,210,165,179,187,166,153,208],"times":[605,481,476,591,769,616,601,959],"next_num":8,"trial_type":"ticket-choose","trial_index":109,"time_elapsed":1194782,"internal_node_id":"0.0-109.0"},{"result":168,"points":1,"place":2,"phase":1,"sequence":37,"prices":[178,174,186,217,167,181,188,168,208,156],"times":[685,580,1124,629,1492,580,593,1001],"next_num":8,"trial_type":"ticket-choose","trial_index":110,"time_elapsed":1204657,"internal_node_id":"0.0-110.0"},{"result":159,"points":3,"place":0,"phase":1,"sequence":38,"prices":[183,179,188,165,168,173,205,159,187,191],"times":[689,508,502,1290,548,647,659,1011],"next_num":8,"trial_type":"ticket-choose","trial_index":111,"time_elapsed":1213678,"internal_node_id":"0.0-111.0"},{"result":163,"points":2,"place":1,"phase":1,"sequence":39,"prices":[176,186,178,217,163,181,187,166,153,209],"times":[551,485,607,607,909],"next_num":5,"trial_type":"ticket-choose","trial_index":112,"time_elapsed":1219366,"internal_node_id":"0.0-112.0"},{"result":153,"points":3,"place":0,"phase":1,"sequence":40,"prices":[163,174,186,212,176,181,187,166,153,209],"times":[670,548,470,583,772,625,650,878,810],"next_num":9,"trial_type":"ticket-choose","trial_index":113,"time_elapsed":1228759,"internal_node_id":"0.0-113.0"},{"result":148,"points":3,"place":0,"phase":1,"sequence":41,"prices":[173,163,185,181,166,148,160,185,176,184],"times":[563,481,575,548,720,963],"next_num":6,"trial_type":"ticket-choose","trial_index":114,"time_elapsed":1235441,"internal_node_id":"0.0-114.0"},{"result":165,"points":1,"place":2,"phase":1,"sequence":42,"prices":[199,193,169,165,202,182,151,164,176,171],"times":[614,457,563,1188],"next_num":4,"trial_type":"ticket-choose","trial_index":115,"time_elapsed":1240785,"internal_node_id":"0.0-115.0"},{"result":179,"points":1,"place":4,"phase":1,"sequence":43,"prices":[181,214,169,147,182,193,178,184,176,179],"times":[667,560,622,572,962,663,614,1037,664,696],"next_num":10,"trial_type":"ticket-choose","trial_index":116,"time_elapsed":1251513,"internal_node_id":"0.0-116.0"},{"result":156,"points":3,"place":0,"phase":1,"sequence":44,"prices":[167,174,186,211,178,181,188,168,208,156],"times":[1069,748,650,616,646,711,742,1032,930,778],"next_num":10,"trial_type":"ticket-choose","trial_index":117,"time_elapsed":1263123,"internal_node_id":"0.0-117.0"},{"result":154,"points":3,"place":0,"phase":1,"sequence":45,"prices":[165,175,187,209,177,180,188,167,154,208],"times":[955,668,617,627,615,678,647,997,910],"next_num":9,"trial_type":"ticket-choose","trial_index":118,"time_elapsed":1273335,"internal_node_id":"0.0-118.0"},{"result":165,"points":2,"place":1,"phase":1,"sequence":46,"prices":[177,175,187,209,165,180,188,165,154,208],"times":[636,639,891,603,1642],"next_num":5,"trial_type":"ticket-choose","trial_index":119,"time_elapsed":1280401,"internal_node_id":"0.0-119.0"},{"result":155,"points":2,"place":1,"phase":1,"sequence":47,"prices":[200,207,155,158,156,168,167,135,178,177],"times":[703,501,876],"next_num":3,"trial_type":"ticket-choose","trial_index":120,"time_elapsed":1284713,"internal_node_id":"0.0-120.0"},{"result":158,"points":2,"place":1,"phase":1,"sequence":48,"prices":[177,175,186,221,158,180,187,166,209,153],"times":[878,608,801,636,860],"next_num":5,"trial_type":"ticket-choose","trial_index":121,"time_elapsed":1291081,"internal_node_id":"0.0-121.0"},{"result":153,"points":3,"place":0,"phase":1,"sequence":49,"prices":[167,175,186,225,178,179,187,169,209,153],"times":[538,520,556,647,637,624,665,931,665,738],"next_num":10,"trial_type":"ticket-choose","trial_index":122,"time_elapsed":1301355,"internal_node_id":"0.0-122.0"},{"responses":[{"value":13,"offby":12,"category":"$115 - $130","category_index":0},{"value":6,"offby":1,"category":"$131 - $145","category_index":1},{"value":10,"offby":-2,"category":"$146 - $160","category_index":2},{"value":17,"offby":-5,"category":"$161 - $175","category_index":3},{"value":12,"offby":-22,"category":"$176 - $190","category_index":4},{"value":25,"offby":10,"category":"$191 - $205","category_index":5},{"value":17,"offby":6,"category":"$206 - $220","category_index":6}],"phase":1,"number":1,"trial_type":"bar-choose","trial_index":123,"time_elapsed":1322728,"internal_node_id":"0.0-123.0"},{"special_comment":"no","trial_type":"special_sequence","trial_index":124,"time_elapsed":1327935,"internal_node_id":"0.0-124.0"},{"during":"Nothing","bonus":308,"trial_type":"final","trial_index":125,"time_elapsed":1359325,"internal_node_id":"0.0-125.0"}],"bonus":308}