{"start_time":"2017-05-24 12:26:03","end_time":"2017-05-24 13:14:08","points_phase0":116,"points_phase1":117,"phase_order":1,"age":24,"gender":"f","tries":1,"during":"Nothing","worker_id":"A2SENAPNSXG9L","assignment_id":"3YGXWBAF71AU1YNPXHTD5T86HZU4CF","data":[{"rt":2623,"url":"\/christiane\/tickets\/utils\/consent.html","trial_type":"html","trial_index":0,"time_elapsed":2694,"internal_node_id":"0.0-0.0"},{"age":24,"gender":"f","trial_type":"age","trial_index":1,"time_elapsed":7752,"internal_node_id":"0.0-1.0"},{"worker_id":"A2SENAPNSXG9L","trial_type":"workerid","trial_index":2,"time_elapsed":11605,"internal_node_id":"0.0-2.0"},{"tries":1,"trial_type":"instructions_check","trial_index":3,"time_elapsed":15261,"internal_node_id":"0.0-3.0"},{"rt":863129,"url":"\/christiane\/tickets\/utils\/start.html","trial_type":"html","trial_index":4,"time_elapsed":879544,"internal_node_id":"0.0-4.0"},{"trial_type":"number-animation","trial_index":5,"time_elapsed":888615,"internal_node_id":"0.0-5.0"},{"phase":0,"sequence":0,"avg":181,"response":163,"trial_type":"training_avg","trial_index":6,"time_elapsed":893257,"internal_node_id":"0.0-6.0"},{"trial_type":"number-animation","trial_index":7,"time_elapsed":902031,"internal_node_id":"0.0-7.0"},{"phase":0,"sequence":1,"avg":188,"response":163,"trial_type":"training_avg","trial_index":8,"time_elapsed":906232,"internal_node_id":"0.0-8.0"},{"trial_type":"number-animation","trial_index":9,"time_elapsed":918439,"internal_node_id":"0.0-9.0"},{"phase":0,"sequence":2,"avg":188,"response":161,"trial_type":"training_avg","trial_index":10,"time_elapsed":922064,"internal_node_id":"0.0-10.0"},{"trial_type":"number-animation","trial_index":11,"time_elapsed":931047,"internal_node_id":"0.0-11.0"},{"phase":0,"sequence":3,"avg":177,"response":183,"trial_type":"training_avg","trial_index":12,"time_elapsed":938088,"internal_node_id":"0.0-12.0"},{"trial_type":"number-animation","trial_index":13,"time_elapsed":951728,"internal_node_id":"0.0-13.0"},{"phase":0,"sequence":4,"avg":182,"response":171,"trial_type":"training_avg","trial_index":14,"time_elapsed":958930,"internal_node_id":"0.0-14.0"},{"responses":[{"value":4,"offby":3,"category":"$115 - $130","category_index":0},{"value":7,"offby":2,"category":"$131 - $145","category_index":1},{"value":14,"offby":2,"category":"$146 - $160","category_index":2},{"value":24,"offby":2,"category":"$161 - $175","category_index":3},{"value":31,"offby":-3,"category":"$176 - $190","category_index":4},{"value":13,"offby":-2,"category":"$191 - $205","category_index":5},{"value":7,"offby":-4,"category":"$206 - $220","category_index":6}],"phase":0,"number":0,"trial_type":"bar-choose","trial_index":15,"time_elapsed":989505,"internal_node_id":"0.0-15.0"},{"rt":1478,"url":"\/christiane\/tickets\/utils\/testing.html","trial_type":"html","trial_index":16,"time_elapsed":992103,"internal_node_id":"0.0-16.0"},{"phase":0,"order":[37,49,4,42,47,38,10,31,36,29,3,40,32,21,30,43,39,14,2,35,19,9,24,18,48,25,1,17,23,45,16,0,22,33,5,8,20,7,41,6,13,27,15,11,12,28,26,46,44,34],"trial_type":"store_order","trial_index":17,"time_elapsed":993104,"internal_node_id":"0.0-17.0"},{"result":146,"points":3,"place":0,"phase":0,"sequence":-1,"prices":[184,180,224,165,181,199,185,193,218,146],"times":[3759,934,607,351,295,272,294,294,493,518],"next_num":11,"trial_type":"ticket-choose","trial_index":18,"time_elapsed":1006031,"internal_node_id":"0.0-18.0"},{"rt":916,"url":"\/christiane\/tickets\/utils\/testing_after.html","trial_type":"html","trial_index":19,"time_elapsed":1008040,"internal_node_id":"0.0-19.0"},{"result":158,"points":2,"place":1,"phase":0,"sequence":0,"prices":[177,175,186,209,158,181,188,167,208,154],"times":[1041,502,399,573,1128],"next_num":5,"trial_type":"ticket-choose","trial_index":20,"time_elapsed":1014182,"internal_node_id":"0.0-20.0"},{"result":156,"points":2,"place":1,"phase":0,"sequence":1,"prices":[180,156,149,160,168,186,172,198,176,195],"times":[24999,1177],"next_num":2,"trial_type":"ticket-choose","trial_index":21,"time_elapsed":1042583,"internal_node_id":"0.0-21.0"},{"result":153,"points":3,"place":0,"phase":0,"sequence":2,"prices":[176,175,186,210,163,179,187,166,153,208],"times":[1088,561,3925,574,1808,606,568,638,831],"next_num":9,"trial_type":"ticket-choose","trial_index":22,"time_elapsed":1057006,"internal_node_id":"0.0-22.0"},{"result":135,"points":3,"place":0,"phase":0,"sequence":3,"prices":[200,207,155,158,156,168,167,135,178,177],"times":[4480,1008,927,1765,679,575,544,941],"next_num":8,"trial_type":"ticket-choose","trial_index":23,"time_elapsed":1071256,"internal_node_id":"0.0-23.0"},{"result":171,"points":1,"place":3,"phase":0,"sequence":4,"prices":[189,167,180,197,165,168,172,213,178,171],"times":[61703,1671,695,623,1976,487,622,695,567,2175],"next_num":10,"trial_type":"ticket-choose","trial_index":24,"time_elapsed":1146566,"internal_node_id":"0.0-24.0"},{"result":184,"points":0,"place":7,"phase":0,"sequence":5,"prices":[173,163,185,181,166,148,160,185,176,184],"times":[1192,1142,510,551,559,479,510,1447,542,681],"next_num":10,"trial_type":"ticket-choose","trial_index":25,"time_elapsed":1157887,"internal_node_id":"0.0-25.0"},{"result":164,"points":3,"place":0,"phase":0,"sequence":6,"prices":[199,191,188,174,167,193,189,164,176,170],"times":[1385,1191,679,599,1287,536,662,1079],"next_num":8,"trial_type":"ticket-choose","trial_index":26,"time_elapsed":1168806,"internal_node_id":"0.0-26.0"},{"result":156,"points":3,"place":0,"phase":0,"sequence":7,"prices":[167,175,185,224,178,181,186,168,208,156],"times":[3313,727,576,678,687,664,702,896,622,561],"next_num":10,"trial_type":"ticket-choose","trial_index":27,"time_elapsed":1182358,"internal_node_id":"0.0-27.0"},{"result":153,"points":3,"place":0,"phase":0,"sequence":8,"prices":[177,175,186,210,165,179,187,166,153,208],"times":[167321,58559,517,575,1119,511,527,862,1040],"next_num":9,"trial_type":"ticket-choose","trial_index":28,"time_elapsed":1416846,"internal_node_id":"0.0-28.0"},{"result":147,"points":3,"place":0,"phase":0,"sequence":9,"prices":[181,214,169,147,182,193,178,184,176,179],"times":[54607,663,2329,963],"next_num":4,"trial_type":"ticket-choose","trial_index":29,"time_elapsed":1479156,"internal_node_id":"0.0-29.0"},{"result":209,"points":0,"place":8,"phase":0,"sequence":10,"prices":[178,175,186,212,167,179,187,169,209,153],"times":[17610,726,13216,581,902,743,589,999,1006],"next_num":9,"trial_type":"ticket-choose","trial_index":30,"time_elapsed":1519452,"internal_node_id":"0.0-30.0"},{"result":159,"points":1,"place":2,"phase":0,"sequence":11,"prices":[181,159,149,175,185,151,163,174,178,207],"times":[1578,1122],"next_num":2,"trial_type":"ticket-choose","trial_index":31,"time_elapsed":1524188,"internal_node_id":"0.0-31.0"},{"result":158,"points":2,"place":1,"phase":0,"sequence":12,"prices":[177,176,187,225,158,181,187,165,208,153],"times":[29882,872,2661,583,1487],"next_num":5,"trial_type":"ticket-choose","trial_index":32,"time_elapsed":1562468,"internal_node_id":"0.0-32.0"},{"result":165,"points":2,"place":1,"phase":0,"sequence":13,"prices":[177,175,187,209,165,180,188,165,154,208],"times":[2368,6527,535,543,1782,559,615,1175],"next_num":8,"trial_type":"ticket-choose","trial_index":33,"time_elapsed":1579934,"internal_node_id":"0.0-33.0"},{"result":153,"points":3,"place":0,"phase":0,"sequence":14,"prices":[165,175,186,214,177,179,187,166,153,208],"times":[28735,439,1358,599,1294,566,615,857,1038],"next_num":9,"trial_type":"ticket-choose","trial_index":34,"time_elapsed":1619124,"internal_node_id":"0.0-34.0"},{"result":143,"points":3,"place":0,"phase":0,"sequence":15,"prices":[167,153,172,185,195,143,184,211,177,227],"times":[2649,1343,561,598,702,894],"next_num":6,"trial_type":"ticket-choose","trial_index":35,"time_elapsed":1628643,"internal_node_id":"0.0-35.0"},{"result":202,"points":0,"place":8,"phase":0,"sequence":16,"prices":[196,171,170,184,187,165,211,169,201,202],"times":[9696,14778,940,623,545,2197,599,710,655,1334],"next_num":10,"trial_type":"ticket-choose","trial_index":36,"time_elapsed":1670899,"internal_node_id":"0.0-36.0"},{"result":151,"points":3,"place":0,"phase":0,"sequence":17,"prices":[199,193,169,165,202,182,151,164,176,171],"times":[1176,559,798,725,536,662,1141],"next_num":7,"trial_type":"ticket-choose","trial_index":37,"time_elapsed":1679532,"internal_node_id":"0.0-37.0"},{"result":153,"points":3,"place":0,"phase":0,"sequence":18,"prices":[165,174,186,212,177,181,187,166,153,209],"times":[1409,581,783,582,535,614,575,687,919],"next_num":9,"trial_type":"ticket-choose","trial_index":38,"time_elapsed":1689636,"internal_node_id":"0.0-38.0"},{"result":154,"points":3,"place":0,"phase":0,"sequence":19,"prices":[187,201,165,172,196,174,178,154,172,180],"times":[29264,566,896,566,593,661,567,1431],"next_num":8,"trial_type":"ticket-choose","trial_index":39,"time_elapsed":1727499,"internal_node_id":"0.0-39.0"},{"result":191,"points":0,"place":8,"phase":0,"sequence":20,"prices":[183,179,188,165,168,173,205,159,187,191],"times":[3622,567,424,624,485,575,607,519,454,871],"next_num":10,"trial_type":"ticket-choose","trial_index":40,"time_elapsed":1739844,"internal_node_id":"0.0-40.0"},{"result":152,"points":3,"place":0,"phase":0,"sequence":21,"prices":[200,173,182,169,207,165,152,202,161,204],"times":[1304,663,759,527,470,878,951],"next_num":7,"trial_type":"ticket-choose","trial_index":41,"time_elapsed":1748363,"internal_node_id":"0.0-41.0"},{"result":156,"points":3,"place":0,"phase":0,"sequence":22,"prices":[167,174,186,211,178,181,188,168,208,156],"times":[3226,831,1583,575,543,551,574,848,669,535],"next_num":10,"trial_type":"ticket-choose","trial_index":42,"time_elapsed":1762195,"internal_node_id":"0.0-42.0"},{"result":156,"points":3,"place":0,"phase":0,"sequence":23,"prices":[178,175,185,215,167,181,186,168,208,156],"times":[1162,823,567,549,934,543,639,583,591,591],"next_num":10,"trial_type":"ticket-choose","trial_index":43,"time_elapsed":1773219,"internal_node_id":"0.0-43.0"},{"result":208,"points":0,"place":8,"phase":0,"sequence":24,"prices":[178,174,186,217,167,181,188,168,208,156],"times":[3712,766,1031,1335,903,598,504,2941,751],"next_num":9,"trial_type":"ticket-choose","trial_index":44,"time_elapsed":1789428,"internal_node_id":"0.0-44.0"},{"result":154,"points":3,"place":0,"phase":0,"sequence":25,"prices":[158,175,186,209,177,181,188,167,208,154],"times":[1151,496,510,647,511,535,557,583,591,655],"next_num":10,"trial_type":"ticket-choose","trial_index":45,"time_elapsed":1801251,"internal_node_id":"0.0-45.0"},{"result":163,"points":2,"place":1,"phase":0,"sequence":26,"prices":[176,186,178,217,163,181,187,166,153,209],"times":[1288,600,775,567,1367],"next_num":5,"trial_type":"ticket-choose","trial_index":46,"time_elapsed":1808482,"internal_node_id":"0.0-46.0"},{"result":170,"points":2,"place":1,"phase":0,"sequence":27,"prices":[201,187,157,184,198,179,188,185,178,170],"times":[816,671,2662,2030,3717,640,512,629,567,791],"next_num":10,"trial_type":"ticket-choose","trial_index":47,"time_elapsed":1825362,"internal_node_id":"0.0-47.0"},{"result":153,"points":3,"place":0,"phase":0,"sequence":28,"prices":[158,176,187,210,177,181,187,165,208,153],"times":[1001,496,479,615,999,489,549,1557,585,501],"next_num":10,"trial_type":"ticket-choose","trial_index":48,"time_elapsed":1840932,"internal_node_id":"0.0-48.0"},{"result":158,"points":3,"place":0,"phase":0,"sequence":29,"prices":[214,184,226,192,215,158,199,175,176,208],"times":[2007,815,855,631,614,1687],"next_num":6,"trial_type":"ticket-choose","trial_index":49,"time_elapsed":1850402,"internal_node_id":"0.0-49.0"},{"result":165,"points":2,"place":1,"phase":0,"sequence":30,"prices":[177,174,186,217,165,181,187,166,153,209],"times":[1527,1463,582,639,1462],"next_num":5,"trial_type":"ticket-choose","trial_index":50,"time_elapsed":1858619,"internal_node_id":"0.0-50.0"},{"result":153,"points":3,"place":0,"phase":0,"sequence":31,"prices":[163,175,186,214,176,179,187,166,153,208],"times":[1351,688,597,597,777,645,623,830,919],"next_num":9,"trial_type":"ticket-choose","trial_index":51,"time_elapsed":1869011,"internal_node_id":"0.0-51.0"},{"result":161,"points":2,"place":1,"phase":0,"sequence":32,"prices":[185,179,191,165,161,173,199,150,188,168],"times":[5160,535,887,807,1046],"next_num":5,"trial_type":"ticket-choose","trial_index":52,"time_elapsed":1880114,"internal_node_id":"0.0-52.0"},{"result":153,"points":3,"place":0,"phase":0,"sequence":33,"prices":[163,174,186,212,176,181,187,166,153,209],"times":[18168,759,614,671,689,1421,1167,807,954],"next_num":9,"trial_type":"ticket-choose","trial_index":53,"time_elapsed":1908754,"internal_node_id":"0.0-53.0"},{"result":150,"points":3,"place":0,"phase":0,"sequence":34,"prices":[190,150,175,161,188,207,157,194,178,199],"times":[4136,1152],"next_num":2,"trial_type":"ticket-choose","trial_index":54,"time_elapsed":1916154,"internal_node_id":"0.0-54.0"},{"result":154,"points":3,"place":0,"phase":0,"sequence":35,"prices":[176,187,179,209,163,180,188,165,154,208],"times":[929,590,607,768,1182,599,527,791,959],"next_num":9,"trial_type":"ticket-choose","trial_index":55,"time_elapsed":1926571,"internal_node_id":"0.0-55.0"},{"result":165,"points":3,"place":0,"phase":0,"sequence":36,"prices":[192,172,171,178,188,165,217,168,195,197],"times":[1071,904,607,573,624,879],"next_num":6,"trial_type":"ticket-choose","trial_index":56,"time_elapsed":1934107,"internal_node_id":"0.0-56.0"},{"result":154,"points":3,"place":0,"phase":0,"sequence":37,"prices":[163,175,187,209,176,180,188,165,154,208],"times":[1078,560,526,551,535,567,671,942,903],"next_num":9,"trial_type":"ticket-choose","trial_index":57,"time_elapsed":1946074,"internal_node_id":"0.0-57.0"},{"result":165,"points":2,"place":1,"phase":0,"sequence":38,"prices":[201,204,179,166,185,165,214,156,202,165],"times":[1601,623,711,919,663,1719],"next_num":6,"trial_type":"ticket-choose","trial_index":58,"time_elapsed":1955010,"internal_node_id":"0.0-58.0"},{"result":184,"points":1,"place":4,"phase":0,"sequence":39,"prices":[193,181,175,181,185,165,224,199,218,184],"times":[1550,934,927,559,657,1196,791,608,664,703],"next_num":10,"trial_type":"ticket-choose","trial_index":59,"time_elapsed":1967290,"internal_node_id":"0.0-59.0"},{"result":163,"points":3,"place":0,"phase":0,"sequence":40,"prices":[163,199,196,199,185,195,227,163,177,166],"times":[1223,527,599,559,648,959,656,1070],"next_num":8,"trial_type":"ticket-choose","trial_index":60,"time_elapsed":1976739,"internal_node_id":"0.0-60.0"},{"result":157,"points":3,"place":0,"phase":0,"sequence":41,"prices":[191,170,182,165,175,182,203,157,195,200],"times":[17816,1244,1039,1151,624,631,631,1861],"next_num":8,"trial_type":"ticket-choose","trial_index":61,"time_elapsed":2005084,"internal_node_id":"0.0-61.0"},{"result":154,"points":3,"place":0,"phase":0,"sequence":42,"prices":[165,175,187,209,177,180,188,167,154,208],"times":[5358,549,640,742,544,599,687,735,968],"next_num":9,"trial_type":"ticket-choose","trial_index":62,"time_elapsed":2019418,"internal_node_id":"0.0-62.0"},{"result":153,"points":3,"place":0,"phase":0,"sequence":43,"prices":[158,175,186,211,177,180,187,166,209,153],"times":[1177,342,4543,798,1775,559,599,549,624,544],"next_num":10,"trial_type":"ticket-choose","trial_index":63,"time_elapsed":2044050,"internal_node_id":"0.0-63.0"},{"result":152,"points":3,"place":0,"phase":0,"sequence":44,"prices":[200,180,203,152,175,170,160,154,176,191],"times":[4376,10894,1952,1078],"next_num":4,"trial_type":"ticket-choose","trial_index":64,"time_elapsed":2064850,"internal_node_id":"0.0-64.0"},{"result":165,"points":1,"place":2,"phase":0,"sequence":45,"prices":[171,169,186,165,163,167,220,148,187,165],"times":[18319,776,622,1064],"next_num":4,"trial_type":"ticket-choose","trial_index":65,"time_elapsed":2088219,"internal_node_id":"0.0-65.0"},{"result":153,"points":3,"place":0,"phase":0,"sequence":46,"prices":[177,175,186,221,158,180,187,166,209,153],"times":[10768,1070,560,629,3039,575,560,1560,717,686],"next_num":10,"trial_type":"ticket-choose","trial_index":66,"time_elapsed":2113251,"internal_node_id":"0.0-66.0"},{"result":186,"points":1,"place":4,"phase":0,"sequence":47,"prices":[220,173,201,197,169,205,198,183,178,186],"times":[3477,735,592,607,1120,501,672,662,1559,695],"next_num":10,"trial_type":"ticket-choose","trial_index":67,"time_elapsed":2127561,"internal_node_id":"0.0-67.0"},{"result":153,"points":3,"place":0,"phase":0,"sequence":48,"prices":[167,175,186,225,178,179,187,169,209,153],"times":[5380,668,774,527,575,695,703,863,927,527],"next_num":10,"trial_type":"ticket-choose","trial_index":68,"time_elapsed":2143361,"internal_node_id":"0.0-68.0"},{"result":161,"points":3,"place":0,"phase":0,"sequence":49,"prices":[193,174,224,165,187,190,224,161,194,195],"times":[9648,719,487,1496,558,574,608,926],"next_num":8,"trial_type":"ticket-choose","trial_index":69,"time_elapsed":2161681,"internal_node_id":"0.0-69.0"},{"responses":[{"value":4,"offby":3,"category":"$115 - $130","category_index":0},{"value":6,"offby":1,"category":"$131 - $145","category_index":1},{"value":13,"offby":1,"category":"$146 - $160","category_index":2},{"value":19,"offby":-3,"category":"$161 - $175","category_index":3},{"value":23,"offby":-11,"category":"$176 - $190","category_index":4},{"value":24,"offby":9,"category":"$191 - $205","category_index":5},{"value":11,"offby":0,"category":"$206 - $220","category_index":6}],"phase":1,"number":1,"trial_type":"bar-choose","trial_index":70,"time_elapsed":2191995,"internal_node_id":"0.0-70.0"},{"rt":3782,"url":"\/christiane\/tickets\/utils\/testing2.html","trial_type":"point_update","trial_index":71,"time_elapsed":2197018,"internal_node_id":"0.0-71.0"},{"phase":1,"order":[22,34,15,41,39,49,45,1,9,48,5,44,23,10,6,35,28,37,8,36,33,26,0,4,3,19,17,43,20,46,11,12,29,14,40,16,27,13,25,24,38,30,7,18,47,31,21,42,2,32],"trial_type":"store_order","trial_index":72,"time_elapsed":2198020,"internal_node_id":"0.0-72.0"},{"result":163,"points":2,"place":1,"phase":1,"sequence":0,"prices":[198,193,169,163,202,182,152,164,177,171],"times":[3094,647,1478,1046],"next_num":4,"trial_type":"ticket-choose","trial_index":73,"time_elapsed":2206745,"internal_node_id":"0.0-73.0"},{"result":148,"points":3,"place":0,"phase":1,"sequence":1,"prices":[183,163,185,180,166,148,160,186,176,184],"times":[1321,1079,2838,615,782,1063],"next_num":6,"trial_type":"ticket-choose","trial_index":74,"time_elapsed":2217585,"internal_node_id":"0.0-74.0"},{"result":167,"points":2,"place":1,"phase":1,"sequence":2,"prices":[175,185,178,215,181,186,167,168,208,156],"times":[4144,535,679,750,655,975,943],"next_num":7,"trial_type":"ticket-choose","trial_index":75,"time_elapsed":2229377,"internal_node_id":"0.0-75.0"},{"result":143,"points":3,"place":0,"phase":1,"sequence":3,"prices":[222,173,202,197,143,205,198,183,178,186],"times":[1090,2855,5959,2351,991],"next_num":5,"trial_type":"ticket-choose","trial_index":76,"time_elapsed":2245265,"internal_node_id":"0.0-76.0"},{"result":154,"points":2,"place":1,"phase":1,"sequence":4,"prices":[200,181,203,152,175,171,160,154,176,191],"times":[1288,847,728,1543,566,990,574,1006],"next_num":8,"trial_type":"ticket-choose","trial_index":77,"time_elapsed":2256017,"internal_node_id":"0.0-77.0"},{"result":163,"points":3,"place":0,"phase":1,"sequence":5,"prices":[168,199,196,198,185,195,227,163,177,166],"times":[1390,559,1480,566,1006,3823,647,1391],"next_num":8,"trial_type":"ticket-choose","trial_index":78,"time_elapsed":2270377,"internal_node_id":"0.0-78.0"},{"result":165,"points":2,"place":1,"phase":1,"sequence":6,"prices":[175,187,177,209,180,188,165,165,154,208],"times":[2313,863,863,591,760,598,1783],"next_num":7,"trial_type":"ticket-choose","trial_index":79,"time_elapsed":2281321,"internal_node_id":"0.0-79.0"},{"result":167,"points":1,"place":2,"phase":1,"sequence":7,"prices":[171,203,175,170,167,220,192,186,165,165],"times":[2728,1393,1085,1711,2695],"next_num":5,"trial_type":"ticket-choose","trial_index":80,"time_elapsed":2293561,"internal_node_id":"0.0-80.0"},{"result":154,"points":3,"place":0,"phase":1,"sequence":8,"prices":[188,200,165,172,198,174,177,154,177,180],"times":[906,454,830,559,575,584,536,1038],"next_num":8,"trial_type":"ticket-choose","trial_index":81,"time_elapsed":2302177,"internal_node_id":"0.0-81.0"},{"result":165,"points":3,"place":0,"phase":1,"sequence":9,"prices":[185,170,182,201,173,199,171,188,165,168],"times":[954,535,438,566,632,582,799,558,735],"next_num":9,"trial_type":"ticket-choose","trial_index":82,"time_elapsed":2311633,"internal_node_id":"0.0-82.0"},{"result":156,"points":3,"place":0,"phase":1,"sequence":10,"prices":[174,186,178,217,181,188,167,168,208,156],"times":[27096,568,958,704,679,519,998,797,576,711],"next_num":10,"trial_type":"ticket-choose","trial_index":83,"time_elapsed":2349096,"internal_node_id":"0.0-83.0"},{"result":150,"points":3,"place":0,"phase":1,"sequence":11,"prices":[189,150,175,160,188,207,158,194,178,199],"times":[1217,1160],"next_num":2,"trial_type":"ticket-choose","trial_index":84,"time_elapsed":2353362,"internal_node_id":"0.0-84.0"},{"result":165,"points":3,"place":0,"phase":1,"sequence":12,"prices":[193,169,171,187,190,224,174,194,165,188],"times":[2847,629,502,542,1616,614,543,717,927],"next_num":9,"trial_type":"ticket-choose","trial_index":85,"time_elapsed":2365680,"internal_node_id":"0.0-85.0"},{"result":158,"points":2,"place":1,"phase":1,"sequence":13,"prices":[175,186,177,221,180,187,158,166,209,153],"times":[1496,1134,543,671,967,534,1167],"next_num":7,"trial_type":"ticket-choose","trial_index":86,"time_elapsed":2375097,"internal_node_id":"0.0-86.0"},{"result":165,"points":3,"place":0,"phase":1,"sequence":14,"prices":[191,172,169,175,182,203,170,195,165,176],"times":[1209,950,792,582,591,807,664,733,992],"next_num":9,"trial_type":"ticket-choose","trial_index":87,"time_elapsed":2385793,"internal_node_id":"0.0-87.0"},{"result":170,"points":2,"place":1,"phase":1,"sequence":15,"prices":[201,187,157,184,198,179,188,185,178,170],"times":[5199,2895,870,372,527,775,807,984,647,742],"next_num":10,"trial_type":"ticket-choose","trial_index":88,"time_elapsed":2403216,"internal_node_id":"0.0-88.0"},{"result":171,"points":1,"place":3,"phase":1,"sequence":16,"prices":[189,167,180,197,165,168,172,213,178,171],"times":[1777,920,462,368,357,895,568,790,504,670],"next_num":10,"trial_type":"ticket-choose","trial_index":89,"time_elapsed":2414160,"internal_node_id":"0.0-89.0"},{"result":153,"points":3,"place":0,"phase":1,"sequence":17,"prices":[174,186,163,212,181,187,176,166,153,209],"times":[1297,744,3742,639,543,540,541,687,927],"next_num":9,"trial_type":"ticket-choose","trial_index":90,"time_elapsed":2427232,"internal_node_id":"0.0-90.0"},{"result":153,"points":3,"place":0,"phase":1,"sequence":18,"prices":[175,186,167,225,179,187,178,169,209,153],"times":[2128,536,1999,509,631,696,598,927,568,854],"next_num":10,"trial_type":"ticket-choose","trial_index":91,"time_elapsed":2453576,"internal_node_id":"0.0-91.0"},{"result":154,"points":2,"place":1,"phase":1,"sequence":19,"prices":[168,154,172,185,195,144,184,211,177,227],"times":[9647,1135],"next_num":2,"trial_type":"ticket-choose","trial_index":92,"time_elapsed":2466449,"internal_node_id":"0.0-92.0"},{"result":154,"points":3,"place":0,"phase":1,"sequence":20,"prices":[175,186,158,209,181,188,177,167,208,154],"times":[4526,631,976,534,488,550,527,559,559,678],"next_num":10,"trial_type":"ticket-choose","trial_index":93,"time_elapsed":2482024,"internal_node_id":"0.0-93.0"},{"result":165,"points":2,"place":1,"phase":1,"sequence":21,"prices":[175,186,177,210,179,187,165,166,153,208],"times":[2453,303,1911,495,824,646,1143],"next_num":7,"trial_type":"ticket-choose","trial_index":94,"time_elapsed":2492833,"internal_node_id":"0.0-94.0"},{"result":184,"points":1,"place":4,"phase":1,"sequence":22,"prices":[193,165,175,181,185,224,180,199,218,184],"times":[4368,2447,335,551,567,666,1085,574,760,750],"next_num":10,"trial_type":"ticket-choose","trial_index":95,"time_elapsed":2508792,"internal_node_id":"0.0-95.0"},{"result":153,"points":3,"place":0,"phase":1,"sequence":23,"prices":[175,186,158,211,180,187,177,166,209,153],"times":[2561,614,511,319,406,576,582,646,550,543],"next_num":10,"trial_type":"ticket-choose","trial_index":96,"time_elapsed":2520056,"internal_node_id":"0.0-96.0"},{"result":147,"points":3,"place":0,"phase":1,"sequence":24,"prices":[181,215,169,147,182,193,177,184,176,179],"times":[842,366,912,976],"next_num":4,"trial_type":"ticket-choose","trial_index":97,"time_elapsed":2525616,"internal_node_id":"0.0-97.0"},{"result":179,"points":1,"place":4,"phase":1,"sequence":25,"prices":[201,165,162,166,185,214,165,202,204,179],"times":[904,808,1166,647,519,456,502,608,615,719],"next_num":10,"trial_type":"ticket-choose","trial_index":98,"time_elapsed":2536218,"internal_node_id":"0.0-98.0"},{"result":156,"points":3,"place":0,"phase":1,"sequence":26,"prices":[175,185,167,224,181,186,178,168,208,156],"times":[670,728,1022,560,606,597,551,871,750,656],"next_num":10,"trial_type":"ticket-choose","trial_index":99,"time_elapsed":2547912,"internal_node_id":"0.0-99.0"},{"result":163,"points":2,"place":1,"phase":1,"sequence":27,"prices":[174,186,176,217,181,187,163,166,153,209],"times":[1055,518,968,574,624,814,920],"next_num":7,"trial_type":"ticket-choose","trial_index":100,"time_elapsed":2556417,"internal_node_id":"0.0-100.0"},{"result":158,"points":2,"place":1,"phase":1,"sequence":28,"prices":[176,187,177,225,181,187,158,165,208,153],"times":[2916,789,936,639,639,543,1022],"next_num":7,"trial_type":"ticket-choose","trial_index":101,"time_elapsed":2566920,"internal_node_id":"0.0-101.0"},{"result":164,"points":3,"place":0,"phase":1,"sequence":29,"prices":[212,192,188,184,167,193,189,164,176,170],"times":[980,1501,1367,638,879,599,712,1135],"next_num":8,"trial_type":"ticket-choose","trial_index":102,"time_elapsed":2577969,"internal_node_id":"0.0-102.0"},{"result":163,"points":2,"place":1,"phase":1,"sequence":30,"prices":[175,187,176,209,180,188,163,165,154,208],"times":[9104,480,637,551,535,511,951],"next_num":7,"trial_type":"ticket-choose","trial_index":103,"time_elapsed":2593743,"internal_node_id":"0.0-103.0"},{"result":156,"points":3,"place":0,"phase":1,"sequence":31,"prices":[174,186,167,211,181,188,178,168,208,156],"times":[1297,598,904,519,406,487,536,1036,513,494],"next_num":10,"trial_type":"ticket-choose","trial_index":104,"time_elapsed":2609320,"internal_node_id":"0.0-104.0"},{"result":158,"points":2,"place":1,"phase":1,"sequence":32,"prices":[175,186,177,209,181,188,158,167,208,154],"times":[3241,622,1944,1094,599,535,959],"next_num":7,"trial_type":"ticket-choose","trial_index":105,"time_elapsed":2621199,"internal_node_id":"0.0-105.0"},{"result":165,"points":3,"place":0,"phase":1,"sequence":33,"prices":[183,182,192,168,173,205,167,187,165,170],"times":[5951,553,757,1223,647,733,902,552,872],"next_num":9,"trial_type":"ticket-choose","trial_index":106,"time_elapsed":2641999,"internal_node_id":"0.0-106.0"},{"result":153,"points":3,"place":0,"phase":1,"sequence":34,"prices":[175,186,178,212,179,187,167,169,209,153],"times":[1097,614,542,527,519,607,537,349,575,719],"next_num":10,"trial_type":"ticket-choose","trial_index":107,"time_elapsed":2652488,"internal_node_id":"0.0-107.0"},{"result":209,"points":0,"place":8,"phase":1,"sequence":35,"prices":[174,186,165,212,181,187,177,167,153,209],"times":[1505,623,774,488,598,567,616,896,620,1392],"next_num":10,"trial_type":"ticket-choose","trial_index":108,"time_elapsed":2664879,"internal_node_id":"0.0-108.0"},{"result":153,"points":3,"place":0,"phase":1,"sequence":36,"prices":[176,187,158,210,181,187,177,165,208,153],"times":[1026,532,935,1082,596,623,585,3245,575,490],"next_num":10,"trial_type":"ticket-choose","trial_index":109,"time_elapsed":2678159,"internal_node_id":"0.0-109.0"},{"result":154,"points":3,"place":0,"phase":1,"sequence":37,"prices":[175,187,165,209,180,188,177,166,154,208],"times":[1000,1367,807,527,550,519,543,807,1023],"next_num":9,"trial_type":"ticket-choose","trial_index":110,"time_elapsed":2688767,"internal_node_id":"0.0-110.0"},{"result":155,"points":2,"place":1,"phase":1,"sequence":38,"prices":[201,207,155,158,156,165,167,135,178,177],"times":[1968,6535,1081],"next_num":3,"trial_type":"ticket-choose","trial_index":111,"time_elapsed":2700442,"internal_node_id":"0.0-111.0"},{"result":153,"points":3,"place":0,"phase":1,"sequence":39,"prices":[175,186,165,214,179,187,177,166,153,208],"times":[4006,648,766,559,2240,517,599,686,1031],"next_num":9,"trial_type":"ticket-choose","trial_index":112,"time_elapsed":2715023,"internal_node_id":"0.0-112.0"},{"result":154,"points":3,"place":0,"phase":1,"sequence":40,"prices":[175,187,163,209,180,188,176,165,154,208],"times":[6112,575,1072,542,863,543,590,839,926],"next_num":9,"trial_type":"ticket-choose","trial_index":113,"time_elapsed":2730458,"internal_node_id":"0.0-113.0"},{"result":186,"points":1,"place":4,"phase":1,"sequence":41,"prices":[192,165,171,178,188,217,172,195,197,186],"times":[1479,615,471,485,1007,551,511,678,671,775],"next_num":10,"trial_type":"ticket-choose","trial_index":114,"time_elapsed":2741431,"internal_node_id":"0.0-114.0"},{"result":163,"points":2,"place":1,"phase":1,"sequence":42,"prices":[175,186,176,210,179,187,163,166,153,208],"times":[975,502,526,559,536,702,1343],"next_num":7,"trial_type":"ticket-choose","trial_index":115,"time_elapsed":2749519,"internal_node_id":"0.0-115.0"},{"result":165,"points":2,"place":1,"phase":1,"sequence":43,"prices":[174,186,177,217,181,187,165,166,153,209],"times":[4288,5076,607,1519,559,566,2119],"next_num":7,"trial_type":"ticket-choose","trial_index":116,"time_elapsed":2767177,"internal_node_id":"0.0-116.0"},{"result":153,"points":3,"place":0,"phase":1,"sequence":44,"prices":[175,186,163,214,179,187,176,166,153,208],"times":[1759,535,895,479,583,1367,1007,759,1007],"next_num":9,"trial_type":"ticket-choose","trial_index":117,"time_elapsed":2778879,"internal_node_id":"0.0-117.0"},{"result":185,"points":1,"place":4,"phase":1,"sequence":45,"prices":[196,165,170,184,187,211,171,201,202,185],"times":[875,1069,743,809,732,703,599,823,647,736],"next_num":10,"trial_type":"ticket-choose","trial_index":118,"time_elapsed":2790161,"internal_node_id":"0.0-118.0"},{"result":161,"points":3,"place":0,"phase":1,"sequence":46,"prices":[200,165,165,173,182,207,161,202,204,180],"times":[1047,1084,447,534,527,495,1016],"next_num":7,"trial_type":"ticket-choose","trial_index":119,"time_elapsed":2798247,"internal_node_id":"0.0-119.0"},{"result":208,"points":0,"place":6,"phase":1,"sequence":47,"prices":[210,184,226,193,215,158,199,175,176,208],"times":[664,503,1174,1040,560,870,863,1327,518,920],"next_num":10,"trial_type":"ticket-choose","trial_index":120,"time_elapsed":2810335,"internal_node_id":"0.0-120.0"},{"result":141,"points":3,"place":0,"phase":1,"sequence":48,"prices":[180,159,149,175,185,141,163,174,178,207],"times":[1125,900,533,583,665,1068],"next_num":6,"trial_type":"ticket-choose","trial_index":121,"time_elapsed":2818065,"internal_node_id":"0.0-121.0"},{"result":148,"points":3,"place":0,"phase":1,"sequence":49,"prices":[181,155,148,161,168,187,172,199,176,194],"times":[1523,1030,1522],"next_num":3,"trial_type":"ticket-choose","trial_index":122,"time_elapsed":2824263,"internal_node_id":"0.0-122.0"},{"responses":[{"value":2,"offby":1,"category":"$115 - $130","category_index":0},{"value":6,"offby":1,"category":"$131 - $145","category_index":1},{"value":14,"offby":2,"category":"$146 - $160","category_index":2},{"value":32,"offby":10,"category":"$161 - $175","category_index":3},{"value":23,"offby":-11,"category":"$176 - $190","category_index":4},{"value":15,"offby":0,"category":"$191 - $205","category_index":5},{"value":8,"offby":-3,"category":"$206 - $220","category_index":6}],"phase":1,"number":1,"trial_type":"bar-choose","trial_index":123,"time_elapsed":2856427,"internal_node_id":"0.0-123.0"},{"special_comment":"No","trial_type":"special_sequence","trial_index":124,"time_elapsed":2864466,"internal_node_id":"0.0-124.0"},{"during":"Nothing","bonus":312,"trial_type":"final","trial_index":125,"time_elapsed":2882994,"internal_node_id":"0.0-125.0"}],"bonus":312}