{"start_time":"2017-05-24 12:33:10","end_time":"2017-05-24 12:55:50","points_phase0":110,"points_phase1":99,"phase_order":0,"age":36,"gender":"f","tries":1,"during":"Nothing","worker_id":"A2W59CL4UQ3S4S","assignment_id":"39GAF6DQWST988W61G5GXNPSQM01VY","data":[{"rt":59048,"url":"\/christiane\/tickets\/utils\/consent.html","trial_type":"html","trial_index":0,"time_elapsed":59130,"internal_node_id":"0.0-0.0"},{"age":36,"gender":"f","trial_type":"age","trial_index":1,"time_elapsed":64475,"internal_node_id":"0.0-1.0"},{"worker_id":"A2W59CL4UQ3S4S","trial_type":"workerid","trial_index":2,"time_elapsed":221466,"internal_node_id":"0.0-2.0"},{"tries":1,"trial_type":"instructions_check","trial_index":3,"time_elapsed":312466,"internal_node_id":"0.0-3.0"},{"rt":9934,"url":"\/christiane\/tickets\/utils\/start.html","trial_type":"html","trial_index":4,"time_elapsed":323529,"internal_node_id":"0.0-4.0"},{"trial_type":"number-animation","trial_index":5,"time_elapsed":340593,"internal_node_id":"0.0-5.0"},{"phase":0,"sequence":0,"avg":181,"response":169,"trial_type":"training_avg","trial_index":6,"time_elapsed":351441,"internal_node_id":"0.0-6.0"},{"trial_type":"number-animation","trial_index":7,"time_elapsed":363841,"internal_node_id":"0.0-7.0"},{"phase":0,"sequence":1,"avg":188,"response":185,"trial_type":"training_avg","trial_index":8,"time_elapsed":372641,"internal_node_id":"0.0-8.0"},{"trial_type":"number-animation","trial_index":9,"time_elapsed":383209,"internal_node_id":"0.0-9.0"},{"phase":0,"sequence":2,"avg":188,"response":190,"trial_type":"training_avg","trial_index":10,"time_elapsed":390482,"internal_node_id":"0.0-10.0"},{"trial_type":"number-animation","trial_index":11,"time_elapsed":400953,"internal_node_id":"0.0-11.0"},{"phase":0,"sequence":3,"avg":177,"response":188,"trial_type":"training_avg","trial_index":12,"time_elapsed":407881,"internal_node_id":"0.0-12.0"},{"trial_type":"number-animation","trial_index":13,"time_elapsed":418281,"internal_node_id":"0.0-13.0"},{"phase":0,"sequence":4,"avg":182,"response":180,"trial_type":"training_avg","trial_index":14,"time_elapsed":427347,"internal_node_id":"0.0-14.0"},{"responses":[{"value":0,"offby":-1,"category":"$115 - $130","category_index":0},{"value":3,"offby":-2,"category":"$131 - $145","category_index":1},{"value":19,"offby":7,"category":"$146 - $160","category_index":2},{"value":29,"offby":7,"category":"$161 - $175","category_index":3},{"value":24,"offby":-10,"category":"$176 - $190","category_index":4},{"value":20,"offby":5,"category":"$191 - $205","category_index":5},{"value":5,"offby":-6,"category":"$206 - $220","category_index":6}],"phase":0,"number":0,"trial_type":"bar-choose","trial_index":15,"time_elapsed":491539,"internal_node_id":"0.0-15.0"},{"rt":17221,"url":"\/christiane\/tickets\/utils\/testing.html","trial_type":"html","trial_index":16,"time_elapsed":509890,"internal_node_id":"0.0-16.0"},{"phase":0,"order":[10,1,13,30,22,40,36,21,43,4,45,11,9,19,26,48,47,35,6,12,0,24,7,2,14,27,20,25,28,17,3,32,18,8,38,5,49,37,16,39,42,46,41,44,33,31,29,23,15,34],"trial_type":"store_order","trial_index":17,"time_elapsed":510891,"internal_node_id":"0.0-17.0"},{"result":146,"points":3,"place":0,"phase":0,"sequence":-1,"prices":[184,180,224,165,181,199,185,193,218,146],"times":[1747,965,582,3894,542,526,549,590,686,1159],"next_num":10,"trial_type":"ticket-choose","trial_index":18,"time_elapsed":526474,"internal_node_id":"0.0-18.0"},{"rt":10068,"url":"\/christiane\/tickets\/utils\/testing_after.html","trial_type":"html","trial_index":19,"time_elapsed":537674,"internal_node_id":"0.0-19.0"},{"result":165,"points":2,"place":1,"phase":0,"sequence":0,"prices":[175,187,177,209,180,188,165,165,154,208],"times":[1273,512,703,775,640,717,1638,1687],"next_num":8,"trial_type":"ticket-choose","trial_index":20,"time_elapsed":550554,"internal_node_id":"0.0-20.0"},{"result":156,"points":3,"place":0,"phase":0,"sequence":1,"prices":[175,185,167,224,181,186,178,168,208,156],"times":[2078,600,1118,598,607,632,639,1351,583,823],"next_num":10,"trial_type":"ticket-choose","trial_index":21,"time_elapsed":564297,"internal_node_id":"0.0-21.0"},{"result":163,"points":2,"place":1,"phase":0,"sequence":2,"prices":[175,187,163,209,180,188,176,165,154,208],"times":[5833,533,2456],"next_num":3,"trial_type":"ticket-choose","trial_index":22,"time_elapsed":575794,"internal_node_id":"0.0-22.0"},{"result":165,"points":3,"place":0,"phase":0,"sequence":3,"prices":[191,172,169,175,182,203,170,195,165,176],"times":[781,527,543,599,558,646,568,710,1063],"next_num":9,"trial_type":"ticket-choose","trial_index":23,"time_elapsed":585833,"internal_node_id":"0.0-23.0"},{"result":158,"points":2,"place":1,"phase":0,"sequence":4,"prices":[175,186,177,209,181,188,158,167,208,154],"times":[967,887,974,647,638,672,1014],"next_num":7,"trial_type":"ticket-choose","trial_index":24,"time_elapsed":594865,"internal_node_id":"0.0-24.0"},{"result":150,"points":3,"place":0,"phase":0,"sequence":5,"prices":[189,150,175,160,188,207,158,194,178,199],"times":[2546,1157],"next_num":2,"trial_type":"ticket-choose","trial_index":25,"time_elapsed":600786,"internal_node_id":"0.0-25.0"},{"result":154,"points":3,"place":0,"phase":0,"sequence":6,"prices":[188,200,165,172,198,174,177,154,177,180],"times":[640,557,1342,550,552,791,695,911],"next_num":8,"trial_type":"ticket-choose","trial_index":26,"time_elapsed":610297,"internal_node_id":"0.0-26.0"},{"result":158,"points":2,"place":1,"phase":0,"sequence":7,"prices":[175,186,177,221,180,187,158,166,209,153],"times":[1032,1270,559,534,623,558,879],"next_num":7,"trial_type":"ticket-choose","trial_index":27,"time_elapsed":618961,"internal_node_id":"0.0-27.0"},{"result":157,"points":3,"place":0,"phase":0,"sequence":8,"prices":[201,187,157,184,198,179,188,185,178,170],"times":[6673,542,918],"next_num":3,"trial_type":"ticket-choose","trial_index":28,"time_elapsed":629441,"internal_node_id":"0.0-28.0"},{"result":167,"points":2,"place":1,"phase":0,"sequence":9,"prices":[175,185,178,215,181,186,167,168,208,156],"times":[801,567,583,566,1694,632,1150],"next_num":7,"trial_type":"ticket-choose","trial_index":29,"time_elapsed":638946,"internal_node_id":"0.0-29.0"},{"result":167,"points":2,"place":1,"phase":0,"sequence":10,"prices":[212,192,188,184,167,193,189,164,176,170],"times":[751,566,703,647,1206],"next_num":5,"trial_type":"ticket-choose","trial_index":30,"time_elapsed":645641,"internal_node_id":"0.0-30.0"},{"result":165,"points":2,"place":1,"phase":0,"sequence":11,"prices":[174,186,177,217,181,187,165,166,153,209],"times":[798,622,536,631,607,567,1966],"next_num":7,"trial_type":"ticket-choose","trial_index":31,"time_elapsed":654522,"internal_node_id":"0.0-31.0"},{"result":166,"points":1,"place":2,"phase":0,"sequence":12,"prices":[175,186,177,210,179,187,165,166,153,208],"times":[671,590,591,526,687,583,959,1447],"next_num":8,"trial_type":"ticket-choose","trial_index":32,"time_elapsed":664554,"internal_node_id":"0.0-32.0"},{"result":158,"points":2,"place":1,"phase":0,"sequence":13,"prices":[175,186,158,209,181,188,177,167,208,154],"times":[1095,559,951],"next_num":3,"trial_type":"ticket-choose","trial_index":33,"time_elapsed":669474,"internal_node_id":"0.0-33.0"},{"result":161,"points":3,"place":0,"phase":0,"sequence":14,"prices":[200,165,165,173,182,207,161,202,204,180],"times":[689,646,904,525,574,574,901],"next_num":7,"trial_type":"ticket-choose","trial_index":34,"time_elapsed":677442,"internal_node_id":"0.0-34.0"},{"result":147,"points":3,"place":0,"phase":0,"sequence":15,"prices":[181,215,169,147,182,193,177,184,176,179],"times":[760,510,630,1079],"next_num":4,"trial_type":"ticket-choose","trial_index":35,"time_elapsed":682963,"internal_node_id":"0.0-35.0"},{"result":152,"points":3,"place":0,"phase":0,"sequence":16,"prices":[200,181,203,152,175,171,160,154,176,191],"times":[1137,525,568,958],"next_num":4,"trial_type":"ticket-choose","trial_index":36,"time_elapsed":688579,"internal_node_id":"0.0-36.0"},{"result":154,"points":2,"place":1,"phase":0,"sequence":17,"prices":[168,154,172,185,195,144,184,211,177,227],"times":[3375,870],"next_num":2,"trial_type":"ticket-choose","trial_index":37,"time_elapsed":694898,"internal_node_id":"0.0-37.0"},{"result":153,"points":3,"place":0,"phase":0,"sequence":18,"prices":[175,186,165,214,179,187,177,166,153,208],"times":[1028,471,542,568,527,567,582,1167,887],"next_num":9,"trial_type":"ticket-choose","trial_index":38,"time_elapsed":704859,"internal_node_id":"0.0-38.0"},{"result":163,"points":2,"place":1,"phase":0,"sequence":19,"prices":[175,186,163,214,179,187,176,166,153,208],"times":[741,583,975],"next_num":3,"trial_type":"ticket-choose","trial_index":39,"time_elapsed":709435,"internal_node_id":"0.0-39.0"},{"result":156,"points":3,"place":0,"phase":0,"sequence":20,"prices":[174,186,167,211,181,188,178,168,208,156],"times":[831,550,887,577,726,591,734,1071,574,599],"next_num":10,"trial_type":"ticket-choose","trial_index":40,"time_elapsed":720554,"internal_node_id":"0.0-40.0"},{"result":184,"points":1,"place":4,"phase":0,"sequence":21,"prices":[193,165,175,181,185,224,180,199,218,184],"times":[1073,766,496,590,575,631,607,591,639,935],"next_num":10,"trial_type":"ticket-choose","trial_index":41,"time_elapsed":732076,"internal_node_id":"0.0-41.0"},{"result":165,"points":2,"place":1,"phase":0,"sequence":22,"prices":[175,187,165,209,180,188,177,166,154,208],"times":[1189,952,1342],"next_num":3,"trial_type":"ticket-choose","trial_index":42,"time_elapsed":737779,"internal_node_id":"0.0-42.0"},{"result":167,"points":2,"place":1,"phase":0,"sequence":23,"prices":[175,186,167,225,179,187,178,169,209,153],"times":[850,487,2055],"next_num":3,"trial_type":"ticket-choose","trial_index":43,"time_elapsed":743485,"internal_node_id":"0.0-43.0"},{"result":163,"points":2,"place":1,"phase":0,"sequence":24,"prices":[174,186,163,212,181,187,176,166,153,209],"times":[3448,485,1622],"next_num":3,"trial_type":"ticket-choose","trial_index":44,"time_elapsed":751275,"internal_node_id":"0.0-44.0"},{"result":186,"points":1,"place":4,"phase":0,"sequence":25,"prices":[192,165,171,178,188,217,172,195,197,186],"times":[1207,1056,560,495,590,575,616,845,568,670],"next_num":10,"trial_type":"ticket-choose","trial_index":45,"time_elapsed":762412,"internal_node_id":"0.0-45.0"},{"result":158,"points":2,"place":1,"phase":0,"sequence":26,"prices":[176,187,158,210,181,187,177,165,208,153],"times":[902,544,846],"next_num":3,"trial_type":"ticket-choose","trial_index":46,"time_elapsed":766915,"internal_node_id":"0.0-46.0"},{"result":162,"points":3,"place":0,"phase":0,"sequence":27,"prices":[201,165,162,166,185,214,165,202,204,179],"times":[631,1024,919],"next_num":3,"trial_type":"ticket-choose","trial_index":47,"time_elapsed":771915,"internal_node_id":"0.0-47.0"},{"result":165,"points":3,"place":0,"phase":0,"sequence":28,"prices":[196,165,170,184,187,211,171,201,202,185],"times":[672,1016],"next_num":2,"trial_type":"ticket-choose","trial_index":48,"time_elapsed":775842,"internal_node_id":"0.0-48.0"},{"result":163,"points":2,"place":1,"phase":0,"sequence":29,"prices":[174,186,176,217,181,187,163,166,153,209],"times":[646,1608,5623,598,607,535,1046],"next_num":7,"trial_type":"ticket-choose","trial_index":49,"time_elapsed":789595,"internal_node_id":"0.0-49.0"},{"result":167,"points":2,"place":1,"phase":0,"sequence":30,"prices":[174,186,178,217,181,188,167,168,208,156],"times":[1695,575,534,599,567,552,957],"next_num":7,"trial_type":"ticket-choose","trial_index":50,"time_elapsed":798186,"internal_node_id":"0.0-50.0"},{"result":165,"points":3,"place":0,"phase":0,"sequence":31,"prices":[193,169,171,187,190,224,174,194,165,188],"times":[785,704,631,559,526,816,613,591,881],"next_num":9,"trial_type":"ticket-choose","trial_index":51,"time_elapsed":808219,"internal_node_id":"0.0-51.0"},{"result":158,"points":2,"place":1,"phase":0,"sequence":32,"prices":[175,186,158,211,180,187,177,166,209,153],"times":[1710,632,912],"next_num":3,"trial_type":"ticket-choose","trial_index":52,"time_elapsed":813667,"internal_node_id":"0.0-52.0"},{"result":167,"points":1,"place":2,"phase":0,"sequence":33,"prices":[174,186,165,212,181,187,177,167,153,209],"times":[614,502,1342,542,503,463,486,927],"next_num":8,"trial_type":"ticket-choose","trial_index":53,"time_elapsed":822748,"internal_node_id":"0.0-53.0"},{"result":163,"points":3,"place":0,"phase":0,"sequence":34,"prices":[168,199,196,198,185,195,227,163,177,166],"times":[1582,536,544,518,536,568,558,952],"next_num":8,"trial_type":"ticket-choose","trial_index":54,"time_elapsed":831827,"internal_node_id":"0.0-54.0"},{"result":167,"points":2,"place":1,"phase":0,"sequence":35,"prices":[175,186,178,212,179,187,167,169,209,153],"times":[2473,1197,592,599,519,710,1022],"next_num":7,"trial_type":"ticket-choose","trial_index":55,"time_elapsed":842066,"internal_node_id":"0.0-55.0"},{"result":163,"points":1,"place":2,"phase":0,"sequence":36,"prices":[183,163,185,180,166,148,160,186,176,184],"times":[1274,863],"next_num":2,"trial_type":"ticket-choose","trial_index":56,"time_elapsed":846330,"internal_node_id":"0.0-56.0"},{"result":163,"points":2,"place":1,"phase":0,"sequence":37,"prices":[198,193,169,163,202,182,152,164,177,171],"times":[590,519,511,951],"next_num":4,"trial_type":"ticket-choose","trial_index":57,"time_elapsed":851378,"internal_node_id":"0.0-57.0"},{"result":163,"points":2,"place":1,"phase":0,"sequence":38,"prices":[175,187,176,209,180,188,163,165,154,208],"times":[737,503,518,616,991,1183,1199],"next_num":7,"trial_type":"ticket-choose","trial_index":58,"time_elapsed":860298,"internal_node_id":"0.0-58.0"},{"result":167,"points":2,"place":1,"phase":0,"sequence":39,"prices":[189,167,180,197,165,168,172,213,178,171],"times":[2700,3900],"next_num":2,"trial_type":"ticket-choose","trial_index":59,"time_elapsed":869042,"internal_node_id":"0.0-59.0"},{"result":143,"points":3,"place":0,"phase":0,"sequence":40,"prices":[222,173,202,197,143,205,198,183,178,186],"times":[1127,1199,919,639,1407],"next_num":5,"trial_type":"ticket-choose","trial_index":60,"time_elapsed":877226,"internal_node_id":"0.0-60.0"},{"result":158,"points":3,"place":0,"phase":0,"sequence":41,"prices":[210,184,226,193,215,158,199,175,176,208],"times":[959,608,725,981,886,2311],"next_num":6,"trial_type":"ticket-choose","trial_index":61,"time_elapsed":886698,"internal_node_id":"0.0-61.0"},{"result":155,"points":2,"place":1,"phase":0,"sequence":42,"prices":[201,207,155,158,156,165,167,135,178,177],"times":[2903,568,959],"next_num":3,"trial_type":"ticket-choose","trial_index":62,"time_elapsed":893443,"internal_node_id":"0.0-62.0"},{"result":159,"points":1,"place":2,"phase":0,"sequence":43,"prices":[180,159,149,175,185,141,163,174,178,207],"times":[1317,1495],"next_num":2,"trial_type":"ticket-choose","trial_index":63,"time_elapsed":898306,"internal_node_id":"0.0-63.0"},{"result":168,"points":1,"place":2,"phase":0,"sequence":44,"prices":[183,182,192,168,173,205,167,187,165,170],"times":[5886,576,582,1487],"next_num":4,"trial_type":"ticket-choose","trial_index":64,"time_elapsed":909298,"internal_node_id":"0.0-64.0"},{"result":170,"points":1,"place":3,"phase":0,"sequence":45,"prices":[171,203,175,170,167,220,192,186,165,165],"times":[1800,512,503,992],"next_num":4,"trial_type":"ticket-choose","trial_index":65,"time_elapsed":915585,"internal_node_id":"0.0-65.0"},{"result":165,"points":3,"place":0,"phase":0,"sequence":46,"prices":[185,170,182,201,173,199,171,188,165,168],"times":[1103,855,752,631,887,552,552,638,783],"next_num":9,"trial_type":"ticket-choose","trial_index":66,"time_elapsed":925874,"internal_node_id":"0.0-66.0"},{"result":158,"points":2,"place":1,"phase":0,"sequence":47,"prices":[176,187,177,225,181,187,158,165,208,153],"times":[2222,751,839,638,528,527,1055],"next_num":7,"trial_type":"ticket-choose","trial_index":67,"time_elapsed":935619,"internal_node_id":"0.0-67.0"},{"result":163,"points":2,"place":1,"phase":0,"sequence":48,"prices":[175,186,176,210,179,187,163,166,153,208],"times":[784,639,648,1135,535,520,896],"next_num":7,"trial_type":"ticket-choose","trial_index":68,"time_elapsed":943818,"internal_node_id":"0.0-68.0"},{"result":148,"points":3,"place":0,"phase":0,"sequence":49,"prices":[181,155,148,161,168,187,172,199,176,194],"times":[1408,888,1207],"next_num":3,"trial_type":"ticket-choose","trial_index":69,"time_elapsed":949634,"internal_node_id":"0.0-69.0"},{"responses":[{"value":0,"offby":-1,"category":"$115 - $130","category_index":0},{"value":0,"offby":-5,"category":"$131 - $145","category_index":1},{"value":22,"offby":10,"category":"$146 - $160","category_index":2},{"value":26,"offby":4,"category":"$161 - $175","category_index":3},{"value":28,"offby":-6,"category":"$176 - $190","category_index":4},{"value":13,"offby":-2,"category":"$191 - $205","category_index":5},{"value":11,"offby":0,"category":"$206 - $220","category_index":6}],"phase":1,"number":1,"trial_type":"bar-choose","trial_index":70,"time_elapsed":978525,"internal_node_id":"0.0-70.0"},{"rt":15368,"url":"\/christiane\/tickets\/utils\/testing2.html","trial_type":"point_update","trial_index":71,"time_elapsed":995148,"internal_node_id":"0.0-71.0"},{"phase":1,"order":[29,9,1,25,35,36,41,20,39,43,4,28,38,44,32,0,46,13,40,16,10,22,2,8,5,24,30,33,27,37,48,11,34,49,17,18,26,47,6,15,42,45,31,19,3,7,21,14,12,23],"trial_type":"store_order","trial_index":72,"time_elapsed":996150,"internal_node_id":"0.0-72.0"},{"result":165,"points":1,"place":2,"phase":1,"sequence":0,"prices":[185,179,191,165,161,173,199,150,188,168],"times":[2415,582,519,983],"next_num":4,"trial_type":"ticket-choose","trial_index":73,"time_elapsed":1003164,"internal_node_id":"0.0-73.0"},{"result":165,"points":2,"place":1,"phase":1,"sequence":1,"prices":[177,175,186,210,165,179,187,166,153,208],"times":[837,567,478,528,870],"next_num":5,"trial_type":"ticket-choose","trial_index":74,"time_elapsed":1009051,"internal_node_id":"0.0-74.0"},{"result":167,"points":2,"place":1,"phase":1,"sequence":2,"prices":[167,175,185,224,178,181,186,168,208,156],"times":[2703],"next_num":1,"trial_type":"ticket-choose","trial_index":75,"time_elapsed":1013547,"internal_node_id":"0.0-75.0"},{"result":166,"points":1,"place":3,"phase":1,"sequence":3,"prices":[201,204,179,166,185,165,214,156,202,165],"times":[646,720,567,792],"next_num":4,"trial_type":"ticket-choose","trial_index":76,"time_elapsed":1018627,"internal_node_id":"0.0-76.0"},{"result":167,"points":1,"place":2,"phase":1,"sequence":4,"prices":[167,153,172,185,195,143,184,211,177,227],"times":[1719],"next_num":1,"trial_type":"ticket-choose","trial_index":77,"time_elapsed":1022100,"internal_node_id":"0.0-77.0"},{"result":165,"points":2,"place":1,"phase":1,"sequence":5,"prices":[187,201,165,172,196,174,178,154,172,180],"times":[654,597,943],"next_num":3,"trial_type":"ticket-choose","trial_index":78,"time_elapsed":1026475,"internal_node_id":"0.0-78.0"},{"result":155,"points":2,"place":1,"phase":1,"sequence":6,"prices":[200,207,155,158,156,168,167,135,178,177],"times":[1040,495,1046],"next_num":3,"trial_type":"ticket-choose","trial_index":79,"time_elapsed":1031282,"internal_node_id":"0.0-79.0"},{"result":158,"points":2,"place":1,"phase":1,"sequence":7,"prices":[158,176,187,210,177,181,187,165,208,153],"times":[1302],"next_num":1,"trial_type":"ticket-choose","trial_index":80,"time_elapsed":1034347,"internal_node_id":"0.0-80.0"},{"result":167,"points":2,"place":1,"phase":1,"sequence":8,"prices":[189,167,180,197,165,168,172,213,178,171],"times":[1036,1519],"next_num":2,"trial_type":"ticket-choose","trial_index":81,"time_elapsed":1038938,"internal_node_id":"0.0-81.0"},{"result":157,"points":3,"place":0,"phase":1,"sequence":9,"prices":[201,187,157,184,198,179,188,185,178,170],"times":[598,503,752],"next_num":3,"trial_type":"ticket-choose","trial_index":82,"time_elapsed":1042930,"internal_node_id":"0.0-82.0"},{"result":167,"points":2,"place":1,"phase":1,"sequence":10,"prices":[178,175,185,215,167,181,186,168,208,156],"times":[560,550,510,479,1063],"next_num":5,"trial_type":"ticket-choose","trial_index":83,"time_elapsed":1048690,"internal_node_id":"0.0-83.0"},{"result":165,"points":3,"place":0,"phase":1,"sequence":11,"prices":[196,171,170,184,187,165,211,169,201,202],"times":[591,494,503,543,535,806],"next_num":6,"trial_type":"ticket-choose","trial_index":84,"time_elapsed":1055002,"internal_node_id":"0.0-84.0"},{"result":163,"points":3,"place":0,"phase":1,"sequence":12,"prices":[163,199,196,199,185,195,227,163,177,166],"times":[1727],"next_num":1,"trial_type":"ticket-choose","trial_index":85,"time_elapsed":1062202,"internal_node_id":"0.0-85.0"},{"result":159,"points":1,"place":2,"phase":1,"sequence":13,"prices":[181,159,149,175,185,151,163,174,178,207],"times":[719,791],"next_num":2,"trial_type":"ticket-choose","trial_index":86,"time_elapsed":1065683,"internal_node_id":"0.0-86.0"},{"result":165,"points":2,"place":1,"phase":1,"sequence":14,"prices":[193,174,224,165,187,190,224,161,194,195],"times":[557,718,535,871],"next_num":4,"trial_type":"ticket-choose","trial_index":87,"time_elapsed":1070842,"internal_node_id":"0.0-87.0"},{"result":167,"points":2,"place":1,"phase":1,"sequence":15,"prices":[167,174,186,211,178,181,188,168,208,156],"times":[1175],"next_num":1,"trial_type":"ticket-choose","trial_index":88,"time_elapsed":1073835,"internal_node_id":"0.0-88.0"},{"result":158,"points":3,"place":0,"phase":1,"sequence":16,"prices":[214,184,226,192,215,158,199,175,176,208],"times":[556,486,789,598,719,838],"next_num":6,"trial_type":"ticket-choose","trial_index":89,"time_elapsed":1080613,"internal_node_id":"0.0-89.0"},{"result":163,"points":2,"place":1,"phase":1,"sequence":17,"prices":[163,175,187,209,176,180,188,165,154,208],"times":[1643],"next_num":1,"trial_type":"ticket-choose","trial_index":90,"time_elapsed":1084131,"internal_node_id":"0.0-90.0"},{"result":150,"points":3,"place":0,"phase":1,"sequence":18,"prices":[190,150,175,161,188,207,157,194,178,199],"times":[1006,726],"next_num":2,"trial_type":"ticket-choose","trial_index":91,"time_elapsed":1087868,"internal_node_id":"0.0-91.0"},{"result":163,"points":2,"place":1,"phase":1,"sequence":19,"prices":[176,187,179,209,163,180,188,165,154,208],"times":[581,510,494,575,750],"next_num":5,"trial_type":"ticket-choose","trial_index":92,"time_elapsed":1093427,"internal_node_id":"0.0-92.0"},{"result":165,"points":2,"place":1,"phase":1,"sequence":20,"prices":[177,175,187,209,165,180,188,165,154,208],"times":[703,1687,887,494,726],"next_num":5,"trial_type":"ticket-choose","trial_index":93,"time_elapsed":1100460,"internal_node_id":"0.0-93.0"},{"result":158,"points":2,"place":1,"phase":1,"sequence":21,"prices":[177,175,186,209,158,181,188,167,208,154],"times":[535,510,518,527,807],"next_num":5,"trial_type":"ticket-choose","trial_index":94,"time_elapsed":1105947,"internal_node_id":"0.0-94.0"},{"result":169,"points":1,"place":2,"phase":1,"sequence":22,"prices":[167,175,186,225,178,179,187,169,209,153],"times":[567,2398,735,567,543,485,527,814],"next_num":8,"trial_type":"ticket-choose","trial_index":95,"time_elapsed":1115875,"internal_node_id":"0.0-95.0"},{"result":165,"points":2,"place":1,"phase":1,"sequence":23,"prices":[165,174,186,212,177,181,187,166,153,209],"times":[953],"next_num":1,"trial_type":"ticket-choose","trial_index":96,"time_elapsed":1118571,"internal_node_id":"0.0-96.0"},{"result":167,"points":2,"place":1,"phase":1,"sequence":24,"prices":[178,175,186,212,167,179,187,169,209,153],"times":[3801,567,525,527,1319],"next_num":5,"trial_type":"ticket-choose","trial_index":97,"time_elapsed":1127965,"internal_node_id":"0.0-97.0"},{"result":165,"points":3,"place":0,"phase":1,"sequence":25,"prices":[193,181,175,181,185,165,224,199,218,184],"times":[2598,532,622,526,591,927],"next_num":6,"trial_type":"ticket-choose","trial_index":98,"time_elapsed":1136748,"internal_node_id":"0.0-98.0"},{"result":165,"points":2,"place":1,"phase":1,"sequence":26,"prices":[191,170,182,165,175,182,203,157,195,200],"times":[742,511,582,783],"next_num":4,"trial_type":"ticket-choose","trial_index":99,"time_elapsed":1141763,"internal_node_id":"0.0-99.0"},{"result":165,"points":2,"place":1,"phase":1,"sequence":27,"prices":[183,179,188,165,168,173,205,159,187,191],"times":[688,565,1958,894],"next_num":4,"trial_type":"ticket-choose","trial_index":100,"time_elapsed":1148260,"internal_node_id":"0.0-100.0"},{"result":165,"points":3,"place":0,"phase":1,"sequence":28,"prices":[192,172,171,178,188,165,217,168,195,197],"times":[582,847,584,597,495,774],"next_num":6,"trial_type":"ticket-choose","trial_index":101,"time_elapsed":1154973,"internal_node_id":"0.0-101.0"},{"result":169,"points":1,"place":3,"phase":1,"sequence":29,"prices":[199,193,169,165,202,182,151,164,176,171],"times":[1313,582,998],"next_num":3,"trial_type":"ticket-choose","trial_index":102,"time_elapsed":1160019,"internal_node_id":"0.0-102.0"},{"result":169,"points":2,"place":1,"phase":1,"sequence":30,"prices":[181,214,169,147,182,193,178,184,176,179],"times":[4300,883,830],"next_num":3,"trial_type":"ticket-choose","trial_index":103,"time_elapsed":1169083,"internal_node_id":"0.0-103.0"},{"result":165,"points":2,"place":1,"phase":1,"sequence":31,"prices":[177,174,186,217,165,181,187,166,153,209],"times":[1262,558,583,622,878],"next_num":5,"trial_type":"ticket-choose","trial_index":104,"time_elapsed":1175620,"internal_node_id":"0.0-104.0"},{"result":156,"points":2,"place":1,"phase":1,"sequence":32,"prices":[180,156,149,160,168,186,172,198,176,195],"times":[2693,846],"next_num":2,"trial_type":"ticket-choose","trial_index":105,"time_elapsed":1181172,"internal_node_id":"0.0-105.0"},{"result":163,"points":1,"place":2,"phase":1,"sequence":33,"prices":[173,163,185,181,166,148,160,185,176,184],"times":[718,814],"next_num":2,"trial_type":"ticket-choose","trial_index":106,"time_elapsed":1184732,"internal_node_id":"0.0-106.0"},{"result":163,"points":2,"place":1,"phase":1,"sequence":34,"prices":[176,186,178,217,163,181,187,166,153,209],"times":[725,574,558,575,777],"next_num":5,"trial_type":"ticket-choose","trial_index":107,"time_elapsed":1190611,"internal_node_id":"0.0-107.0"},{"result":158,"points":2,"place":1,"phase":1,"sequence":35,"prices":[158,175,186,211,177,180,187,166,209,153],"times":[2587],"next_num":1,"trial_type":"ticket-choose","trial_index":108,"time_elapsed":1195003,"internal_node_id":"0.0-108.0"},{"result":165,"points":1,"place":2,"phase":1,"sequence":36,"prices":[200,173,182,169,207,165,152,202,161,204],"times":[783,520,519,825,589,830],"next_num":6,"trial_type":"ticket-choose","trial_index":109,"time_elapsed":1201869,"internal_node_id":"0.0-109.0"},{"result":152,"points":3,"place":0,"phase":1,"sequence":37,"prices":[200,180,203,152,175,170,160,154,176,191],"times":[509,471,632,966],"next_num":4,"trial_type":"ticket-choose","trial_index":110,"time_elapsed":1206900,"internal_node_id":"0.0-110.0"},{"result":165,"points":2,"place":1,"phase":1,"sequence":38,"prices":[165,175,186,214,177,179,187,166,153,208],"times":[1701],"next_num":1,"trial_type":"ticket-choose","trial_index":111,"time_elapsed":1210386,"internal_node_id":"0.0-111.0"},{"result":163,"points":2,"place":1,"phase":1,"sequence":39,"prices":[176,175,186,210,163,179,187,166,153,208],"times":[732,527,461,526,904],"next_num":5,"trial_type":"ticket-choose","trial_index":112,"time_elapsed":1216150,"internal_node_id":"0.0-112.0"},{"result":169,"points":3,"place":0,"phase":1,"sequence":40,"prices":[220,173,201,197,169,205,198,183,178,186],"times":[740,925,574,510,1304],"next_num":5,"trial_type":"ticket-choose","trial_index":113,"time_elapsed":1223338,"internal_node_id":"0.0-113.0"},{"result":167,"points":2,"place":1,"phase":1,"sequence":41,"prices":[199,191,188,174,167,193,189,164,176,170],"times":[773,550,510,598,807],"next_num":5,"trial_type":"ticket-choose","trial_index":114,"time_elapsed":1229274,"internal_node_id":"0.0-114.0"},{"result":169,"points":0,"place":5,"phase":1,"sequence":42,"prices":[171,169,186,165,163,167,220,148,187,165],"times":[839,1127],"next_num":2,"trial_type":"ticket-choose","trial_index":115,"time_elapsed":1233682,"internal_node_id":"0.0-115.0"},{"result":158,"points":2,"place":1,"phase":1,"sequence":43,"prices":[158,175,186,209,177,181,188,167,208,154],"times":[4159],"next_num":1,"trial_type":"ticket-choose","trial_index":116,"time_elapsed":1239627,"internal_node_id":"0.0-116.0"},{"result":167,"points":2,"place":1,"phase":1,"sequence":44,"prices":[178,174,186,217,167,181,188,168,208,156],"times":[746,574,543,518,879],"next_num":5,"trial_type":"ticket-choose","trial_index":117,"time_elapsed":1245498,"internal_node_id":"0.0-117.0"},{"result":165,"points":2,"place":1,"phase":1,"sequence":45,"prices":[165,175,187,209,177,180,188,167,154,208],"times":[1145],"next_num":1,"trial_type":"ticket-choose","trial_index":118,"time_elapsed":1248442,"internal_node_id":"0.0-118.0"},{"result":158,"points":2,"place":1,"phase":1,"sequence":46,"prices":[177,175,186,221,158,180,187,166,209,153],"times":[887,486,592,549,1672],"next_num":5,"trial_type":"ticket-choose","trial_index":119,"time_elapsed":1255491,"internal_node_id":"0.0-119.0"},{"result":163,"points":2,"place":1,"phase":1,"sequence":47,"prices":[163,174,186,212,176,181,187,166,153,209],"times":[1012],"next_num":1,"trial_type":"ticket-choose","trial_index":120,"time_elapsed":1258283,"internal_node_id":"0.0-120.0"},{"result":163,"points":2,"place":1,"phase":1,"sequence":48,"prices":[163,175,186,214,176,179,187,166,153,208],"times":[8048],"next_num":1,"trial_type":"ticket-choose","trial_index":121,"time_elapsed":1268467,"internal_node_id":"0.0-121.0"},{"result":158,"points":2,"place":1,"phase":1,"sequence":49,"prices":[177,176,187,225,158,181,187,165,208,153],"times":[1062,614,534,567,935],"next_num":5,"trial_type":"ticket-choose","trial_index":122,"time_elapsed":1275035,"internal_node_id":"0.0-122.0"},{"responses":[{"value":0,"offby":-1,"category":"$115 - $130","category_index":0},{"value":2,"offby":-3,"category":"$131 - $145","category_index":1},{"value":8,"offby":-4,"category":"$146 - $160","category_index":2},{"value":26,"offby":4,"category":"$161 - $175","category_index":3},{"value":38,"offby":4,"category":"$176 - $190","category_index":4},{"value":20,"offby":5,"category":"$191 - $205","category_index":5},{"value":6,"offby":-5,"category":"$206 - $220","category_index":6}],"phase":1,"number":1,"trial_type":"bar-choose","trial_index":123,"time_elapsed":1311165,"internal_node_id":"0.0-123.0"},{"special_comment":"Perhaps the cheaper tickets came from similar airlines?","trial_type":"special_sequence","trial_index":124,"time_elapsed":1325469,"internal_node_id":"0.0-124.0"},{"during":"Nothing","bonus":280,"trial_type":"final","trial_index":125,"time_elapsed":1357792,"internal_node_id":"0.0-125.0"}],"bonus":280}