{"start_time":"2017-05-23 13:19:48","end_time":"2017-05-23 13:50:52","points_phase0":97,"points_phase1":102,"phase_order":1,"age":60,"gender":"m","tries":1,"during":"Nothing","worker_id":"A2WCXJZEXXR60A","assignment_id":"3G5W44VEU8BSWCSXKVCC21IHC95KGG","data":[{"rt":11265,"url":"\/christiane\/tickets\/utils\/consent.html","trial_type":"html","trial_index":0,"time_elapsed":11824,"internal_node_id":"0.0-0.0"},{"age":60,"gender":"m","trial_type":"age","trial_index":1,"time_elapsed":17985,"internal_node_id":"0.0-1.0"},{"worker_id":"A2WCXJZEXXR60A","trial_type":"workerid","trial_index":2,"time_elapsed":34231,"internal_node_id":"0.0-2.0"},{"tries":1,"trial_type":"instructions_check","trial_index":3,"time_elapsed":65069,"internal_node_id":"0.0-3.0"},{"rt":50394,"url":"\/christiane\/tickets\/utils\/start.html","trial_type":"html","trial_index":4,"time_elapsed":117025,"internal_node_id":"0.0-4.0"},{"trial_type":"number-animation","trial_index":5,"time_elapsed":185624,"internal_node_id":"0.0-5.0"},{"phase":0,"sequence":0,"avg":181,"response":180,"trial_type":"training_avg","trial_index":6,"time_elapsed":199849,"internal_node_id":"0.0-6.0"},{"trial_type":"number-animation","trial_index":7,"time_elapsed":253512,"internal_node_id":"0.0-7.0"},{"phase":0,"sequence":1,"avg":188,"response":185,"trial_type":"training_avg","trial_index":8,"time_elapsed":262564,"internal_node_id":"0.0-8.0"},{"trial_type":"number-animation","trial_index":9,"time_elapsed":331090,"internal_node_id":"0.0-9.0"},{"phase":0,"sequence":2,"avg":188,"response":188,"trial_type":"training_avg","trial_index":10,"time_elapsed":339888,"internal_node_id":"0.0-10.0"},{"trial_type":"number-animation","trial_index":11,"time_elapsed":386900,"internal_node_id":"0.0-11.0"},{"phase":0,"sequence":3,"avg":177,"response":177,"trial_type":"training_avg","trial_index":12,"time_elapsed":396118,"internal_node_id":"0.0-12.0"},{"trial_type":"number-animation","trial_index":13,"time_elapsed":441222,"internal_node_id":"0.0-13.0"},{"phase":0,"sequence":4,"avg":182,"response":182,"trial_type":"training_avg","trial_index":14,"time_elapsed":452077,"internal_node_id":"0.0-14.0"},{"responses":[{"value":1,"offby":0,"category":"$115 - $130","category_index":0},{"value":6,"offby":1,"category":"$131 - $145","category_index":1},{"value":8,"offby":-4,"category":"$146 - $160","category_index":2},{"value":10,"offby":-12,"category":"$161 - $175","category_index":3},{"value":50,"offby":16,"category":"$176 - $190","category_index":4},{"value":15,"offby":0,"category":"$191 - $205","category_index":5},{"value":7,"offby":-4,"category":"$206 - $220","category_index":6},{"value":3,"offby":null,"category":"$201 - $210","category_index":7}],"phase":0,"number":0,"trial_type":"bar-choose","trial_index":15,"time_elapsed":585981,"internal_node_id":"0.0-15.0"},{"rt":16604,"url":"\/christiane\/tickets\/utils\/testing.html","trial_type":"html","trial_index":16,"time_elapsed":604149,"internal_node_id":"0.0-16.0"},{"phase":0,"order":[23,39,2,10,20,12,40,41,35,43,1,6,17,30,8,13,33,24,14,37,32,21,31,11,28,47,22,16,18,27,46,44,4,25,26,19,15,5,9,0,48,49,42,36,45,34,3,7,29,38],"trial_type":"store_order","trial_index":17,"time_elapsed":605150,"internal_node_id":"0.0-17.0"},{"result":165,"points":2,"place":1,"phase":0,"sequence":-1,"prices":[184,180,224,165,181,199,185,193,218,146],"times":[4118,987,840,1441],"next_num":4,"trial_type":"ticket-choose","trial_index":18,"time_elapsed":617081,"internal_node_id":"0.0-18.0"},{"rt":25531,"url":"\/christiane\/tickets\/utils\/testing_after.html","trial_type":"html","trial_index":19,"time_elapsed":644174,"internal_node_id":"0.0-19.0"},{"result":169,"points":2,"place":1,"phase":0,"sequence":0,"prices":[181,214,169,147,182,193,178,184,176,179],"times":[2671,877,1314],"next_num":3,"trial_type":"ticket-choose","trial_index":20,"time_elapsed":653420,"internal_node_id":"0.0-20.0"},{"result":159,"points":1,"place":2,"phase":0,"sequence":1,"prices":[181,159,149,175,185,151,163,174,178,207],"times":[1333,1291],"next_num":2,"trial_type":"ticket-choose","trial_index":21,"time_elapsed":659890,"internal_node_id":"0.0-21.0"},{"result":163,"points":2,"place":1,"phase":0,"sequence":2,"prices":[163,174,186,212,176,181,187,166,153,209],"times":[1676],"next_num":1,"trial_type":"ticket-choose","trial_index":22,"time_elapsed":665304,"internal_node_id":"0.0-22.0"},{"result":152,"points":3,"place":0,"phase":0,"sequence":3,"prices":[200,180,203,152,175,170,160,154,176,191],"times":[1227,766,714,1244],"next_num":4,"trial_type":"ticket-choose","trial_index":23,"time_elapsed":673904,"internal_node_id":"0.0-23.0"},{"result":163,"points":2,"place":1,"phase":0,"sequence":4,"prices":[174,186,176,217,163,181,187,166,153,209],"times":[1874,719,816,727,1517],"next_num":5,"trial_type":"ticket-choose","trial_index":24,"time_elapsed":683480,"internal_node_id":"0.0-24.0"},{"result":167,"points":2,"place":1,"phase":0,"sequence":5,"prices":[167,175,185,224,178,181,186,168,208,156],"times":[1955],"next_num":1,"trial_type":"ticket-choose","trial_index":25,"time_elapsed":688514,"internal_node_id":"0.0-25.0"},{"result":158,"points":2,"place":1,"phase":0,"sequence":6,"prices":[158,175,186,211,177,180,187,166,209,153],"times":[1459],"next_num":1,"trial_type":"ticket-choose","trial_index":26,"time_elapsed":692968,"internal_node_id":"0.0-26.0"},{"result":165,"points":1,"place":2,"phase":0,"sequence":7,"prices":[175,187,176,209,163,180,188,165,154,208],"times":[2055,665,690,685,1340,711,629,1297],"next_num":8,"trial_type":"ticket-choose","trial_index":27,"time_elapsed":705379,"internal_node_id":"0.0-27.0"},{"result":163,"points":3,"place":0,"phase":0,"sequence":8,"prices":[163,199,196,199,185,195,227,163,177,166],"times":[1730],"next_num":1,"trial_type":"ticket-choose","trial_index":28,"time_elapsed":711034,"internal_node_id":"0.0-28.0"},{"result":167,"points":2,"place":1,"phase":0,"sequence":9,"prices":[178,174,186,217,167,181,188,168,208,156],"times":[2230,1043,784,693,1283],"next_num":5,"trial_type":"ticket-choose","trial_index":29,"time_elapsed":720868,"internal_node_id":"0.0-29.0"},{"result":167,"points":2,"place":1,"phase":0,"sequence":10,"prices":[178,175,186,212,167,179,187,169,209,153],"times":[2954,702,742,660,1271],"next_num":5,"trial_type":"ticket-choose","trial_index":30,"time_elapsed":730905,"internal_node_id":"0.0-30.0"},{"result":165,"points":1,"place":2,"phase":0,"sequence":11,"prices":[185,179,191,165,161,173,199,150,188,168],"times":[1921,701,720,1140],"next_num":4,"trial_type":"ticket-choose","trial_index":31,"time_elapsed":738761,"internal_node_id":"0.0-31.0"},{"result":163,"points":1,"place":2,"phase":0,"sequence":12,"prices":[173,163,185,181,166,148,160,185,176,184],"times":[1416,1121],"next_num":2,"trial_type":"ticket-choose","trial_index":32,"time_elapsed":743959,"internal_node_id":"0.0-32.0"},{"result":165,"points":2,"place":1,"phase":0,"sequence":13,"prices":[193,174,224,165,187,190,224,161,194,195],"times":[1155,641,655,1366],"next_num":4,"trial_type":"ticket-choose","trial_index":33,"time_elapsed":751306,"internal_node_id":"0.0-33.0"},{"result":169,"points":1,"place":3,"phase":0,"sequence":14,"prices":[200,173,182,169,207,165,152,202,161,204],"times":[5862,709,704,1342],"next_num":4,"trial_type":"ticket-choose","trial_index":34,"time_elapsed":763471,"internal_node_id":"0.0-34.0"},{"result":167,"points":2,"place":1,"phase":0,"sequence":15,"prices":[189,167,180,197,165,168,172,213,178,171],"times":[1247,1915],"next_num":2,"trial_type":"ticket-choose","trial_index":35,"time_elapsed":771676,"internal_node_id":"0.0-35.0"},{"result":165,"points":3,"place":0,"phase":0,"sequence":16,"prices":[193,181,175,181,185,165,224,199,218,184],"times":[2460,754,702,758,710,1239],"next_num":6,"trial_type":"ticket-choose","trial_index":36,"time_elapsed":794831,"internal_node_id":"0.0-36.0"},{"result":169,"points":1,"place":3,"phase":0,"sequence":17,"prices":[199,193,169,165,202,182,151,164,176,171],"times":[1546,1315,1510],"next_num":3,"trial_type":"ticket-choose","trial_index":37,"time_elapsed":802443,"internal_node_id":"0.0-37.0"},{"result":165,"points":3,"place":0,"phase":0,"sequence":18,"prices":[192,172,171,178,188,165,217,168,195,197],"times":[1418,644,772,816,680,1344],"next_num":6,"trial_type":"ticket-choose","trial_index":38,"time_elapsed":812949,"internal_node_id":"0.0-38.0"},{"result":158,"points":2,"place":1,"phase":0,"sequence":19,"prices":[177,175,186,209,158,181,188,167,208,154],"times":[1152,624,648,634,1242],"next_num":5,"trial_type":"ticket-choose","trial_index":39,"time_elapsed":821070,"internal_node_id":"0.0-39.0"},{"result":163,"points":2,"place":1,"phase":0,"sequence":20,"prices":[176,175,186,210,163,179,187,166,153,208],"times":[1128,800,740,654,1271],"next_num":5,"trial_type":"ticket-choose","trial_index":40,"time_elapsed":829202,"internal_node_id":"0.0-40.0"},{"result":208,"points":0,"place":6,"phase":0,"sequence":21,"prices":[214,184,226,192,215,158,199,175,176,208],"times":[2084,683,691,668,676,602,1076,664,635,673],"next_num":11,"trial_type":"ticket-choose","trial_index":41,"time_elapsed":842518,"internal_node_id":"0.0-41.0"},{"result":165,"points":2,"place":1,"phase":0,"sequence":22,"prices":[177,175,186,210,165,179,187,166,153,208],"times":[1256,695,703,691,1258],"next_num":5,"trial_type":"ticket-choose","trial_index":42,"time_elapsed":850992,"internal_node_id":"0.0-42.0"},{"result":158,"points":2,"place":1,"phase":0,"sequence":23,"prices":[177,176,187,225,158,181,187,165,208,153],"times":[1558,845,739,771,1222],"next_num":5,"trial_type":"ticket-choose","trial_index":43,"time_elapsed":859574,"internal_node_id":"0.0-43.0"},{"result":165,"points":2,"place":1,"phase":0,"sequence":24,"prices":[165,175,187,209,177,180,188,167,154,208],"times":[1346],"next_num":1,"trial_type":"ticket-choose","trial_index":44,"time_elapsed":863458,"internal_node_id":"0.0-44.0"},{"result":169,"points":0,"place":5,"phase":0,"sequence":25,"prices":[171,169,186,165,163,167,220,148,187,165],"times":[1189,1323],"next_num":2,"trial_type":"ticket-choose","trial_index":45,"time_elapsed":869008,"internal_node_id":"0.0-45.0"},{"result":157,"points":3,"place":0,"phase":0,"sequence":26,"prices":[201,187,157,184,198,179,188,185,178,170],"times":[979,587,1356],"next_num":3,"trial_type":"ticket-choose","trial_index":46,"time_elapsed":875078,"internal_node_id":"0.0-46.0"},{"result":158,"points":2,"place":1,"phase":0,"sequence":27,"prices":[177,175,186,221,158,180,187,166,209,153],"times":[1639,668,713,593,1440],"next_num":5,"trial_type":"ticket-choose","trial_index":47,"time_elapsed":883844,"internal_node_id":"0.0-47.0"},{"result":167,"points":2,"place":1,"phase":0,"sequence":28,"prices":[167,175,186,225,178,179,187,169,209,153],"times":[2713],"next_num":1,"trial_type":"ticket-choose","trial_index":48,"time_elapsed":889024,"internal_node_id":"0.0-48.0"},{"result":163,"points":2,"place":1,"phase":0,"sequence":29,"prices":[163,175,187,209,176,180,188,165,154,208],"times":[1265],"next_num":1,"trial_type":"ticket-choose","trial_index":49,"time_elapsed":892640,"internal_node_id":"0.0-49.0"},{"result":163,"points":2,"place":1,"phase":0,"sequence":30,"prices":[163,175,186,214,176,179,187,166,153,208],"times":[1217],"next_num":1,"trial_type":"ticket-choose","trial_index":50,"time_elapsed":896388,"internal_node_id":"0.0-50.0"},{"result":165,"points":2,"place":1,"phase":0,"sequence":31,"prices":[191,170,182,165,175,182,203,157,195,200],"times":[1264,660,668,1135],"next_num":4,"trial_type":"ticket-choose","trial_index":51,"time_elapsed":903362,"internal_node_id":"0.0-51.0"},{"result":165,"points":3,"place":0,"phase":0,"sequence":32,"prices":[196,171,170,184,187,165,211,169,201,202],"times":[1323,830,690,718,730,1270],"next_num":6,"trial_type":"ticket-choose","trial_index":52,"time_elapsed":913212,"internal_node_id":"0.0-52.0"},{"result":165,"points":2,"place":1,"phase":0,"sequence":33,"prices":[187,201,165,172,196,174,178,154,172,180],"times":[1293,673,1352],"next_num":3,"trial_type":"ticket-choose","trial_index":53,"time_elapsed":919894,"internal_node_id":"0.0-53.0"},{"result":166,"points":1,"place":3,"phase":0,"sequence":34,"prices":[201,204,179,166,185,165,214,156,202,165],"times":[1353,735,825,1449],"next_num":4,"trial_type":"ticket-choose","trial_index":54,"time_elapsed":927488,"internal_node_id":"0.0-54.0"},{"result":155,"points":2,"place":1,"phase":0,"sequence":35,"prices":[200,207,155,158,156,168,167,135,178,177],"times":[1332,692,1436],"next_num":3,"trial_type":"ticket-choose","trial_index":55,"time_elapsed":933892,"internal_node_id":"0.0-55.0"},{"result":156,"points":2,"place":1,"phase":0,"sequence":36,"prices":[180,156,149,160,168,186,172,198,176,195],"times":[1013,1244],"next_num":2,"trial_type":"ticket-choose","trial_index":56,"time_elapsed":939102,"internal_node_id":"0.0-56.0"},{"result":165,"points":2,"place":1,"phase":0,"sequence":37,"prices":[177,175,187,209,165,180,188,165,154,208],"times":[1198,646,669,648,1266],"next_num":5,"trial_type":"ticket-choose","trial_index":57,"time_elapsed":946798,"internal_node_id":"0.0-57.0"},{"result":158,"points":2,"place":1,"phase":0,"sequence":38,"prices":[158,175,186,209,177,181,188,167,208,154],"times":[1793],"next_num":1,"trial_type":"ticket-choose","trial_index":58,"time_elapsed":951283,"internal_node_id":"0.0-58.0"},{"result":165,"points":2,"place":1,"phase":0,"sequence":39,"prices":[165,175,186,214,177,179,187,166,153,208],"times":[1123],"next_num":1,"trial_type":"ticket-choose","trial_index":59,"time_elapsed":955112,"internal_node_id":"0.0-59.0"},{"result":150,"points":3,"place":0,"phase":0,"sequence":40,"prices":[190,150,175,161,188,207,157,194,178,199],"times":[1143,1132],"next_num":2,"trial_type":"ticket-choose","trial_index":60,"time_elapsed":959876,"internal_node_id":"0.0-60.0"},{"result":165,"points":2,"place":1,"phase":0,"sequence":41,"prices":[177,174,186,217,165,181,187,166,153,209],"times":[1059,622,734,633,1507],"next_num":5,"trial_type":"ticket-choose","trial_index":61,"time_elapsed":968266,"internal_node_id":"0.0-61.0"},{"result":165,"points":2,"place":1,"phase":0,"sequence":42,"prices":[165,174,186,212,177,181,187,166,153,209],"times":[1392],"next_num":1,"trial_type":"ticket-choose","trial_index":62,"time_elapsed":971908,"internal_node_id":"0.0-62.0"},{"result":167,"points":2,"place":1,"phase":0,"sequence":43,"prices":[167,174,186,211,178,181,188,168,208,156],"times":[1931],"next_num":1,"trial_type":"ticket-choose","trial_index":63,"time_elapsed":976432,"internal_node_id":"0.0-63.0"},{"result":167,"points":1,"place":2,"phase":0,"sequence":44,"prices":[167,153,172,185,195,143,184,211,177,227],"times":[1932],"next_num":1,"trial_type":"ticket-choose","trial_index":64,"time_elapsed":982200,"internal_node_id":"0.0-64.0"},{"result":158,"points":2,"place":1,"phase":0,"sequence":45,"prices":[158,176,187,210,177,181,187,165,208,153],"times":[1426],"next_num":1,"trial_type":"ticket-choose","trial_index":65,"time_elapsed":986082,"internal_node_id":"0.0-65.0"},{"result":165,"points":2,"place":1,"phase":0,"sequence":46,"prices":[183,179,188,165,168,173,205,159,187,191],"times":[1534,637,625,1254],"next_num":4,"trial_type":"ticket-choose","trial_index":66,"time_elapsed":993396,"internal_node_id":"0.0-66.0"},{"result":164,"points":3,"place":0,"phase":0,"sequence":47,"prices":[199,191,188,174,167,193,189,164,176,170],"times":[2218,653,642,671,874,1015,629,1422],"next_num":8,"trial_type":"ticket-choose","trial_index":67,"time_elapsed":1006358,"internal_node_id":"0.0-67.0"},{"result":169,"points":3,"place":0,"phase":0,"sequence":48,"prices":[220,173,201,197,169,205,198,183,178,186],"times":[1227,829,699,702,1221],"next_num":5,"trial_type":"ticket-choose","trial_index":68,"time_elapsed":1015098,"internal_node_id":"0.0-68.0"},{"result":167,"points":2,"place":1,"phase":0,"sequence":49,"prices":[178,175,185,215,167,181,186,168,208,156],"times":[1894,711,649,678,1134],"next_num":5,"trial_type":"ticket-choose","trial_index":69,"time_elapsed":1024182,"internal_node_id":"0.0-69.0"},{"responses":[{"value":0,"offby":-1,"category":"$115 - $130","category_index":0},{"value":0,"offby":-5,"category":"$131 - $145","category_index":1},{"value":7,"offby":-5,"category":"$146 - $160","category_index":2},{"value":12,"offby":-10,"category":"$161 - $175","category_index":3},{"value":62,"offby":28,"category":"$176 - $190","category_index":4},{"value":12,"offby":-3,"category":"$191 - $205","category_index":5},{"value":7,"offby":-4,"category":"$206 - $220","category_index":6},{"value":0,"offby":null,"category":"$201 - $210","category_index":7}],"phase":1,"number":1,"trial_type":"bar-choose","trial_index":70,"time_elapsed":1112393,"internal_node_id":"0.0-70.0"},{"rt":187378,"url":"\/christiane\/tickets\/utils\/testing2.html","trial_type":"point_update","trial_index":71,"time_elapsed":1301682,"internal_node_id":"0.0-71.0"},{"phase":1,"order":[48,44,14,47,17,1,18,16,38,3,5,29,49,32,26,39,24,37,27,22,15,46,9,23,7,31,43,21,2,13,12,30,28,36,25,41,34,10,19,6,40,11,8,0,35,20,33,45,42,4],"trial_type":"store_order","trial_index":72,"time_elapsed":1302684,"internal_node_id":"0.0-72.0"},{"result":158,"points":2,"place":1,"phase":1,"sequence":0,"prices":[176,187,177,225,181,187,158,165,208,153],"times":[1985,672,640,694,785,669,1545],"next_num":7,"trial_type":"ticket-choose","trial_index":73,"time_elapsed":1313763,"internal_node_id":"0.0-73.0"},{"result":167,"points":2,"place":1,"phase":1,"sequence":1,"prices":[189,167,180,197,165,168,172,213,178,171],"times":[1822,3054],"next_num":2,"trial_type":"ticket-choose","trial_index":74,"time_elapsed":1321369,"internal_node_id":"0.0-74.0"},{"result":167,"points":2,"place":1,"phase":1,"sequence":2,"prices":[175,186,167,225,179,187,178,169,209,153],"times":[1217,652,1099],"next_num":3,"trial_type":"ticket-choose","trial_index":75,"time_elapsed":1327230,"internal_node_id":"0.0-75.0"},{"result":165,"points":2,"place":1,"phase":1,"sequence":3,"prices":[175,187,177,209,180,188,165,165,154,208],"times":[1338,598,629,656,590,606,1172],"next_num":7,"trial_type":"ticket-choose","trial_index":76,"time_elapsed":1336403,"internal_node_id":"0.0-76.0"},{"result":158,"points":2,"place":1,"phase":1,"sequence":4,"prices":[176,187,158,210,181,187,177,165,208,153],"times":[966,609,1247],"next_num":3,"trial_type":"ticket-choose","trial_index":77,"time_elapsed":1342509,"internal_node_id":"0.0-77.0"},{"result":163,"points":2,"place":1,"phase":1,"sequence":5,"prices":[175,186,163,214,179,187,176,166,153,208],"times":[2103,730,1316],"next_num":3,"trial_type":"ticket-choose","trial_index":78,"time_elapsed":1349783,"internal_node_id":"0.0-78.0"},{"result":150,"points":3,"place":0,"phase":1,"sequence":6,"prices":[189,150,175,160,188,207,158,194,178,199],"times":[1775,1320],"next_num":2,"trial_type":"ticket-choose","trial_index":79,"time_elapsed":1355705,"internal_node_id":"0.0-79.0"},{"result":155,"points":2,"place":1,"phase":1,"sequence":7,"prices":[201,207,155,158,156,165,167,135,178,177],"times":[1009,659,1246],"next_num":3,"trial_type":"ticket-choose","trial_index":80,"time_elapsed":1361865,"internal_node_id":"0.0-80.0"},{"result":168,"points":1,"place":2,"phase":1,"sequence":8,"prices":[168,154,172,185,195,144,184,211,177,227],"times":[1966],"next_num":1,"trial_type":"ticket-choose","trial_index":81,"time_elapsed":1366439,"internal_node_id":"0.0-81.0"},{"result":157,"points":3,"place":0,"phase":1,"sequence":9,"prices":[201,187,157,184,198,179,188,185,178,170],"times":[1327,652,1216],"next_num":3,"trial_type":"ticket-choose","trial_index":82,"time_elapsed":1372923,"internal_node_id":"0.0-82.0"},{"result":167,"points":2,"place":1,"phase":1,"sequence":10,"prices":[175,185,167,224,181,186,178,168,208,156],"times":[3072,635,1180],"next_num":3,"trial_type":"ticket-choose","trial_index":83,"time_elapsed":1380828,"internal_node_id":"0.0-83.0"},{"result":165,"points":2,"place":1,"phase":1,"sequence":11,"prices":[175,186,165,214,179,187,177,166,153,208],"times":[1358,677,1266],"next_num":3,"trial_type":"ticket-choose","trial_index":84,"time_elapsed":1387125,"internal_node_id":"0.0-84.0"},{"result":163,"points":2,"place":1,"phase":1,"sequence":12,"prices":[174,186,176,217,181,187,163,166,153,209],"times":[1210,695,627,699,782,665,1402],"next_num":7,"trial_type":"ticket-choose","trial_index":85,"time_elapsed":1397367,"internal_node_id":"0.0-85.0"},{"result":169,"points":2,"place":1,"phase":1,"sequence":13,"prices":[191,172,169,175,182,203,170,195,165,176],"times":[1211,693,1139],"next_num":3,"trial_type":"ticket-choose","trial_index":86,"time_elapsed":1403489,"internal_node_id":"0.0-86.0"},{"result":165,"points":2,"place":1,"phase":1,"sequence":14,"prices":[174,186,165,212,181,187,177,167,153,209],"times":[1116,762,1332],"next_num":3,"trial_type":"ticket-choose","trial_index":87,"time_elapsed":1411937,"internal_node_id":"0.0-87.0"},{"result":163,"points":2,"place":1,"phase":1,"sequence":15,"prices":[175,187,163,209,180,188,176,165,154,208],"times":[1626,662,1195],"next_num":3,"trial_type":"ticket-choose","trial_index":88,"time_elapsed":1418223,"internal_node_id":"0.0-88.0"},{"result":168,"points":1,"place":2,"phase":1,"sequence":16,"prices":[183,182,192,168,173,205,167,187,165,170],"times":[1387,657,636,1205],"next_num":4,"trial_type":"ticket-choose","trial_index":89,"time_elapsed":1425290,"internal_node_id":"0.0-89.0"},{"result":165,"points":3,"place":0,"phase":1,"sequence":17,"prices":[193,165,175,181,185,224,180,199,218,184],"times":[1107,1164],"next_num":2,"trial_type":"ticket-choose","trial_index":90,"time_elapsed":1430614,"internal_node_id":"0.0-90.0"},{"result":163,"points":2,"place":1,"phase":1,"sequence":18,"prices":[174,186,163,212,181,187,176,166,153,209],"times":[1159,671,1114],"next_num":3,"trial_type":"ticket-choose","trial_index":91,"time_elapsed":1436590,"internal_node_id":"0.0-91.0"},{"result":169,"points":1,"place":3,"phase":1,"sequence":19,"prices":[198,193,169,163,202,182,152,164,177,171],"times":[1580,672,1600],"next_num":3,"trial_type":"ticket-choose","trial_index":92,"time_elapsed":1444568,"internal_node_id":"0.0-92.0"},{"result":169,"points":2,"place":1,"phase":1,"sequence":20,"prices":[193,169,171,187,190,224,174,194,165,188],"times":[1467,1346],"next_num":2,"trial_type":"ticket-choose","trial_index":93,"time_elapsed":1450370,"internal_node_id":"0.0-93.0"},{"result":158,"points":2,"place":1,"phase":1,"sequence":21,"prices":[175,186,177,221,180,187,158,166,209,153],"times":[1162,698,598,644,634,602,1230],"next_num":7,"trial_type":"ticket-choose","trial_index":94,"time_elapsed":1459834,"internal_node_id":"0.0-94.0"},{"result":167,"points":1,"place":2,"phase":1,"sequence":22,"prices":[171,203,175,170,167,220,192,186,165,165],"times":[1154,703,744,1130,1290],"next_num":5,"trial_type":"ticket-choose","trial_index":95,"time_elapsed":1468550,"internal_node_id":"0.0-95.0"},{"result":165,"points":2,"place":1,"phase":1,"sequence":23,"prices":[174,186,177,217,181,187,165,166,153,209],"times":[1245,678,696,723,702,668,1345],"next_num":7,"trial_type":"ticket-choose","trial_index":96,"time_elapsed":1478292,"internal_node_id":"0.0-96.0"},{"result":165,"points":3,"place":0,"phase":1,"sequence":24,"prices":[196,165,170,184,187,211,171,201,202,185],"times":[2795,1486],"next_num":2,"trial_type":"ticket-choose","trial_index":97,"time_elapsed":1548234,"internal_node_id":"0.0-97.0"},{"result":152,"points":3,"place":0,"phase":1,"sequence":25,"prices":[200,181,203,152,175,171,160,154,176,191],"times":[1022,718,635,1192],"next_num":4,"trial_type":"ticket-choose","trial_index":98,"time_elapsed":1554852,"internal_node_id":"0.0-98.0"},{"result":158,"points":2,"place":1,"phase":1,"sequence":26,"prices":[175,186,177,209,181,188,158,167,208,154],"times":[1065,674,654,705,656,627,1481],"next_num":7,"trial_type":"ticket-choose","trial_index":99,"time_elapsed":1564781,"internal_node_id":"0.0-99.0"},{"result":163,"points":2,"place":1,"phase":1,"sequence":27,"prices":[175,187,176,209,180,188,163,165,154,208],"times":[994,614,659,644,677,668,1350],"next_num":7,"trial_type":"ticket-choose","trial_index":100,"time_elapsed":1574282,"internal_node_id":"0.0-100.0"},{"result":158,"points":2,"place":1,"phase":1,"sequence":28,"prices":[175,186,158,211,180,187,177,166,209,153],"times":[1574,1659,1209],"next_num":3,"trial_type":"ticket-choose","trial_index":101,"time_elapsed":1581652,"internal_node_id":"0.0-101.0"},{"result":165,"points":3,"place":0,"phase":1,"sequence":29,"prices":[192,165,171,178,188,217,172,195,197,186],"times":[1000,1395],"next_num":2,"trial_type":"ticket-choose","trial_index":102,"time_elapsed":1591529,"internal_node_id":"0.0-102.0"},{"result":158,"points":3,"place":0,"phase":1,"sequence":30,"prices":[210,184,226,193,215,158,199,175,176,208],"times":[1526,748,640,752,682,1358],"next_num":6,"trial_type":"ticket-choose","trial_index":103,"time_elapsed":1601057,"internal_node_id":"0.0-103.0"},{"result":159,"points":1,"place":2,"phase":1,"sequence":31,"prices":[180,159,149,175,185,141,163,174,178,207],"times":[964,1160],"next_num":2,"trial_type":"ticket-choose","trial_index":104,"time_elapsed":1605954,"internal_node_id":"0.0-104.0"},{"result":167,"points":2,"place":1,"phase":1,"sequence":32,"prices":[175,185,178,215,181,186,167,168,208,156],"times":[1246,683,970,691,668,702,3094],"next_num":7,"trial_type":"ticket-choose","trial_index":105,"time_elapsed":1617948,"internal_node_id":"0.0-105.0"},{"result":165,"points":2,"place":1,"phase":1,"sequence":33,"prices":[201,165,162,166,185,214,165,202,204,179],"times":[1833,1320],"next_num":2,"trial_type":"ticket-choose","trial_index":106,"time_elapsed":1623738,"internal_node_id":"0.0-106.0"},{"result":165,"points":2,"place":1,"phase":1,"sequence":34,"prices":[200,165,165,173,182,207,161,202,204,180],"times":[963,1130],"next_num":2,"trial_type":"ticket-choose","trial_index":107,"time_elapsed":1628732,"internal_node_id":"0.0-107.0"},{"result":158,"points":2,"place":1,"phase":1,"sequence":35,"prices":[175,186,158,209,181,188,177,167,208,154],"times":[1070,732,1108],"next_num":3,"trial_type":"ticket-choose","trial_index":108,"time_elapsed":1634792,"internal_node_id":"0.0-108.0"},{"result":163,"points":2,"place":1,"phase":1,"sequence":36,"prices":[175,186,176,210,179,187,163,166,153,208],"times":[1233,752,776,680,646,667,1137],"next_num":7,"trial_type":"ticket-choose","trial_index":109,"time_elapsed":1644376,"internal_node_id":"0.0-109.0"},{"result":167,"points":2,"place":1,"phase":1,"sequence":37,"prices":[175,186,178,212,179,187,167,169,209,153],"times":[1422,684,616,685,710,718,1177],"next_num":7,"trial_type":"ticket-choose","trial_index":110,"time_elapsed":1654302,"internal_node_id":"0.0-110.0"},{"result":165,"points":2,"place":1,"phase":1,"sequence":38,"prices":[175,186,177,210,179,187,165,166,153,208],"times":[1287,994,761,929,716,712,1089],"next_num":7,"trial_type":"ticket-choose","trial_index":111,"time_elapsed":1664452,"internal_node_id":"0.0-111.0"},{"result":167,"points":2,"place":1,"phase":1,"sequence":39,"prices":[174,186,167,211,181,188,178,168,208,156],"times":[3928,848,1510],"next_num":3,"trial_type":"ticket-choose","trial_index":112,"time_elapsed":1673582,"internal_node_id":"0.0-112.0"},{"result":169,"points":2,"place":1,"phase":1,"sequence":40,"prices":[181,215,169,147,182,193,177,184,176,179],"times":[1240,660,1295],"next_num":3,"trial_type":"ticket-choose","trial_index":113,"time_elapsed":1679732,"internal_node_id":"0.0-113.0"},{"result":163,"points":1,"place":2,"phase":1,"sequence":41,"prices":[183,163,185,180,166,148,160,186,176,184],"times":[1046,1316],"next_num":2,"trial_type":"ticket-choose","trial_index":114,"time_elapsed":1684612,"internal_node_id":"0.0-114.0"},{"result":143,"points":3,"place":0,"phase":1,"sequence":42,"prices":[222,173,202,197,143,205,198,183,178,186],"times":[971,958,661,689,2840],"next_num":5,"trial_type":"ticket-choose","trial_index":115,"time_elapsed":1694806,"internal_node_id":"0.0-115.0"},{"result":165,"points":2,"place":1,"phase":1,"sequence":43,"prices":[188,200,165,172,198,174,177,154,177,180],"times":[939,803,1189],"next_num":3,"trial_type":"ticket-choose","trial_index":116,"time_elapsed":1700538,"internal_node_id":"0.0-116.0"},{"result":167,"points":2,"place":1,"phase":1,"sequence":44,"prices":[212,192,188,184,167,193,189,164,176,170],"times":[2176,686,712,737,1460],"next_num":5,"trial_type":"ticket-choose","trial_index":117,"time_elapsed":1709726,"internal_node_id":"0.0-117.0"},{"result":155,"points":2,"place":1,"phase":1,"sequence":45,"prices":[181,155,148,161,168,187,172,199,176,194],"times":[1003,1332],"next_num":2,"trial_type":"ticket-choose","trial_index":118,"time_elapsed":1714966,"internal_node_id":"0.0-118.0"},{"result":167,"points":2,"place":1,"phase":1,"sequence":46,"prices":[174,186,178,217,181,188,167,168,208,156],"times":[1609,753,825,718,731,701,1152],"next_num":7,"trial_type":"ticket-choose","trial_index":119,"time_elapsed":1725296,"internal_node_id":"0.0-119.0"},{"result":165,"points":2,"place":1,"phase":1,"sequence":47,"prices":[175,187,165,209,180,188,177,166,154,208],"times":[1449,730,1103],"next_num":3,"trial_type":"ticket-choose","trial_index":120,"time_elapsed":1731492,"internal_node_id":"0.0-120.0"},{"result":165,"points":3,"place":0,"phase":1,"sequence":48,"prices":[185,170,182,201,173,199,171,188,165,168],"times":[1438,1362,648,664,854,669,1022,711,1200],"next_num":9,"trial_type":"ticket-choose","trial_index":121,"time_elapsed":1745540,"internal_node_id":"0.0-121.0"},{"result":168,"points":1,"place":2,"phase":1,"sequence":49,"prices":[168,199,196,198,185,195,227,163,177,166],"times":[1501],"next_num":1,"trial_type":"ticket-choose","trial_index":122,"time_elapsed":1749556,"internal_node_id":"0.0-122.0"},{"responses":[{"value":0,"offby":-1,"category":"$115 - $130","category_index":0},{"value":2,"offby":-3,"category":"$131 - $145","category_index":1},{"value":5,"offby":-7,"category":"$146 - $160","category_index":2},{"value":12,"offby":-10,"category":"$161 - $175","category_index":3},{"value":64,"offby":30,"category":"$176 - $190","category_index":4},{"value":12,"offby":-3,"category":"$191 - $205","category_index":5},{"value":5,"offby":-6,"category":"$206 - $220","category_index":6},{"value":0,"offby":null,"category":"$201 - $210","category_index":7}],"phase":1,"number":1,"trial_type":"bar-choose","trial_index":123,"time_elapsed":1819725,"internal_node_id":"0.0-123.0"},{"special_comment":"normal distribution","trial_type":"special_sequence","trial_index":124,"time_elapsed":1834958,"internal_node_id":"0.0-124.0"},{"during":"Nothing","bonus":264,"trial_type":"final","trial_index":125,"time_elapsed":1859146,"internal_node_id":"0.0-125.0"}],"bonus":264}