{"start_time":"2017-05-24 15:37:54","end_time":"2017-05-24 16:04:00","points_phase0":111,"points_phase1":115,"phase_order":1,"age":34,"gender":"m","tries":1,"during":"Nothing","worker_id":"A2WF8JGMNB4UEN","assignment_id":"3E7TUJ2EGDF53WZFE8KF6714OS19DZ","data":[{"rt":30404,"url":"\/christiane\/tickets\/utils\/consent.html","trial_type":"html","trial_index":0,"time_elapsed":30564,"internal_node_id":"0.0-0.0"},{"age":34,"gender":"m","trial_type":"age","trial_index":1,"time_elapsed":34716,"internal_node_id":"0.0-1.0"},{"worker_id":"A2WF8JGMNB4UEN","trial_type":"workerid","trial_index":2,"time_elapsed":43884,"internal_node_id":"0.0-2.0"},{"tries":1,"trial_type":"instructions_check","trial_index":3,"time_elapsed":72548,"internal_node_id":"0.0-3.0"},{"rt":14534,"url":"\/christiane\/tickets\/utils\/start.html","trial_type":"html","trial_index":4,"time_elapsed":88219,"internal_node_id":"0.0-4.0"},{"trial_type":"number-animation","trial_index":5,"time_elapsed":120910,"internal_node_id":"0.0-5.0"},{"phase":0,"sequence":0,"avg":181,"response":180,"trial_type":"training_avg","trial_index":6,"time_elapsed":196891,"internal_node_id":"0.0-6.0"},{"trial_type":"number-animation","trial_index":7,"time_elapsed":226117,"internal_node_id":"0.0-7.0"},{"phase":0,"sequence":1,"avg":188,"response":203,"trial_type":"training_avg","trial_index":8,"time_elapsed":249643,"internal_node_id":"0.0-8.0"},{"trial_type":"number-animation","trial_index":9,"time_elapsed":276550,"internal_node_id":"0.0-9.0"},{"phase":0,"sequence":2,"avg":188,"response":187,"trial_type":"training_avg","trial_index":10,"time_elapsed":293459,"internal_node_id":"0.0-10.0"},{"trial_type":"number-animation","trial_index":11,"time_elapsed":314613,"internal_node_id":"0.0-11.0"},{"phase":0,"sequence":3,"avg":177,"response":160,"trial_type":"training_avg","trial_index":12,"time_elapsed":326684,"internal_node_id":"0.0-12.0"},{"trial_type":"number-animation","trial_index":13,"time_elapsed":359901,"internal_node_id":"0.0-13.0"},{"phase":0,"sequence":4,"avg":182,"response":173,"trial_type":"training_avg","trial_index":14,"time_elapsed":381484,"internal_node_id":"0.0-14.0"},{"responses":[{"value":2,"offby":1,"category":"$115 - $130","category_index":0},{"value":5,"offby":0,"category":"$131 - $145","category_index":1},{"value":11,"offby":-1,"category":"$146 - $160","category_index":2},{"value":26,"offby":4,"category":"$161 - $175","category_index":3},{"value":35,"offby":1,"category":"$176 - $190","category_index":4},{"value":13,"offby":-2,"category":"$191 - $205","category_index":5},{"value":8,"offby":-3,"category":"$206 - $220","category_index":6}],"phase":0,"number":0,"trial_type":"bar-choose","trial_index":15,"time_elapsed":567659,"internal_node_id":"0.0-15.0"},{"rt":14450,"url":"\/christiane\/tickets\/utils\/testing.html","trial_type":"html","trial_index":16,"time_elapsed":583251,"internal_node_id":"0.0-16.0"},{"phase":0,"order":[27,48,46,30,13,18,38,35,6,10,7,4,31,15,40,49,47,43,39,2,32,44,23,45,24,25,8,22,42,16,33,9,34,36,28,37,17,21,41,12,0,19,14,20,1,11,26,3,5,29],"trial_type":"store_order","trial_index":17,"time_elapsed":584254,"internal_node_id":"0.0-17.0"},{"result":165,"points":2,"place":1,"phase":0,"sequence":-1,"prices":[184,180,224,165,181,199,185,193,218,146],"times":[3187,2245,1037,1205],"next_num":4,"trial_type":"ticket-choose","trial_index":18,"time_elapsed":595379,"internal_node_id":"0.0-18.0"},{"rt":20309,"url":"\/christiane\/tickets\/utils\/testing_after.html","trial_type":"html","trial_index":19,"time_elapsed":616827,"internal_node_id":"0.0-19.0"},{"result":165,"points":3,"place":0,"phase":0,"sequence":0,"prices":[192,172,171,178,188,165,217,168,195,197],"times":[1869,4959,1646,600,516,980],"next_num":6,"trial_type":"ticket-choose","trial_index":20,"time_elapsed":631827,"internal_node_id":"0.0-20.0"},{"result":163,"points":2,"place":1,"phase":0,"sequence":1,"prices":[176,186,178,217,163,181,187,166,153,209],"times":[1689,559,573,566,910],"next_num":5,"trial_type":"ticket-choose","trial_index":21,"time_elapsed":639219,"internal_node_id":"0.0-21.0"},{"result":165,"points":2,"place":1,"phase":0,"sequence":2,"prices":[165,175,187,209,177,180,188,167,154,208],"times":[1460],"next_num":1,"trial_type":"ticket-choose","trial_index":22,"time_elapsed":642835,"internal_node_id":"0.0-22.0"},{"result":165,"points":1,"place":2,"phase":0,"sequence":3,"prices":[185,179,191,165,161,173,199,150,188,168],"times":[568,445,453,1167],"next_num":4,"trial_type":"ticket-choose","trial_index":23,"time_elapsed":648211,"internal_node_id":"0.0-23.0"},{"result":159,"points":1,"place":2,"phase":0,"sequence":4,"prices":[181,159,149,175,185,151,163,174,178,207],"times":[443,1013],"next_num":2,"trial_type":"ticket-choose","trial_index":24,"time_elapsed":651827,"internal_node_id":"0.0-24.0"},{"result":163,"points":2,"place":1,"phase":0,"sequence":5,"prices":[171,169,186,165,163,167,220,148,187,165],"times":[513,653,445,1135,1068],"next_num":5,"trial_type":"ticket-choose","trial_index":25,"time_elapsed":658538,"internal_node_id":"0.0-25.0"},{"result":166,"points":1,"place":2,"phase":0,"sequence":6,"prices":[165,175,186,214,177,179,187,166,153,208],"times":[679,470,478,461,439,472,830,1510],"next_num":8,"trial_type":"ticket-choose","trial_index":26,"time_elapsed":667339,"internal_node_id":"0.0-26.0"},{"result":165,"points":1,"place":2,"phase":0,"sequence":7,"prices":[200,173,182,169,207,165,152,202,161,204],"times":[616,444,496,3405,470,1621],"next_num":6,"trial_type":"ticket-choose","trial_index":27,"time_elapsed":677427,"internal_node_id":"0.0-27.0"},{"result":156,"points":3,"place":0,"phase":0,"sequence":8,"prices":[167,174,186,211,178,181,188,168,208,156],"times":[1837,469,405,439,430,477,479,2893,726,741],"next_num":10,"trial_type":"ticket-choose","trial_index":28,"time_elapsed":690483,"internal_node_id":"0.0-28.0"},{"result":156,"points":3,"place":0,"phase":0,"sequence":9,"prices":[178,175,185,215,167,181,186,168,208,156],"times":[1370,454,456,484,1320,452,517,1439,461,702],"next_num":10,"trial_type":"ticket-choose","trial_index":29,"time_elapsed":702323,"internal_node_id":"0.0-29.0"},{"result":152,"points":3,"place":0,"phase":0,"sequence":10,"prices":[200,180,203,152,175,170,160,154,176,191],"times":[885,350,472,1054],"next_num":4,"trial_type":"ticket-choose","trial_index":30,"time_elapsed":707859,"internal_node_id":"0.0-30.0"},{"result":165,"points":2,"place":1,"phase":0,"sequence":11,"prices":[177,175,187,209,165,180,188,165,154,208],"times":[496,484,357,320,524,638,440,1036],"next_num":8,"trial_type":"ticket-choose","trial_index":31,"time_elapsed":715570,"internal_node_id":"0.0-31.0"},{"result":156,"points":3,"place":0,"phase":0,"sequence":12,"prices":[167,175,185,224,178,181,186,168,208,156],"times":[498,484,424,532,446,463,488,1158,566,772],"next_num":10,"trial_type":"ticket-choose","trial_index":32,"time_elapsed":725259,"internal_node_id":"0.0-32.0"},{"result":158,"points":2,"place":1,"phase":0,"sequence":13,"prices":[177,175,186,209,158,181,188,167,208,154],"times":[678,423,455,454,1285],"next_num":5,"trial_type":"ticket-choose","trial_index":33,"time_elapsed":731379,"internal_node_id":"0.0-33.0"},{"result":153,"points":3,"place":0,"phase":0,"sequence":14,"prices":[163,175,186,214,176,179,187,166,153,208],"times":[478,421,350,399,534,454,501,1567,1015],"next_num":9,"trial_type":"ticket-choose","trial_index":34,"time_elapsed":741123,"internal_node_id":"0.0-34.0"},{"result":170,"points":1,"place":2,"phase":0,"sequence":15,"prices":[199,191,188,174,167,193,189,164,176,170],"times":[2158,460,1605,718,2126,359,396,711,809,937],"next_num":10,"trial_type":"ticket-choose","trial_index":35,"time_elapsed":755243,"internal_node_id":"0.0-35.0"},{"result":158,"points":2,"place":1,"phase":0,"sequence":16,"prices":[177,176,187,225,158,181,187,165,208,153],"times":[636,446,575,694,949],"next_num":5,"trial_type":"ticket-choose","trial_index":36,"time_elapsed":761331,"internal_node_id":"0.0-36.0"},{"result":147,"points":3,"place":0,"phase":0,"sequence":17,"prices":[181,214,169,147,182,193,178,184,176,179],"times":[459,485,600,1060],"next_num":4,"trial_type":"ticket-choose","trial_index":37,"time_elapsed":766411,"internal_node_id":"0.0-37.0"},{"result":155,"points":2,"place":1,"phase":0,"sequence":18,"prices":[200,207,155,158,156,168,167,135,178,177],"times":[422,492,1053],"next_num":3,"trial_type":"ticket-choose","trial_index":38,"time_elapsed":770611,"internal_node_id":"0.0-38.0"},{"result":159,"points":3,"place":0,"phase":0,"sequence":19,"prices":[183,179,188,165,168,173,205,159,187,191],"times":[588,774,613,652,553,1772,495,1142],"next_num":8,"trial_type":"ticket-choose","trial_index":39,"time_elapsed":780546,"internal_node_id":"0.0-39.0"},{"result":166,"points":1,"place":2,"phase":0,"sequence":20,"prices":[177,175,186,210,165,179,187,166,153,208],"times":[587,438,655,477,734,529,780,1637],"next_num":8,"trial_type":"ticket-choose","trial_index":40,"time_elapsed":789779,"internal_node_id":"0.0-40.0"},{"result":154,"points":3,"place":0,"phase":0,"sequence":21,"prices":[187,201,165,172,196,174,178,154,172,180],"times":[494,549,903,1133,527,479,621,1230],"next_num":8,"trial_type":"ticket-choose","trial_index":41,"time_elapsed":799146,"internal_node_id":"0.0-41.0"},{"result":153,"points":3,"place":0,"phase":0,"sequence":22,"prices":[177,174,186,217,165,181,187,166,153,209],"times":[530,454,350,495,479,445,509,1372,1086],"next_num":9,"trial_type":"ticket-choose","trial_index":42,"time_elapsed":808475,"internal_node_id":"0.0-42.0"},{"result":158,"points":2,"place":1,"phase":0,"sequence":23,"prices":[158,175,186,211,177,180,187,166,209,153],"times":[1525],"next_num":1,"trial_type":"ticket-choose","trial_index":43,"time_elapsed":811835,"internal_node_id":"0.0-43.0"},{"result":153,"points":3,"place":0,"phase":0,"sequence":24,"prices":[158,176,187,210,177,181,187,165,208,153],"times":[1590,462,377,414,422,439,451,1343,533,894],"next_num":10,"trial_type":"ticket-choose","trial_index":44,"time_elapsed":822491,"internal_node_id":"0.0-44.0"},{"result":151,"points":3,"place":0,"phase":0,"sequence":25,"prices":[199,193,169,165,202,182,151,164,176,171],"times":[510,428,479,486,557,640,1308],"next_num":7,"trial_type":"ticket-choose","trial_index":45,"time_elapsed":830027,"internal_node_id":"0.0-45.0"},{"result":165,"points":2,"place":1,"phase":0,"sequence":26,"prices":[193,174,224,165,187,190,224,161,194,195],"times":[389,432,421,1724],"next_num":4,"trial_type":"ticket-choose","trial_index":46,"time_elapsed":835483,"internal_node_id":"0.0-46.0"},{"result":153,"points":3,"place":0,"phase":0,"sequence":27,"prices":[163,174,186,212,176,181,187,166,153,209],"times":[1158,358,380,431,428,448,479,726,1029],"next_num":9,"trial_type":"ticket-choose","trial_index":47,"time_elapsed":844467,"internal_node_id":"0.0-47.0"},{"result":154,"points":3,"place":0,"phase":0,"sequence":28,"prices":[176,187,179,209,163,180,188,165,154,208],"times":[531,414,1157,480,932,613,478,814,1007],"next_num":9,"trial_type":"ticket-choose","trial_index":48,"time_elapsed":854443,"internal_node_id":"0.0-48.0"},{"result":156,"points":3,"place":0,"phase":0,"sequence":29,"prices":[201,204,179,166,185,165,214,156,202,165],"times":[674,487,456,449,470,773,517,1053],"next_num":8,"trial_type":"ticket-choose","trial_index":49,"time_elapsed":862651,"internal_node_id":"0.0-49.0"},{"result":156,"points":2,"place":1,"phase":0,"sequence":30,"prices":[180,156,149,160,168,186,172,198,176,195],"times":[1510,1031],"next_num":2,"trial_type":"ticket-choose","trial_index":50,"time_elapsed":867259,"internal_node_id":"0.0-50.0"},{"result":202,"points":0,"place":8,"phase":0,"sequence":31,"prices":[196,171,170,184,187,165,211,169,201,202],"times":[441,432,387,422,390,422,559,806,536,765],"next_num":10,"trial_type":"ticket-choose","trial_index":51,"time_elapsed":876131,"internal_node_id":"0.0-51.0"},{"result":153,"points":2,"place":1,"phase":0,"sequence":32,"prices":[167,153,172,185,195,143,184,211,177,227],"times":[679,846],"next_num":2,"trial_type":"ticket-choose","trial_index":52,"time_elapsed":879643,"internal_node_id":"0.0-52.0"},{"result":158,"points":3,"place":0,"phase":0,"sequence":33,"prices":[214,184,226,192,215,158,199,175,176,208],"times":[451,454,480,559,885,1029],"next_num":6,"trial_type":"ticket-choose","trial_index":53,"time_elapsed":886339,"internal_node_id":"0.0-53.0"},{"result":163,"points":3,"place":0,"phase":0,"sequence":34,"prices":[163,199,196,199,185,195,227,163,177,166],"times":[374,503,484,463,646,797,585,1050],"next_num":8,"trial_type":"ticket-choose","trial_index":54,"time_elapsed":894586,"internal_node_id":"0.0-54.0"},{"result":150,"points":3,"place":0,"phase":0,"sequence":35,"prices":[190,150,175,161,188,207,157,194,178,199],"times":[509,967],"next_num":2,"trial_type":"ticket-choose","trial_index":55,"time_elapsed":898130,"internal_node_id":"0.0-55.0"},{"result":165,"points":2,"place":1,"phase":0,"sequence":36,"prices":[191,170,182,165,175,182,203,157,195,200],"times":[310,463,412,1502],"next_num":4,"trial_type":"ticket-choose","trial_index":56,"time_elapsed":903298,"internal_node_id":"0.0-56.0"},{"result":148,"points":3,"place":0,"phase":0,"sequence":37,"prices":[173,163,185,181,166,148,160,185,176,184],"times":[366,1100,463,432,723,1302],"next_num":6,"trial_type":"ticket-choose","trial_index":57,"time_elapsed":910587,"internal_node_id":"0.0-57.0"},{"result":165,"points":3,"place":0,"phase":0,"sequence":38,"prices":[193,181,175,181,185,165,224,199,218,184],"times":[477,638,1429,551,535,852],"next_num":6,"trial_type":"ticket-choose","trial_index":58,"time_elapsed":918075,"internal_node_id":"0.0-58.0"},{"result":167,"points":2,"place":1,"phase":0,"sequence":39,"prices":[178,175,186,212,167,179,187,169,209,153],"times":[916,497,644,621,982],"next_num":5,"trial_type":"ticket-choose","trial_index":59,"time_elapsed":924379,"internal_node_id":"0.0-59.0"},{"result":163,"points":2,"place":1,"phase":0,"sequence":40,"prices":[176,175,186,210,163,179,187,166,153,208],"times":[363,416,542,470,943],"next_num":5,"trial_type":"ticket-choose","trial_index":60,"time_elapsed":929675,"internal_node_id":"0.0-60.0"},{"result":157,"points":3,"place":0,"phase":0,"sequence":41,"prices":[201,187,157,184,198,179,188,185,178,170],"times":[863,428,1136],"next_num":3,"trial_type":"ticket-choose","trial_index":61,"time_elapsed":934466,"internal_node_id":"0.0-61.0"},{"result":169,"points":1,"place":2,"phase":0,"sequence":42,"prices":[167,175,186,225,178,179,187,169,209,153],"times":[561,471,486,501,553,508,719,907],"next_num":8,"trial_type":"ticket-choose","trial_index":62,"time_elapsed":942523,"internal_node_id":"0.0-62.0"},{"result":167,"points":2,"place":1,"phase":0,"sequence":43,"prices":[189,167,180,197,165,168,172,213,178,171],"times":[455,1246],"next_num":2,"trial_type":"ticket-choose","trial_index":63,"time_elapsed":946267,"internal_node_id":"0.0-63.0"},{"result":158,"points":2,"place":1,"phase":0,"sequence":44,"prices":[177,175,186,221,158,180,187,166,209,153],"times":[441,581,486,477,1013],"next_num":5,"trial_type":"ticket-choose","trial_index":64,"time_elapsed":951907,"internal_node_id":"0.0-64.0"},{"result":156,"points":3,"place":0,"phase":0,"sequence":45,"prices":[178,174,186,217,167,181,188,168,208,156],"times":[438,421,472,502,455,766,862,797,550,710],"next_num":10,"trial_type":"ticket-choose","trial_index":65,"time_elapsed":961643,"internal_node_id":"0.0-65.0"},{"result":186,"points":1,"place":4,"phase":0,"sequence":46,"prices":[220,173,201,197,169,205,198,183,178,186],"times":[507,475,447,486,742,598,487,1092,905,781],"next_num":10,"trial_type":"ticket-choose","trial_index":66,"time_elapsed":971875,"internal_node_id":"0.0-66.0"},{"result":165,"points":2,"place":1,"phase":0,"sequence":47,"prices":[165,174,186,212,177,181,187,166,153,209],"times":[4541],"next_num":1,"trial_type":"ticket-choose","trial_index":67,"time_elapsed":978411,"internal_node_id":"0.0-67.0"},{"result":165,"points":1,"place":2,"phase":0,"sequence":48,"prices":[163,175,187,209,176,180,188,165,154,208],"times":[723,481,472,469,494,552,463,1053],"next_num":8,"trial_type":"ticket-choose","trial_index":68,"time_elapsed":986458,"internal_node_id":"0.0-68.0"},{"result":158,"points":2,"place":1,"phase":0,"sequence":49,"prices":[158,175,186,209,177,181,188,167,208,154],"times":[1045],"next_num":1,"trial_type":"ticket-choose","trial_index":69,"time_elapsed":989386,"internal_node_id":"0.0-69.0"},{"responses":[{"value":1,"offby":0,"category":"$115 - $130","category_index":0},{"value":2,"offby":-3,"category":"$131 - $145","category_index":1},{"value":11,"offby":-1,"category":"$146 - $160","category_index":2},{"value":37,"offby":15,"category":"$161 - $175","category_index":3},{"value":32,"offby":-2,"category":"$176 - $190","category_index":4},{"value":13,"offby":-2,"category":"$191 - $205","category_index":5},{"value":4,"offby":-7,"category":"$206 - $220","category_index":6}],"phase":1,"number":1,"trial_type":"bar-choose","trial_index":70,"time_elapsed":1068220,"internal_node_id":"0.0-70.0"},{"rt":16035,"url":"\/christiane\/tickets\/utils\/testing2.html","trial_type":"point_update","trial_index":71,"time_elapsed":1085547,"internal_node_id":"0.0-71.0"},{"phase":1,"order":[27,17,7,29,44,31,6,26,0,4,47,10,1,22,12,45,23,48,41,33,9,36,11,18,20,37,32,14,16,25,34,28,35,46,38,40,30,49,24,5,15,43,2,39,21,3,42,8,13,19],"trial_type":"store_order","trial_index":72,"time_elapsed":1086559,"internal_node_id":"0.0-72.0"},{"result":186,"points":1,"place":4,"phase":1,"sequence":0,"prices":[192,165,171,178,188,217,172,195,197,186],"times":[2212,1903,487,470,511,500,1304,1035,550,900],"next_num":10,"trial_type":"ticket-choose","trial_index":73,"time_elapsed":1100090,"internal_node_id":"0.0-73.0"},{"result":169,"points":2,"place":1,"phase":1,"sequence":1,"prices":[181,215,169,147,182,193,177,184,176,179],"times":[681,543,901],"next_num":3,"trial_type":"ticket-choose","trial_index":74,"time_elapsed":1104546,"internal_node_id":"0.0-74.0"},{"result":158,"points":3,"place":0,"phase":1,"sequence":2,"prices":[210,184,226,193,215,158,199,175,176,208],"times":[384,559,580,569,467,967],"next_num":6,"trial_type":"ticket-choose","trial_index":75,"time_elapsed":1111203,"internal_node_id":"0.0-75.0"},{"result":165,"points":3,"place":0,"phase":1,"sequence":3,"prices":[191,172,169,175,182,203,170,195,165,176],"times":[343,486,1174,439,420,501,1024,493,1326],"next_num":9,"trial_type":"ticket-choose","trial_index":76,"time_elapsed":1120931,"internal_node_id":"0.0-76.0"},{"result":163,"points":2,"place":1,"phase":1,"sequence":4,"prices":[175,187,163,209,180,188,176,165,154,208],"times":[430,511,917],"next_num":3,"trial_type":"ticket-choose","trial_index":77,"time_elapsed":1125100,"internal_node_id":"0.0-77.0"},{"result":158,"points":2,"place":1,"phase":1,"sequence":5,"prices":[175,186,158,211,180,187,177,166,209,153],"times":[349,447,949],"next_num":3,"trial_type":"ticket-choose","trial_index":78,"time_elapsed":1129123,"internal_node_id":"0.0-78.0"},{"result":163,"points":3,"place":0,"phase":1,"sequence":6,"prices":[168,199,196,198,185,195,227,163,177,166],"times":[423,438,424,454,454,479,709,919],"next_num":8,"trial_type":"ticket-choose","trial_index":79,"time_elapsed":1136731,"internal_node_id":"0.0-79.0"},{"result":154,"points":2,"place":1,"phase":1,"sequence":7,"prices":[168,154,172,185,195,144,184,211,177,227],"times":[577,1490],"next_num":2,"trial_type":"ticket-choose","trial_index":80,"time_elapsed":1140786,"internal_node_id":"0.0-80.0"},{"result":166,"points":1,"place":2,"phase":1,"sequence":8,"prices":[175,186,165,214,179,187,177,166,153,208],"times":[515,471,519,503,421,390,469,3030],"next_num":8,"trial_type":"ticket-choose","trial_index":81,"time_elapsed":1150490,"internal_node_id":"0.0-81.0"},{"result":165,"points":2,"place":1,"phase":1,"sequence":9,"prices":[175,187,177,209,180,188,165,165,154,208],"times":[491,450,413,478,416,476,966],"next_num":7,"trial_type":"ticket-choose","trial_index":82,"time_elapsed":1157298,"internal_node_id":"0.0-82.0"},{"result":154,"points":3,"place":0,"phase":1,"sequence":10,"prices":[175,187,165,209,180,188,177,166,154,208],"times":[685,487,1365,405,407,421,385,1196,1053],"next_num":9,"trial_type":"ticket-choose","trial_index":83,"time_elapsed":1167226,"internal_node_id":"0.0-83.0"},{"result":167,"points":2,"place":1,"phase":1,"sequence":11,"prices":[175,185,178,215,181,186,167,168,208,156],"times":[654,416,439,500,663,559,933],"next_num":7,"trial_type":"ticket-choose","trial_index":84,"time_elapsed":1174451,"internal_node_id":"0.0-84.0"},{"result":165,"points":3,"place":0,"phase":1,"sequence":12,"prices":[171,203,175,170,167,220,192,186,165,165],"times":[325,440,428,438,1630,487,414,601,987],"next_num":9,"trial_type":"ticket-choose","trial_index":85,"time_elapsed":1183899,"internal_node_id":"0.0-85.0"},{"result":163,"points":2,"place":1,"phase":1,"sequence":13,"prices":[175,186,176,210,179,187,163,166,153,208],"times":[452,583,350,405,424,468,990],"next_num":7,"trial_type":"ticket-choose","trial_index":86,"time_elapsed":1190643,"internal_node_id":"0.0-86.0"},{"result":160,"points":1,"place":2,"phase":1,"sequence":14,"prices":[189,150,175,160,188,207,158,194,178,199],"times":[350,350,681,1181],"next_num":4,"trial_type":"ticket-choose","trial_index":87,"time_elapsed":1195571,"internal_node_id":"0.0-87.0"},{"result":163,"points":1,"place":2,"phase":1,"sequence":15,"prices":[183,163,185,180,166,148,160,186,176,184],"times":[462,973],"next_num":2,"trial_type":"ticket-choose","trial_index":88,"time_elapsed":1199011,"internal_node_id":"0.0-88.0"},{"result":152,"points":3,"place":0,"phase":1,"sequence":16,"prices":[200,181,203,152,175,171,160,154,176,191],"times":[469,518,450,952],"next_num":4,"trial_type":"ticket-choose","trial_index":89,"time_elapsed":1203762,"internal_node_id":"0.0-89.0"},{"result":157,"points":3,"place":0,"phase":1,"sequence":17,"prices":[201,187,157,184,198,179,188,185,178,170],"times":[332,479,958],"next_num":3,"trial_type":"ticket-choose","trial_index":90,"time_elapsed":1207730,"internal_node_id":"0.0-90.0"},{"result":165,"points":3,"place":0,"phase":1,"sequence":18,"prices":[189,167,180,197,165,168,172,213,178,171],"times":[444,1111,486,519,907],"next_num":5,"trial_type":"ticket-choose","trial_index":91,"time_elapsed":1213835,"internal_node_id":"0.0-91.0"},{"result":153,"points":3,"place":0,"phase":1,"sequence":19,"prices":[175,186,167,225,179,187,178,169,209,153],"times":[389,470,1003,446,529,429,494,1231,493,756],"next_num":10,"trial_type":"ticket-choose","trial_index":92,"time_elapsed":1223763,"internal_node_id":"0.0-92.0"},{"result":165,"points":3,"place":0,"phase":1,"sequence":20,"prices":[193,169,171,187,190,224,174,194,165,188],"times":[1099,678,448,439,510,561,590,556,855],"next_num":9,"trial_type":"ticket-choose","trial_index":93,"time_elapsed":1233067,"internal_node_id":"0.0-93.0"},{"result":159,"points":1,"place":2,"phase":1,"sequence":21,"prices":[180,159,149,175,185,141,163,174,178,207],"times":[478,997],"next_num":2,"trial_type":"ticket-choose","trial_index":94,"time_elapsed":1236594,"internal_node_id":"0.0-94.0"},{"result":158,"points":2,"place":1,"phase":1,"sequence":22,"prices":[176,187,177,225,181,187,158,165,208,153],"times":[342,406,429,463,414,446,942],"next_num":7,"trial_type":"ticket-choose","trial_index":95,"time_elapsed":1243212,"internal_node_id":"0.0-95.0"},{"result":164,"points":3,"place":0,"phase":1,"sequence":23,"prices":[212,192,188,184,167,193,189,164,176,170],"times":[452,375,407,409,410,487,493,965],"next_num":8,"trial_type":"ticket-choose","trial_index":96,"time_elapsed":1250587,"internal_node_id":"0.0-96.0"},{"result":165,"points":3,"place":0,"phase":1,"sequence":24,"prices":[193,165,175,181,185,224,180,199,218,184],"times":[848,1764],"next_num":2,"trial_type":"ticket-choose","trial_index":97,"time_elapsed":1255611,"internal_node_id":"0.0-97.0"},{"result":162,"points":3,"place":0,"phase":1,"sequence":25,"prices":[201,165,162,166,185,214,165,202,204,179],"times":[498,918,989],"next_num":3,"trial_type":"ticket-choose","trial_index":98,"time_elapsed":1260282,"internal_node_id":"0.0-98.0"},{"result":153,"points":3,"place":0,"phase":1,"sequence":26,"prices":[174,186,165,212,181,187,177,167,153,209],"times":[476,497,1781,462,437,424,408,918,1213],"next_num":9,"trial_type":"ticket-choose","trial_index":99,"time_elapsed":1270547,"internal_node_id":"0.0-99.0"},{"result":158,"points":2,"place":1,"phase":1,"sequence":27,"prices":[175,186,177,209,181,188,158,167,208,154],"times":[605,478,461,485,567,446,1045],"next_num":7,"trial_type":"ticket-choose","trial_index":100,"time_elapsed":1277794,"internal_node_id":"0.0-100.0"},{"result":143,"points":3,"place":0,"phase":1,"sequence":28,"prices":[222,173,202,197,143,205,198,183,178,186],"times":[557,523,521,511,1053],"next_num":5,"trial_type":"ticket-choose","trial_index":101,"time_elapsed":1285098,"internal_node_id":"0.0-101.0"},{"result":163,"points":2,"place":1,"phase":1,"sequence":29,"prices":[175,187,176,209,180,188,163,165,154,208],"times":[3303,478,664,541,558,462,1107],"next_num":7,"trial_type":"ticket-choose","trial_index":102,"time_elapsed":1295466,"internal_node_id":"0.0-102.0"},{"result":168,"points":1,"place":2,"phase":1,"sequence":30,"prices":[183,182,192,168,173,205,167,187,165,170],"times":[1049,437,598,1645],"next_num":4,"trial_type":"ticket-choose","trial_index":103,"time_elapsed":1301722,"internal_node_id":"0.0-103.0"},{"result":165,"points":2,"place":1,"phase":1,"sequence":31,"prices":[175,186,177,210,179,187,165,166,153,208],"times":[272,428,432,437,408,420,965],"next_num":7,"trial_type":"ticket-choose","trial_index":104,"time_elapsed":1308218,"internal_node_id":"0.0-104.0"},{"result":155,"points":2,"place":1,"phase":1,"sequence":32,"prices":[181,155,148,161,168,187,172,199,176,194],"times":[581,990],"next_num":2,"trial_type":"ticket-choose","trial_index":105,"time_elapsed":1311890,"internal_node_id":"0.0-105.0"},{"result":154,"points":3,"place":0,"phase":1,"sequence":33,"prices":[188,200,165,172,198,174,177,154,177,180],"times":[371,507,526,392,423,406,446,990],"next_num":8,"trial_type":"ticket-choose","trial_index":106,"time_elapsed":1319251,"internal_node_id":"0.0-106.0"},{"result":185,"points":1,"place":4,"phase":1,"sequence":34,"prices":[196,165,170,184,187,211,171,201,202,185],"times":[359,861,424,502,343,495,399,511,466,867],"next_num":10,"trial_type":"ticket-choose","trial_index":107,"time_elapsed":1328186,"internal_node_id":"0.0-107.0"},{"result":163,"points":2,"place":1,"phase":1,"sequence":35,"prices":[198,193,169,163,202,182,152,164,177,171],"times":[525,502,1246,989],"next_num":4,"trial_type":"ticket-choose","trial_index":108,"time_elapsed":1333898,"internal_node_id":"0.0-108.0"},{"result":163,"points":2,"place":1,"phase":1,"sequence":36,"prices":[174,186,176,217,181,187,163,166,153,209],"times":[318,493,431,452,405,685,1367],"next_num":7,"trial_type":"ticket-choose","trial_index":109,"time_elapsed":1341146,"internal_node_id":"0.0-109.0"},{"result":158,"points":2,"place":1,"phase":1,"sequence":37,"prices":[175,186,177,221,180,187,158,166,209,153],"times":[578,439,469,486,399,477,863],"next_num":7,"trial_type":"ticket-choose","trial_index":110,"time_elapsed":1347994,"internal_node_id":"0.0-110.0"},{"result":155,"points":2,"place":1,"phase":1,"sequence":38,"prices":[201,207,155,158,156,165,167,135,178,177],"times":[398,399,1029],"next_num":3,"trial_type":"ticket-choose","trial_index":111,"time_elapsed":1352082,"internal_node_id":"0.0-111.0"},{"result":153,"points":3,"place":0,"phase":1,"sequence":39,"prices":[175,186,163,214,179,187,176,166,153,208],"times":[363,870,470,518,464,451,654,1655,893],"next_num":9,"trial_type":"ticket-choose","trial_index":112,"time_elapsed":1362131,"internal_node_id":"0.0-112.0"},{"result":156,"points":3,"place":0,"phase":1,"sequence":40,"prices":[174,186,167,211,181,188,178,168,208,156],"times":[836,485,454,540,584,583,581,2196,510,886],"next_num":10,"trial_type":"ticket-choose","trial_index":113,"time_elapsed":1373428,"internal_node_id":"0.0-113.0"},{"result":158,"points":2,"place":1,"phase":1,"sequence":41,"prices":[175,186,158,209,181,188,177,167,208,154],"times":[504,413,997],"next_num":3,"trial_type":"ticket-choose","trial_index":114,"time_elapsed":1377666,"internal_node_id":"0.0-114.0"},{"result":153,"points":3,"place":0,"phase":1,"sequence":42,"prices":[174,186,163,212,181,187,176,166,153,209],"times":[495,396,408,476,463,471,466,1124,783],"next_num":9,"trial_type":"ticket-choose","trial_index":115,"time_elapsed":1386355,"internal_node_id":"0.0-115.0"},{"result":158,"points":2,"place":1,"phase":1,"sequence":43,"prices":[176,187,158,210,181,187,177,165,208,153],"times":[565,367,989],"next_num":3,"trial_type":"ticket-choose","trial_index":116,"time_elapsed":1390483,"internal_node_id":"0.0-116.0"},{"result":156,"points":3,"place":0,"phase":1,"sequence":44,"prices":[175,185,167,224,181,186,178,168,208,156],"times":[387,461,1448,479,557,502,487,1166,735,717],"next_num":10,"trial_type":"ticket-choose","trial_index":117,"time_elapsed":1401075,"internal_node_id":"0.0-117.0"},{"result":165,"points":2,"place":1,"phase":1,"sequence":45,"prices":[174,186,177,217,181,187,165,166,153,209],"times":[940,557,519,461,392,741,976],"next_num":7,"trial_type":"ticket-choose","trial_index":118,"time_elapsed":1408755,"internal_node_id":"0.0-118.0"},{"result":161,"points":3,"place":0,"phase":1,"sequence":46,"prices":[200,165,165,173,182,207,161,202,204,180],"times":[646,1030,596,480,468,477,1236],"next_num":7,"trial_type":"ticket-choose","trial_index":119,"time_elapsed":1416922,"internal_node_id":"0.0-119.0"},{"result":167,"points":2,"place":1,"phase":1,"sequence":47,"prices":[174,186,178,217,181,188,167,168,208,156],"times":[429,463,439,486,456,515,982],"next_num":7,"trial_type":"ticket-choose","trial_index":120,"time_elapsed":1423706,"internal_node_id":"0.0-120.0"},{"result":167,"points":2,"place":1,"phase":1,"sequence":48,"prices":[175,186,178,212,179,187,167,169,209,153],"times":[1422,445,472,573,590,446,879],"next_num":7,"trial_type":"ticket-choose","trial_index":121,"time_elapsed":1431987,"internal_node_id":"0.0-121.0"},{"result":165,"points":3,"place":0,"phase":1,"sequence":49,"prices":[185,170,182,201,173,199,171,188,165,168],"times":[604,564,430,549,911,453,607,504,1118],"next_num":9,"trial_type":"ticket-choose","trial_index":122,"time_elapsed":1441604,"internal_node_id":"0.0-122.0"},{"responses":[{"value":0,"offby":-1,"category":"$115 - $130","category_index":0},{"value":1,"offby":-4,"category":"$131 - $145","category_index":1},{"value":7,"offby":-5,"category":"$146 - $160","category_index":2},{"value":31,"offby":9,"category":"$161 - $175","category_index":3},{"value":38,"offby":4,"category":"$176 - $190","category_index":4},{"value":15,"offby":0,"category":"$191 - $205","category_index":5},{"value":8,"offby":-3,"category":"$206 - $220","category_index":6}],"phase":1,"number":1,"trial_type":"bar-choose","trial_index":123,"time_elapsed":1509251,"internal_node_id":"0.0-123.0"},{"special_comment":"they seemed to have similar averages, and were all in the same range","trial_type":"special_sequence","trial_index":124,"time_elapsed":1535507,"internal_node_id":"0.0-124.0"},{"during":"Nothing","bonus":300,"trial_type":"final","trial_index":125,"time_elapsed":1563653,"internal_node_id":"0.0-125.0"}],"bonus":300}