{"start_time":"2017-05-24 14:12:02","end_time":"2017-05-24 14:38:20","points_phase0":95,"points_phase1":95,"phase_order":0,"age":37,"gender":"m","tries":2,"during":"Nothing","worker_id":"A30HUBOONMGK6T","assignment_id":"3KKG4CDWKJRS30GMLXJM337YBER49Y","data":[{"rt":104286,"url":"\/christiane\/tickets\/utils\/consent.html","trial_type":"html","trial_index":0,"time_elapsed":105328,"internal_node_id":"0.0-0.0"},{"age":37,"gender":"m","trial_type":"age","trial_index":1,"time_elapsed":114268,"internal_node_id":"0.0-1.0"},{"worker_id":"A30HUBOONMGK6T","trial_type":"workerid","trial_index":2,"time_elapsed":147349,"internal_node_id":"0.0-2.0"},{"tries":2,"trial_type":"instructions_check","trial_index":3,"time_elapsed":226810,"internal_node_id":"0.0-3.0"},{"rt":20241,"url":"\/christiane\/tickets\/utils\/start.html","trial_type":"html","trial_index":4,"time_elapsed":248362,"internal_node_id":"0.0-4.0"},{"trial_type":"number-animation","trial_index":5,"time_elapsed":271687,"internal_node_id":"0.0-5.0"},{"phase":0,"sequence":0,"avg":181,"response":172,"trial_type":"training_avg","trial_index":6,"time_elapsed":289074,"internal_node_id":"0.0-6.0"},{"trial_type":"number-animation","trial_index":7,"time_elapsed":314360,"internal_node_id":"0.0-7.0"},{"phase":0,"sequence":1,"avg":188,"response":192,"trial_type":"training_avg","trial_index":8,"time_elapsed":324319,"internal_node_id":"0.0-8.0"},{"trial_type":"number-animation","trial_index":9,"time_elapsed":345647,"internal_node_id":"0.0-9.0"},{"phase":0,"sequence":2,"avg":188,"response":183,"trial_type":"training_avg","trial_index":10,"time_elapsed":354261,"internal_node_id":"0.0-10.0"},{"trial_type":"number-animation","trial_index":11,"time_elapsed":383728,"internal_node_id":"0.0-11.0"},{"phase":0,"sequence":3,"avg":177,"response":175,"trial_type":"training_avg","trial_index":12,"time_elapsed":396281,"internal_node_id":"0.0-12.0"},{"trial_type":"number-animation","trial_index":13,"time_elapsed":416928,"internal_node_id":"0.0-13.0"},{"phase":0,"sequence":4,"avg":182,"response":183,"trial_type":"training_avg","trial_index":14,"time_elapsed":436635,"internal_node_id":"0.0-14.0"},{"responses":[{"value":0,"offby":-1,"category":"$115 - $130","category_index":0},{"value":5,"offby":0,"category":"$131 - $145","category_index":1},{"value":25,"offby":13,"category":"$146 - $160","category_index":2},{"value":25,"offby":3,"category":"$161 - $175","category_index":3},{"value":30,"offby":-4,"category":"$176 - $190","category_index":4},{"value":10,"offby":-5,"category":"$191 - $205","category_index":5},{"value":5,"offby":-6,"category":"$206 - $220","category_index":6}],"phase":0,"number":0,"trial_type":"bar-choose","trial_index":15,"time_elapsed":566590,"internal_node_id":"0.0-15.0"},{"rt":23688,"url":"\/christiane\/tickets\/utils\/testing.html","trial_type":"html","trial_index":16,"time_elapsed":591565,"internal_node_id":"0.0-16.0"},{"phase":0,"order":[2,33,39,22,42,21,32,7,10,6,43,37,13,41,11,16,30,34,15,40,14,29,5,4,45,18,38,28,26,49,19,3,8,47,24,1,35,36,25,9,31,20,46,44,48,23,17,0,27,12],"trial_type":"store_order","trial_index":17,"time_elapsed":592576,"internal_node_id":"0.0-17.0"},{"result":165,"points":2,"place":1,"phase":0,"sequence":-1,"prices":[184,180,224,165,181,199,185,193,218,146],"times":[5129,1765,1082,2175],"next_num":4,"trial_type":"ticket-choose","trial_index":18,"time_elapsed":606355,"internal_node_id":"0.0-18.0"},{"rt":37012,"url":"\/christiane\/tickets\/utils\/testing_after.html","trial_type":"html","trial_index":19,"time_elapsed":644896,"internal_node_id":"0.0-19.0"},{"result":169,"points":1,"place":2,"phase":0,"sequence":0,"prices":[175,186,167,225,179,187,178,169,209,153],"times":[1473,771,1107,954,2119,880,1260,1228],"next_num":8,"trial_type":"ticket-choose","trial_index":20,"time_elapsed":659014,"internal_node_id":"0.0-20.0"},{"result":167,"points":2,"place":1,"phase":0,"sequence":1,"prices":[183,182,192,168,173,205,167,187,165,170],"times":[1089,750,886,4274,736,901,1216],"next_num":7,"trial_type":"ticket-choose","trial_index":21,"time_elapsed":672965,"internal_node_id":"0.0-21.0"},{"result":165,"points":3,"place":0,"phase":0,"sequence":2,"prices":[189,167,180,197,165,168,172,213,178,171],"times":[4791,2781,709,666,990],"next_num":5,"trial_type":"ticket-choose","trial_index":22,"time_elapsed":686938,"internal_node_id":"0.0-22.0"},{"result":158,"points":2,"place":1,"phase":0,"sequence":3,"prices":[175,186,177,209,181,188,158,167,208,154],"times":[1852,619,650,697,935,765,1059],"next_num":7,"trial_type":"ticket-choose","trial_index":23,"time_elapsed":697540,"internal_node_id":"0.0-23.0"},{"result":143,"points":3,"place":0,"phase":0,"sequence":4,"prices":[222,173,202,197,143,205,198,183,178,186],"times":[954,1384,620,607,1180],"next_num":5,"trial_type":"ticket-choose","trial_index":24,"time_elapsed":705479,"internal_node_id":"0.0-24.0"},{"result":158,"points":2,"place":1,"phase":0,"sequence":5,"prices":[175,186,177,221,180,187,158,166,209,153],"times":[1606,647,621,987,699,775,922],"next_num":7,"trial_type":"ticket-choose","trial_index":25,"time_elapsed":715096,"internal_node_id":"0.0-25.0"},{"result":165,"points":3,"place":0,"phase":0,"sequence":6,"prices":[193,169,171,187,190,224,174,194,165,188],"times":[2665,2005,643,659,684,639,1799,752,791],"next_num":9,"trial_type":"ticket-choose","trial_index":26,"time_elapsed":729586,"internal_node_id":"0.0-26.0"},{"result":165,"points":2,"place":1,"phase":0,"sequence":7,"prices":[175,187,165,209,180,188,177,166,154,208],"times":[4442,744,1248],"next_num":3,"trial_type":"ticket-choose","trial_index":27,"time_elapsed":738756,"internal_node_id":"0.0-27.0"},{"result":165,"points":2,"place":1,"phase":0,"sequence":8,"prices":[175,187,177,209,180,188,165,165,154,208],"times":[9087,1025,682,654,712,653,840],"next_num":7,"trial_type":"ticket-choose","trial_index":28,"time_elapsed":755677,"internal_node_id":"0.0-28.0"},{"result":165,"points":2,"place":1,"phase":0,"sequence":9,"prices":[175,186,165,214,179,187,177,166,153,208],"times":[4891,558,1009],"next_num":3,"trial_type":"ticket-choose","trial_index":29,"time_elapsed":764422,"internal_node_id":"0.0-29.0"},{"result":157,"points":3,"place":0,"phase":0,"sequence":10,"prices":[201,187,157,184,198,179,188,185,178,170],"times":[1031,539,874],"next_num":3,"trial_type":"ticket-choose","trial_index":30,"time_elapsed":769246,"internal_node_id":"0.0-30.0"},{"result":163,"points":2,"place":1,"phase":0,"sequence":11,"prices":[198,193,169,163,202,182,152,164,177,171],"times":[747,629,1376,822],"next_num":4,"trial_type":"ticket-choose","trial_index":31,"time_elapsed":775442,"internal_node_id":"0.0-31.0"},{"result":163,"points":2,"place":1,"phase":0,"sequence":12,"prices":[175,187,163,209,180,188,176,165,154,208],"times":[811,674,882],"next_num":3,"trial_type":"ticket-choose","trial_index":32,"time_elapsed":780189,"internal_node_id":"0.0-32.0"},{"result":155,"points":2,"place":1,"phase":0,"sequence":13,"prices":[201,207,155,158,156,165,167,135,178,177],"times":[867,678,982],"next_num":3,"trial_type":"ticket-choose","trial_index":33,"time_elapsed":785060,"internal_node_id":"0.0-33.0"},{"result":165,"points":2,"place":1,"phase":0,"sequence":14,"prices":[174,186,177,217,181,187,165,166,153,209],"times":[787,1289,612,716,680,626,1172],"next_num":7,"trial_type":"ticket-choose","trial_index":34,"time_elapsed":794153,"internal_node_id":"0.0-34.0"},{"result":163,"points":2,"place":1,"phase":0,"sequence":15,"prices":[175,187,176,209,180,188,163,165,154,208],"times":[826,625,716,651,673,639,984],"next_num":7,"trial_type":"ticket-choose","trial_index":35,"time_elapsed":802492,"internal_node_id":"0.0-35.0"},{"result":170,"points":1,"place":2,"phase":0,"sequence":16,"prices":[191,172,169,175,182,203,170,195,165,176],"times":[1146,653,979,715,794,772,1622],"next_num":7,"trial_type":"ticket-choose","trial_index":36,"time_elapsed":812511,"internal_node_id":"0.0-36.0"},{"result":155,"points":2,"place":1,"phase":0,"sequence":17,"prices":[181,155,148,161,168,187,172,199,176,194],"times":[757,875],"next_num":2,"trial_type":"ticket-choose","trial_index":37,"time_elapsed":816338,"internal_node_id":"0.0-37.0"},{"result":163,"points":2,"place":1,"phase":0,"sequence":18,"prices":[175,186,176,210,179,187,163,166,153,208],"times":[886,787,632,640,589,854,839],"next_num":7,"trial_type":"ticket-choose","trial_index":38,"time_elapsed":824776,"internal_node_id":"0.0-38.0"},{"result":160,"points":1,"place":2,"phase":0,"sequence":19,"prices":[189,150,175,160,188,207,158,194,178,199],"times":[697,943,1061,916],"next_num":4,"trial_type":"ticket-choose","trial_index":39,"time_elapsed":831035,"internal_node_id":"0.0-39.0"},{"result":163,"points":2,"place":1,"phase":0,"sequence":20,"prices":[174,186,163,212,181,187,176,166,153,209],"times":[755,659,1260],"next_num":3,"trial_type":"ticket-choose","trial_index":40,"time_elapsed":836419,"internal_node_id":"0.0-40.0"},{"result":171,"points":1,"place":3,"phase":0,"sequence":21,"prices":[185,170,182,201,173,199,171,188,165,168],"times":[541,681,648,677,878,721,1239],"next_num":7,"trial_type":"ticket-choose","trial_index":41,"time_elapsed":844981,"internal_node_id":"0.0-41.0"},{"result":167,"points":2,"place":1,"phase":0,"sequence":22,"prices":[175,186,178,212,179,187,167,169,209,153],"times":[729,668,695,706,641,694,1033],"next_num":7,"trial_type":"ticket-choose","trial_index":42,"time_elapsed":853451,"internal_node_id":"0.0-42.0"},{"result":167,"points":2,"place":1,"phase":0,"sequence":23,"prices":[175,185,178,215,181,186,167,168,208,156],"times":[800,1402,716,620,955,611,1086],"next_num":7,"trial_type":"ticket-choose","trial_index":43,"time_elapsed":862815,"internal_node_id":"0.0-43.0"},{"result":164,"points":3,"place":0,"phase":0,"sequence":24,"prices":[212,192,188,184,167,193,189,164,176,170],"times":[651,1675,573,555,1073,794,624,961],"next_num":8,"trial_type":"ticket-choose","trial_index":44,"time_elapsed":873309,"internal_node_id":"0.0-44.0"},{"result":158,"points":2,"place":1,"phase":0,"sequence":25,"prices":[175,186,158,211,180,187,177,166,209,153],"times":[1159,490,1008],"next_num":3,"trial_type":"ticket-choose","trial_index":45,"time_elapsed":878277,"internal_node_id":"0.0-45.0"},{"result":163,"points":3,"place":0,"phase":0,"sequence":26,"prices":[168,199,196,198,185,195,227,163,177,166],"times":[1070,572,701,553,652,694,646,800],"next_num":8,"trial_type":"ticket-choose","trial_index":46,"time_elapsed":887343,"internal_node_id":"0.0-46.0"},{"result":185,"points":1,"place":4,"phase":0,"sequence":27,"prices":[196,165,170,184,187,211,171,201,202,185],"times":[1290,3785,684,551,625,668,716,753,644,681],"next_num":10,"trial_type":"ticket-choose","trial_index":47,"time_elapsed":901532,"internal_node_id":"0.0-47.0"},{"result":165,"points":2,"place":1,"phase":0,"sequence":28,"prices":[200,165,165,173,182,207,161,202,204,180],"times":[1729,985],"next_num":2,"trial_type":"ticket-choose","trial_index":48,"time_elapsed":906383,"internal_node_id":"0.0-48.0"},{"result":163,"points":1,"place":2,"phase":0,"sequence":29,"prices":[183,163,185,180,166,148,160,186,176,184],"times":[1345,987],"next_num":2,"trial_type":"ticket-choose","trial_index":49,"time_elapsed":910866,"internal_node_id":"0.0-49.0"},{"result":158,"points":2,"place":1,"phase":0,"sequence":30,"prices":[175,186,158,209,181,188,177,167,208,154],"times":[711,567,1026],"next_num":3,"trial_type":"ticket-choose","trial_index":50,"time_elapsed":915573,"internal_node_id":"0.0-50.0"},{"result":167,"points":2,"place":1,"phase":0,"sequence":31,"prices":[174,186,178,217,181,188,167,168,208,156],"times":[954,583,601,723,626,649,829],"next_num":7,"trial_type":"ticket-choose","trial_index":51,"time_elapsed":923672,"internal_node_id":"0.0-51.0"},{"result":167,"points":1,"place":2,"phase":0,"sequence":32,"prices":[174,186,165,212,181,187,177,167,153,209],"times":[1887,483,645,555,575,609,665,971],"next_num":8,"trial_type":"ticket-choose","trial_index":52,"time_elapsed":933528,"internal_node_id":"0.0-52.0"},{"result":152,"points":3,"place":0,"phase":0,"sequence":33,"prices":[200,181,203,152,175,171,160,154,176,191],"times":[7054,716,582,1047],"next_num":4,"trial_type":"ticket-choose","trial_index":53,"time_elapsed":945450,"internal_node_id":"0.0-53.0"},{"result":184,"points":1,"place":4,"phase":0,"sequence":34,"prices":[193,165,175,181,185,224,180,199,218,184],"times":[1454,1507,563,505,568,586,563,632,595,692],"next_num":10,"trial_type":"ticket-choose","trial_index":54,"time_elapsed":956916,"internal_node_id":"0.0-54.0"},{"result":168,"points":1,"place":2,"phase":0,"sequence":35,"prices":[175,185,167,224,181,186,178,168,208,156],"times":[904,586,1509,630,623,636,588,778],"next_num":8,"trial_type":"ticket-choose","trial_index":55,"time_elapsed":966426,"internal_node_id":"0.0-55.0"},{"result":154,"points":2,"place":1,"phase":0,"sequence":36,"prices":[168,154,172,185,195,144,184,211,177,227],"times":[2006,808],"next_num":2,"trial_type":"ticket-choose","trial_index":56,"time_elapsed":971299,"internal_node_id":"0.0-56.0"},{"result":165,"points":2,"place":1,"phase":0,"sequence":37,"prices":[188,200,165,172,198,174,177,154,177,180],"times":[927,647,1135],"next_num":3,"trial_type":"ticket-choose","trial_index":57,"time_elapsed":976362,"internal_node_id":"0.0-57.0"},{"result":165,"points":2,"place":1,"phase":0,"sequence":38,"prices":[201,165,162,166,185,214,165,202,204,179],"times":[3873,1083],"next_num":2,"trial_type":"ticket-choose","trial_index":58,"time_elapsed":983375,"internal_node_id":"0.0-58.0"},{"result":165,"points":2,"place":1,"phase":0,"sequence":39,"prices":[175,186,177,210,179,187,165,166,153,208],"times":[766,584,563,614,547,650,864],"next_num":7,"trial_type":"ticket-choose","trial_index":59,"time_elapsed":991125,"internal_node_id":"0.0-59.0"},{"result":167,"points":1,"place":2,"phase":0,"sequence":40,"prices":[171,203,175,170,167,220,192,186,165,165],"times":[1221,639,731,563,1079],"next_num":5,"trial_type":"ticket-choose","trial_index":60,"time_elapsed":998154,"internal_node_id":"0.0-60.0"},{"result":165,"points":1,"place":2,"phase":0,"sequence":41,"prices":[176,187,158,210,181,187,177,165,208,153],"times":[758,613,495,530,483,603,640,768],"next_num":8,"trial_type":"ticket-choose","trial_index":61,"time_elapsed":1006452,"internal_node_id":"0.0-61.0"},{"result":158,"points":3,"place":0,"phase":0,"sequence":42,"prices":[210,184,226,193,215,158,199,175,176,208],"times":[805,614,595,681,650,818],"next_num":6,"trial_type":"ticket-choose","trial_index":62,"time_elapsed":1013465,"internal_node_id":"0.0-62.0"},{"result":159,"points":1,"place":2,"phase":0,"sequence":43,"prices":[180,159,149,175,185,141,163,174,178,207],"times":[1890,836],"next_num":2,"trial_type":"ticket-choose","trial_index":63,"time_elapsed":1018292,"internal_node_id":"0.0-63.0"},{"result":147,"points":3,"place":0,"phase":0,"sequence":44,"prices":[181,215,169,147,182,193,177,184,176,179],"times":[947,646,1043,888],"next_num":4,"trial_type":"ticket-choose","trial_index":64,"time_elapsed":1024320,"internal_node_id":"0.0-64.0"},{"result":158,"points":2,"place":1,"phase":0,"sequence":45,"prices":[176,187,177,225,181,187,158,165,208,153],"times":[1146,773,658,4321,682,643,884],"next_num":7,"trial_type":"ticket-choose","trial_index":65,"time_elapsed":1036659,"internal_node_id":"0.0-65.0"},{"result":163,"points":2,"place":1,"phase":0,"sequence":46,"prices":[174,186,176,217,181,187,163,166,153,209],"times":[805,682,584,641,650,697,1065],"next_num":7,"trial_type":"ticket-choose","trial_index":66,"time_elapsed":1044929,"internal_node_id":"0.0-66.0"},{"result":168,"points":1,"place":2,"phase":0,"sequence":47,"prices":[174,186,167,211,181,188,178,168,208,156],"times":[765,501,507,577,570,556,814,846],"next_num":8,"trial_type":"ticket-choose","trial_index":67,"time_elapsed":1053481,"internal_node_id":"0.0-67.0"},{"result":186,"points":1,"place":4,"phase":0,"sequence":48,"prices":[192,165,171,178,188,217,172,195,197,186],"times":[1541,686,491,538,605,659,1034,683,659,877],"next_num":10,"trial_type":"ticket-choose","trial_index":68,"time_elapsed":1065046,"internal_node_id":"0.0-68.0"},{"result":163,"points":2,"place":1,"phase":0,"sequence":49,"prices":[175,186,163,214,179,187,176,166,153,208],"times":[796,587,962],"next_num":3,"trial_type":"ticket-choose","trial_index":69,"time_elapsed":1069693,"internal_node_id":"0.0-69.0"},{"responses":[{"value":0,"offby":-1,"category":"$115 - $130","category_index":0},{"value":0,"offby":-5,"category":"$131 - $145","category_index":1},{"value":20,"offby":8,"category":"$146 - $160","category_index":2},{"value":35,"offby":13,"category":"$161 - $175","category_index":3},{"value":30,"offby":-4,"category":"$176 - $190","category_index":4},{"value":15,"offby":0,"category":"$191 - $205","category_index":5},{"value":0,"offby":-11,"category":"$206 - $220","category_index":6}],"phase":1,"number":1,"trial_type":"bar-choose","trial_index":70,"time_elapsed":1131077,"internal_node_id":"0.0-70.0"},{"rt":18281,"url":"\/christiane\/tickets\/utils\/testing2.html","trial_type":"point_update","trial_index":71,"time_elapsed":1150898,"internal_node_id":"0.0-71.0"},{"phase":1,"order":[49,4,28,11,43,5,20,18,24,34,36,3,6,1,15,23,8,30,2,42,13,33,47,7,12,29,27,44,21,38,10,41,48,37,22,25,45,39,17,16,9,32,35,0,26,40,14,31,46,19],"trial_type":"store_order","trial_index":72,"time_elapsed":1151911,"internal_node_id":"0.0-72.0"},{"result":163,"points":1,"place":2,"phase":1,"sequence":0,"prices":[173,163,185,181,166,148,160,185,176,184],"times":[3527,1095],"next_num":2,"trial_type":"ticket-choose","trial_index":73,"time_elapsed":1158710,"internal_node_id":"0.0-73.0"},{"result":167,"points":2,"place":1,"phase":1,"sequence":1,"prices":[178,175,185,215,167,181,186,168,208,156],"times":[979,899,594,689,1141],"next_num":5,"trial_type":"ticket-choose","trial_index":74,"time_elapsed":1165751,"internal_node_id":"0.0-74.0"},{"result":165,"points":3,"place":0,"phase":1,"sequence":2,"prices":[196,171,170,184,187,165,211,169,201,202],"times":[827,631,1144,622,615,916],"next_num":6,"trial_type":"ticket-choose","trial_index":75,"time_elapsed":1173515,"internal_node_id":"0.0-75.0"},{"result":165,"points":2,"place":1,"phase":1,"sequence":3,"prices":[177,174,186,217,165,181,187,166,153,209],"times":[1877,827,604,556,1048],"next_num":5,"trial_type":"ticket-choose","trial_index":76,"time_elapsed":1181104,"internal_node_id":"0.0-76.0"},{"result":157,"points":3,"place":0,"phase":1,"sequence":4,"prices":[201,187,157,184,198,179,188,185,178,170],"times":[574,680,860],"next_num":3,"trial_type":"ticket-choose","trial_index":77,"time_elapsed":1185520,"internal_node_id":"0.0-77.0"},{"result":169,"points":1,"place":2,"phase":1,"sequence":5,"prices":[178,175,186,212,167,179,187,169,209,153],"times":[734,879,703,623,2462,619,580,1434],"next_num":8,"trial_type":"ticket-choose","trial_index":78,"time_elapsed":1196940,"internal_node_id":"0.0-78.0"},{"result":165,"points":1,"place":2,"phase":1,"sequence":6,"prices":[158,176,187,210,177,181,187,165,208,153],"times":[833,508,621,664,608,627,689,826],"next_num":8,"trial_type":"ticket-choose","trial_index":79,"time_elapsed":1205585,"internal_node_id":"0.0-79.0"},{"result":158,"points":2,"place":1,"phase":1,"sequence":7,"prices":[158,175,186,211,177,180,187,166,209,153],"times":[1193],"next_num":1,"trial_type":"ticket-choose","trial_index":80,"time_elapsed":1208741,"internal_node_id":"0.0-80.0"},{"result":165,"points":3,"place":0,"phase":1,"sequence":8,"prices":[193,181,175,181,185,165,224,199,218,184],"times":[747,645,739,609,618,935],"next_num":6,"trial_type":"ticket-choose","trial_index":81,"time_elapsed":1215953,"internal_node_id":"0.0-81.0"},{"result":156,"points":2,"place":1,"phase":1,"sequence":9,"prices":[180,156,149,160,168,186,172,198,176,195],"times":[848,926],"next_num":2,"trial_type":"ticket-choose","trial_index":82,"time_elapsed":1219807,"internal_node_id":"0.0-82.0"},{"result":165,"points":2,"place":1,"phase":1,"sequence":10,"prices":[187,201,165,172,196,174,178,154,172,180],"times":[1071,3435,960],"next_num":3,"trial_type":"ticket-choose","trial_index":83,"time_elapsed":1227585,"internal_node_id":"0.0-83.0"},{"result":167,"points":2,"place":1,"phase":1,"sequence":11,"prices":[178,174,186,217,167,181,188,168,208,156],"times":[727,862,639,543,825],"next_num":5,"trial_type":"ticket-choose","trial_index":84,"time_elapsed":1233848,"internal_node_id":"0.0-84.0"},{"result":166,"points":1,"place":2,"phase":1,"sequence":12,"prices":[165,175,186,214,177,179,187,166,153,208],"times":[509,560,563,621,716,641,967,805],"next_num":8,"trial_type":"ticket-choose","trial_index":85,"time_elapsed":1242510,"internal_node_id":"0.0-85.0"},{"result":156,"points":3,"place":0,"phase":1,"sequence":13,"prices":[167,175,185,224,178,181,186,168,208,156],"times":[1193,628,610,594,606,798,683,1445,559,700],"next_num":10,"trial_type":"ticket-choose","trial_index":86,"time_elapsed":1253994,"internal_node_id":"0.0-86.0"},{"result":163,"points":2,"place":1,"phase":1,"sequence":14,"prices":[176,175,186,210,163,179,187,166,153,208],"times":[937,535,677,571,916],"next_num":5,"trial_type":"ticket-choose","trial_index":87,"time_elapsed":1260420,"internal_node_id":"0.0-87.0"},{"result":158,"points":2,"place":1,"phase":1,"sequence":15,"prices":[177,176,187,225,158,181,187,165,208,153],"times":[795,564,585,640,831],"next_num":5,"trial_type":"ticket-choose","trial_index":88,"time_elapsed":1266449,"internal_node_id":"0.0-88.0"},{"result":166,"points":1,"place":2,"phase":1,"sequence":16,"prices":[165,174,186,212,177,181,187,166,153,209],"times":[872,519,538,603,572,668,629,782],"next_num":8,"trial_type":"ticket-choose","trial_index":89,"time_elapsed":1274907,"internal_node_id":"0.0-89.0"},{"result":165,"points":2,"place":1,"phase":1,"sequence":17,"prices":[191,170,182,165,175,182,203,157,195,200],"times":[1262,584,545,864],"next_num":4,"trial_type":"ticket-choose","trial_index":90,"time_elapsed":1280687,"internal_node_id":"0.0-90.0"},{"result":153,"points":3,"place":0,"phase":1,"sequence":18,"prices":[167,175,186,225,178,179,187,169,209,153],"times":[1005,520,596,631,536,631,892,975,588,617],"next_num":10,"trial_type":"ticket-choose","trial_index":91,"time_elapsed":1291339,"internal_node_id":"0.0-91.0"},{"result":186,"points":1,"place":4,"phase":1,"sequence":19,"prices":[220,173,201,197,169,205,198,183,178,186],"times":[867,752,574,626,568,893,851,710,650,878],"next_num":10,"trial_type":"ticket-choose","trial_index":92,"time_elapsed":1302387,"internal_node_id":"0.0-92.0"},{"result":163,"points":2,"place":1,"phase":1,"sequence":20,"prices":[163,175,187,209,176,180,188,165,154,208],"times":[1051],"next_num":1,"trial_type":"ticket-choose","trial_index":93,"time_elapsed":1305181,"internal_node_id":"0.0-93.0"},{"result":165,"points":2,"place":1,"phase":1,"sequence":21,"prices":[183,179,188,165,168,173,205,159,187,191],"times":[525,555,614,1235],"next_num":4,"trial_type":"ticket-choose","trial_index":94,"time_elapsed":1310569,"internal_node_id":"0.0-94.0"},{"result":152,"points":3,"place":0,"phase":1,"sequence":22,"prices":[200,180,203,152,175,170,160,154,176,191],"times":[672,537,519,972],"next_num":4,"trial_type":"ticket-choose","trial_index":95,"time_elapsed":1315717,"internal_node_id":"0.0-95.0"},{"result":165,"points":2,"place":1,"phase":1,"sequence":23,"prices":[165,175,187,209,177,180,188,167,154,208],"times":[2157],"next_num":1,"trial_type":"ticket-choose","trial_index":96,"time_elapsed":1319716,"internal_node_id":"0.0-96.0"},{"result":163,"points":2,"place":1,"phase":1,"sequence":24,"prices":[163,175,186,214,176,179,187,166,153,208],"times":[846],"next_num":1,"trial_type":"ticket-choose","trial_index":97,"time_elapsed":1322453,"internal_node_id":"0.0-97.0"},{"result":165,"points":1,"place":2,"phase":1,"sequence":25,"prices":[185,179,191,165,161,173,199,150,188,168],"times":[715,552,622,810],"next_num":4,"trial_type":"ticket-choose","trial_index":98,"time_elapsed":1327579,"internal_node_id":"0.0-98.0"},{"result":165,"points":3,"place":0,"phase":1,"sequence":26,"prices":[192,172,171,178,188,165,217,168,195,197],"times":[754,552,555,548,580,825],"next_num":6,"trial_type":"ticket-choose","trial_index":99,"time_elapsed":1334248,"internal_node_id":"0.0-99.0"},{"result":159,"points":1,"place":2,"phase":1,"sequence":27,"prices":[181,159,149,175,185,151,163,174,178,207],"times":[676,884],"next_num":2,"trial_type":"ticket-choose","trial_index":100,"time_elapsed":1337792,"internal_node_id":"0.0-100.0"},{"result":158,"points":2,"place":1,"phase":1,"sequence":28,"prices":[177,175,186,221,158,180,187,166,209,153],"times":[1037,581,544,561,786],"next_num":5,"trial_type":"ticket-choose","trial_index":101,"time_elapsed":1343945,"internal_node_id":"0.0-101.0"},{"result":163,"points":3,"place":0,"phase":1,"sequence":29,"prices":[163,199,196,199,185,195,227,163,177,166],"times":[996],"next_num":1,"trial_type":"ticket-choose","trial_index":102,"time_elapsed":1346742,"internal_node_id":"0.0-102.0"},{"result":165,"points":2,"place":1,"phase":1,"sequence":30,"prices":[177,175,187,209,165,180,188,165,154,208],"times":[640,598,544,553,849],"next_num":5,"trial_type":"ticket-choose","trial_index":103,"time_elapsed":1352564,"internal_node_id":"0.0-103.0"},{"result":155,"points":2,"place":1,"phase":1,"sequence":31,"prices":[200,207,155,158,156,168,167,135,178,177],"times":[643,594,806],"next_num":3,"trial_type":"ticket-choose","trial_index":104,"time_elapsed":1356808,"internal_node_id":"0.0-104.0"},{"result":179,"points":1,"place":4,"phase":1,"sequence":32,"prices":[181,214,169,147,182,193,178,184,176,179],"times":[780,1125,822,502,661,636,590,626,837,1189],"next_num":10,"trial_type":"ticket-choose","trial_index":105,"time_elapsed":1368261,"internal_node_id":"0.0-105.0"},{"result":165,"points":1,"place":2,"phase":1,"sequence":33,"prices":[199,193,169,165,202,182,151,164,176,171],"times":[694,632,649,846],"next_num":4,"trial_type":"ticket-choose","trial_index":106,"time_elapsed":1373566,"internal_node_id":"0.0-106.0"},{"result":158,"points":2,"place":1,"phase":1,"sequence":34,"prices":[177,175,186,209,158,181,188,167,208,154],"times":[869,736,593,610,811],"next_num":5,"trial_type":"ticket-choose","trial_index":107,"time_elapsed":1379849,"internal_node_id":"0.0-107.0"},{"result":166,"points":1,"place":3,"phase":1,"sequence":35,"prices":[201,204,179,166,185,165,214,156,202,165],"times":[706,546,632,920],"next_num":4,"trial_type":"ticket-choose","trial_index":108,"time_elapsed":1385195,"internal_node_id":"0.0-108.0"},{"result":164,"points":3,"place":0,"phase":1,"sequence":36,"prices":[199,191,188,174,167,193,189,164,176,170],"times":[546,810,571,616,891,696,565,798],"next_num":8,"trial_type":"ticket-choose","trial_index":109,"time_elapsed":1393940,"internal_node_id":"0.0-109.0"},{"result":167,"points":2,"place":1,"phase":1,"sequence":37,"prices":[189,167,180,197,165,168,172,213,178,171],"times":[922,958],"next_num":2,"trial_type":"ticket-choose","trial_index":110,"time_elapsed":1397812,"internal_node_id":"0.0-110.0"},{"result":163,"points":2,"place":1,"phase":1,"sequence":38,"prices":[176,186,178,217,163,181,187,166,153,209],"times":[511,553,611,596,840],"next_num":5,"trial_type":"ticket-choose","trial_index":111,"time_elapsed":1403581,"internal_node_id":"0.0-111.0"},{"result":163,"points":2,"place":1,"phase":1,"sequence":39,"prices":[176,187,179,209,163,180,188,165,154,208],"times":[887,584,621,699,903],"next_num":5,"trial_type":"ticket-choose","trial_index":112,"time_elapsed":1409986,"internal_node_id":"0.0-112.0"},{"result":165,"points":2,"place":1,"phase":1,"sequence":40,"prices":[177,175,186,210,165,179,187,166,153,208],"times":[713,768,594,568,808],"next_num":5,"trial_type":"ticket-choose","trial_index":113,"time_elapsed":1416082,"internal_node_id":"0.0-113.0"},{"result":165,"points":2,"place":1,"phase":1,"sequence":41,"prices":[193,174,224,165,187,190,224,161,194,195],"times":[659,541,686,1544],"next_num":4,"trial_type":"ticket-choose","trial_index":114,"time_elapsed":1421957,"internal_node_id":"0.0-114.0"},{"result":153,"points":2,"place":1,"phase":1,"sequence":42,"prices":[167,153,172,185,195,143,184,211,177,227],"times":[1716,782],"next_num":2,"trial_type":"ticket-choose","trial_index":115,"time_elapsed":1426835,"internal_node_id":"0.0-115.0"},{"result":156,"points":3,"place":0,"phase":1,"sequence":43,"prices":[167,174,186,211,178,181,188,168,208,156],"times":[1367,504,513,543,509,551,555,1385,617,622],"next_num":10,"trial_type":"ticket-choose","trial_index":116,"time_elapsed":1437661,"internal_node_id":"0.0-116.0"},{"result":165,"points":1,"place":2,"phase":1,"sequence":44,"prices":[200,173,182,169,207,165,152,202,161,204],"times":[809,1374,646,901,589,1060],"next_num":6,"trial_type":"ticket-choose","trial_index":117,"time_elapsed":1446091,"internal_node_id":"0.0-117.0"},{"result":150,"points":3,"place":0,"phase":1,"sequence":45,"prices":[190,150,175,161,188,207,157,194,178,199],"times":[554,854],"next_num":2,"trial_type":"ticket-choose","trial_index":118,"time_elapsed":1449493,"internal_node_id":"0.0-118.0"},{"result":163,"points":2,"place":1,"phase":1,"sequence":46,"prices":[163,174,186,212,176,181,187,166,153,209],"times":[1150],"next_num":1,"trial_type":"ticket-choose","trial_index":119,"time_elapsed":1452431,"internal_node_id":"0.0-119.0"},{"result":165,"points":1,"place":2,"phase":1,"sequence":47,"prices":[171,169,186,165,163,167,220,148,187,165],"times":[1117,696,615,913],"next_num":4,"trial_type":"ticket-choose","trial_index":120,"time_elapsed":1458193,"internal_node_id":"0.0-120.0"},{"result":208,"points":0,"place":6,"phase":1,"sequence":48,"prices":[214,184,226,192,215,158,199,175,176,208],"times":[1654,562,697,605,645,507,597,614,978,785],"next_num":10,"trial_type":"ticket-choose","trial_index":121,"time_elapsed":1469880,"internal_node_id":"0.0-121.0"},{"result":167,"points":1,"place":2,"phase":1,"sequence":49,"prices":[158,175,186,209,177,181,188,167,208,154],"times":[1126,620,632,552,552,654,605,736],"next_num":8,"trial_type":"ticket-choose","trial_index":122,"time_elapsed":1478636,"internal_node_id":"0.0-122.0"},{"responses":[{"value":0,"offby":-1,"category":"$115 - $130","category_index":0},{"value":2,"offby":-3,"category":"$131 - $145","category_index":1},{"value":15,"offby":3,"category":"$146 - $160","category_index":2},{"value":25,"offby":3,"category":"$161 - $175","category_index":3},{"value":30,"offby":-4,"category":"$176 - $190","category_index":4},{"value":25,"offby":10,"category":"$191 - $205","category_index":5},{"value":3,"offby":-8,"category":"$206 - $220","category_index":6}],"phase":1,"number":1,"trial_type":"bar-choose","trial_index":123,"time_elapsed":1520147,"internal_node_id":"0.0-123.0"},{"special_comment":"No I didn't quite, but I probably should have. ","trial_type":"special_sequence","trial_index":124,"time_elapsed":1542530,"internal_node_id":"0.0-124.0"},{"during":"Nothing","bonus":252,"trial_type":"final","trial_index":125,"time_elapsed":1573279,"internal_node_id":"0.0-125.0"}],"bonus":252}