{"start_time":"2017-05-24 15:35:22","end_time":"2017-05-24 16:14:30","points_phase0":89,"points_phase1":99,"phase_order":0,"age":51,"gender":"f","tries":2,"during":"Nothing","worker_id":"A315ZG72CPNAHV","assignment_id":"37TRT2X24RK1UBE4MOKM0BR7HC1BJP","data":[{"rt":116000,"url":"\/christiane\/tickets\/utils\/consent.html","trial_type":"html","trial_index":0,"time_elapsed":116225,"internal_node_id":"0.0-0.0"},{"age":51,"gender":"f","trial_type":"age","trial_index":1,"time_elapsed":127135,"internal_node_id":"0.0-1.0"},{"worker_id":"A315ZG72CPNAHV","trial_type":"workerid","trial_index":2,"time_elapsed":349463,"internal_node_id":"0.0-2.0"},{"tries":2,"trial_type":"instructions_check","trial_index":3,"time_elapsed":553507,"internal_node_id":"0.0-3.0"},{"rt":13164,"url":"\/christiane\/tickets\/utils\/start.html","trial_type":"html","trial_index":4,"time_elapsed":567784,"internal_node_id":"0.0-4.0"},{"trial_type":"number-animation","trial_index":5,"time_elapsed":609121,"internal_node_id":"0.0-5.0"},{"phase":0,"sequence":0,"avg":181,"response":160,"trial_type":"training_avg","trial_index":6,"time_elapsed":617256,"internal_node_id":"0.0-6.0"},{"trial_type":"number-animation","trial_index":7,"time_elapsed":644600,"internal_node_id":"0.0-7.0"},{"phase":0,"sequence":1,"avg":188,"response":173,"trial_type":"training_avg","trial_index":8,"time_elapsed":658591,"internal_node_id":"0.0-8.0"},{"trial_type":"number-animation","trial_index":9,"time_elapsed":676692,"internal_node_id":"0.0-9.0"},{"phase":0,"sequence":2,"avg":188,"response":177,"trial_type":"training_avg","trial_index":10,"time_elapsed":689556,"internal_node_id":"0.0-10.0"},{"trial_type":"number-animation","trial_index":11,"time_elapsed":712613,"internal_node_id":"0.0-11.0"},{"phase":0,"sequence":3,"avg":177,"response":170,"trial_type":"training_avg","trial_index":12,"time_elapsed":722859,"internal_node_id":"0.0-12.0"},{"trial_type":"number-animation","trial_index":13,"time_elapsed":745043,"internal_node_id":"0.0-13.0"},{"phase":0,"sequence":4,"avg":182,"response":178,"trial_type":"training_avg","trial_index":14,"time_elapsed":763919,"internal_node_id":"0.0-14.0"},{"responses":[{"value":2,"offby":1,"category":"$115 - $130","category_index":0},{"value":5,"offby":0,"category":"$131 - $145","category_index":1},{"value":15,"offby":3,"category":"$146 - $160","category_index":2},{"value":24,"offby":2,"category":"$161 - $175","category_index":3},{"value":31,"offby":-3,"category":"$176 - $190","category_index":4},{"value":15,"offby":0,"category":"$191 - $205","category_index":5},{"value":8,"offby":-3,"category":"$206 - $220","category_index":6}],"phase":0,"number":0,"trial_type":"bar-choose","trial_index":15,"time_elapsed":952643,"internal_node_id":"0.0-15.0"},{"rt":21050,"url":"\/christiane\/tickets\/utils\/testing.html","trial_type":"html","trial_index":16,"time_elapsed":974809,"internal_node_id":"0.0-16.0"},{"phase":0,"order":[49,18,27,3,37,5,10,20,15,29,12,33,40,39,22,1,8,47,42,34,43,35,19,13,0,2,9,45,6,11,31,21,4,38,46,17,26,48,44,25,24,36,7,41,28,23,32,14,16,30],"trial_type":"store_order","trial_index":17,"time_elapsed":975810,"internal_node_id":"0.0-17.0"},{"result":165,"points":2,"place":1,"phase":0,"sequence":-1,"prices":[184,180,224,165,181,199,185,193,218,146],"times":[4485,1056,1019,1992],"next_num":4,"trial_type":"ticket-choose","trial_index":18,"time_elapsed":988453,"internal_node_id":"0.0-18.0"},{"rt":25110,"url":"\/christiane\/tickets\/utils\/testing_after.html","trial_type":"html","trial_index":19,"time_elapsed":1014699,"internal_node_id":"0.0-19.0"},{"result":166,"points":1,"place":3,"phase":0,"sequence":0,"prices":[183,163,185,180,166,148,160,186,176,184],"times":[3970,996,1292,1241,1819],"next_num":5,"trial_type":"ticket-choose","trial_index":20,"time_elapsed":1029036,"internal_node_id":"0.0-20.0"},{"result":158,"points":2,"place":1,"phase":0,"sequence":1,"prices":[175,186,158,211,180,187,177,166,209,153],"times":[4029,896,1982],"next_num":3,"trial_type":"ticket-choose","trial_index":21,"time_elapsed":1039923,"internal_node_id":"0.0-21.0"},{"result":186,"points":1,"place":4,"phase":0,"sequence":2,"prices":[192,165,171,178,188,217,172,195,197,186],"times":[1966,806,865,926,1291,1180,1040,1290,1262,3118],"next_num":10,"trial_type":"ticket-choose","trial_index":22,"time_elapsed":1060125,"internal_node_id":"0.0-22.0"},{"result":181,"points":0,"place":5,"phase":0,"sequence":3,"prices":[174,186,178,217,181,188,167,168,208,156],"times":[3188,877,855,1068,2610],"next_num":5,"trial_type":"ticket-choose","trial_index":23,"time_elapsed":1072470,"internal_node_id":"0.0-23.0"},{"result":169,"points":1,"place":3,"phase":0,"sequence":4,"prices":[198,193,169,163,202,182,152,164,177,171],"times":[1777,814,2195],"next_num":3,"trial_type":"ticket-choose","trial_index":24,"time_elapsed":1080879,"internal_node_id":"0.0-24.0"},{"result":167,"points":2,"place":1,"phase":0,"sequence":5,"prices":[175,186,178,212,179,187,167,169,209,153],"times":[2561,812,887,917,1139,1932,1807],"next_num":7,"trial_type":"ticket-choose","trial_index":25,"time_elapsed":1095009,"internal_node_id":"0.0-25.0"},{"result":165,"points":2,"place":1,"phase":0,"sequence":6,"prices":[175,187,177,209,180,188,165,165,154,208],"times":[4733,1810,1140,936,1312,968,1982],"next_num":7,"trial_type":"ticket-choose","trial_index":26,"time_elapsed":1112172,"internal_node_id":"0.0-26.0"},{"result":181,"points":0,"place":5,"phase":0,"sequence":7,"prices":[176,187,158,210,181,187,177,165,208,153],"times":[2163,846,1930,817,1679],"next_num":5,"trial_type":"ticket-choose","trial_index":27,"time_elapsed":1123137,"internal_node_id":"0.0-27.0"},{"result":163,"points":2,"place":1,"phase":0,"sequence":8,"prices":[175,186,176,210,179,187,163,166,153,208],"times":[1858,674,853,855,1069,946,1638],"next_num":7,"trial_type":"ticket-choose","trial_index":28,"time_elapsed":1135391,"internal_node_id":"0.0-28.0"},{"result":173,"points":1,"place":4,"phase":0,"sequence":9,"prices":[185,170,182,201,173,199,171,188,165,168],"times":[2741,6267,1840,898,1768],"next_num":5,"trial_type":"ticket-choose","trial_index":29,"time_elapsed":1152543,"internal_node_id":"0.0-29.0"},{"result":163,"points":2,"place":1,"phase":0,"sequence":10,"prices":[175,186,163,214,179,187,176,166,153,208],"times":[2891,896,1627],"next_num":3,"trial_type":"ticket-choose","trial_index":30,"time_elapsed":1161411,"internal_node_id":"0.0-30.0"},{"result":168,"points":1,"place":2,"phase":0,"sequence":11,"prices":[183,182,192,168,173,205,167,187,165,170],"times":[1975,865,1089,1436],"next_num":4,"trial_type":"ticket-choose","trial_index":31,"time_elapsed":1170480,"internal_node_id":"0.0-31.0"},{"result":150,"points":3,"place":0,"phase":0,"sequence":12,"prices":[189,150,175,160,188,207,158,194,178,199],"times":[2738,1850],"next_num":2,"trial_type":"ticket-choose","trial_index":32,"time_elapsed":1179598,"internal_node_id":"0.0-32.0"},{"result":167,"points":2,"place":1,"phase":0,"sequence":13,"prices":[189,167,180,197,165,168,172,213,178,171],"times":[1696,2102],"next_num":2,"trial_type":"ticket-choose","trial_index":33,"time_elapsed":1186719,"internal_node_id":"0.0-33.0"},{"result":158,"points":2,"place":1,"phase":0,"sequence":14,"prices":[175,186,177,209,181,188,158,167,208,154],"times":[1998,1149,838,926,1059,1290,1403],"next_num":7,"trial_type":"ticket-choose","trial_index":34,"time_elapsed":1199590,"internal_node_id":"0.0-34.0"},{"result":168,"points":1,"place":2,"phase":0,"sequence":15,"prices":[175,185,167,224,181,186,178,168,208,156],"times":[2891,814,1059,1028,1636,1230,1464,1830],"next_num":8,"trial_type":"ticket-choose","trial_index":35,"time_elapsed":1216194,"internal_node_id":"0.0-35.0"},{"result":165,"points":2,"place":1,"phase":0,"sequence":16,"prices":[174,186,165,212,181,187,177,167,153,209],"times":[3342,2590,2367],"next_num":3,"trial_type":"ticket-choose","trial_index":36,"time_elapsed":1227860,"internal_node_id":"0.0-36.0"},{"result":152,"points":3,"place":0,"phase":0,"sequence":17,"prices":[200,181,203,152,175,171,160,154,176,191],"times":[3067,813,846,1420],"next_num":4,"trial_type":"ticket-choose","trial_index":37,"time_elapsed":1240344,"internal_node_id":"0.0-37.0"},{"result":173,"points":2,"place":1,"phase":0,"sequence":18,"prices":[222,173,202,197,143,205,198,183,178,186],"times":[2293,1871],"next_num":2,"trial_type":"ticket-choose","trial_index":38,"time_elapsed":1247322,"internal_node_id":"0.0-38.0"},{"result":155,"points":2,"place":1,"phase":0,"sequence":19,"prices":[181,155,148,161,168,187,172,199,176,194],"times":[2008,1899],"next_num":2,"trial_type":"ticket-choose","trial_index":39,"time_elapsed":1254379,"internal_node_id":"0.0-39.0"},{"result":157,"points":3,"place":0,"phase":0,"sequence":20,"prices":[201,187,157,184,198,179,188,185,178,170],"times":[2020,837,1484],"next_num":3,"trial_type":"ticket-choose","trial_index":40,"time_elapsed":1262137,"internal_node_id":"0.0-40.0"},{"result":168,"points":1,"place":2,"phase":0,"sequence":21,"prices":[168,154,172,185,195,144,184,211,177,227],"times":[5045],"next_num":1,"trial_type":"ticket-choose","trial_index":41,"time_elapsed":1269936,"internal_node_id":"0.0-41.0"},{"result":158,"points":2,"place":1,"phase":0,"sequence":22,"prices":[175,186,158,209,181,188,177,167,208,154],"times":[1435,953,2286],"next_num":3,"trial_type":"ticket-choose","trial_index":42,"time_elapsed":1278009,"internal_node_id":"0.0-42.0"},{"result":163,"points":2,"place":1,"phase":0,"sequence":23,"prices":[175,187,163,209,180,188,176,165,154,208],"times":[13239,846,1972],"next_num":3,"trial_type":"ticket-choose","trial_index":43,"time_elapsed":1297462,"internal_node_id":"0.0-43.0"},{"result":168,"points":1,"place":2,"phase":0,"sequence":24,"prices":[174,186,167,211,181,188,178,168,208,156],"times":[2488,775,1352,877,1108,937,1161,1627],"next_num":8,"trial_type":"ticket-choose","trial_index":44,"time_elapsed":1312264,"internal_node_id":"0.0-44.0"},{"result":167,"points":2,"place":1,"phase":0,"sequence":25,"prices":[175,186,167,225,179,187,178,169,209,153],"times":[2465,2133,1749],"next_num":3,"trial_type":"ticket-choose","trial_index":45,"time_elapsed":1321802,"internal_node_id":"0.0-45.0"},{"result":165,"points":2,"place":1,"phase":0,"sequence":26,"prices":[175,186,177,210,179,187,165,166,153,208],"times":[1343,949,1321,47066,918,2081,1331],"next_num":7,"trial_type":"ticket-choose","trial_index":46,"time_elapsed":1380896,"internal_node_id":"0.0-46.0"},{"result":184,"points":1,"place":4,"phase":0,"sequence":27,"prices":[212,192,188,184,167,193,189,164,176,170],"times":[1859,1639,1189,2336],"next_num":4,"trial_type":"ticket-choose","trial_index":47,"time_elapsed":1391084,"internal_node_id":"0.0-47.0"},{"result":165,"points":2,"place":1,"phase":0,"sequence":28,"prices":[175,186,165,214,179,187,177,166,153,208],"times":[2762,2447,1717],"next_num":3,"trial_type":"ticket-choose","trial_index":48,"time_elapsed":1401007,"internal_node_id":"0.0-48.0"},{"result":165,"points":2,"place":1,"phase":0,"sequence":29,"prices":[174,186,177,217,181,187,165,166,153,209],"times":[2711,1059,1354,1534,2347,1851,1811],"next_num":7,"trial_type":"ticket-choose","trial_index":49,"time_elapsed":1417486,"internal_node_id":"0.0-49.0"},{"result":170,"points":1,"place":3,"phase":0,"sequence":30,"prices":[171,203,175,170,167,220,192,186,165,165],"times":[4478,928,956,1941],"next_num":4,"trial_type":"ticket-choose","trial_index":50,"time_elapsed":1429227,"internal_node_id":"0.0-50.0"},{"result":158,"points":2,"place":1,"phase":0,"sequence":31,"prices":[175,186,177,221,180,187,158,166,209,153],"times":[2635,1334,977,1068,1163,1117,2034],"next_num":7,"trial_type":"ticket-choose","trial_index":51,"time_elapsed":1443649,"internal_node_id":"0.0-51.0"},{"result":167,"points":2,"place":1,"phase":0,"sequence":32,"prices":[175,185,178,215,181,186,167,168,208,156],"times":[4769,836,864,856,918,825,2531],"next_num":7,"trial_type":"ticket-choose","trial_index":52,"time_elapsed":1459336,"internal_node_id":"0.0-52.0"},{"result":168,"points":1,"place":2,"phase":0,"sequence":33,"prices":[168,199,196,198,185,195,227,163,177,166],"times":[3085],"next_num":1,"trial_type":"ticket-choose","trial_index":53,"time_elapsed":1465883,"internal_node_id":"0.0-53.0"},{"result":158,"points":3,"place":0,"phase":0,"sequence":34,"prices":[210,184,226,193,215,158,199,175,176,208],"times":[2875,1190,886,898,875,1962],"next_num":6,"trial_type":"ticket-choose","trial_index":54,"time_elapsed":1478525,"internal_node_id":"0.0-54.0"},{"result":163,"points":2,"place":1,"phase":0,"sequence":35,"prices":[174,186,176,217,181,187,163,166,153,209],"times":[3958,1557,1860,957,1778,1628,1505],"next_num":7,"trial_type":"ticket-choose","trial_index":55,"time_elapsed":1495878,"internal_node_id":"0.0-55.0"},{"result":165,"points":2,"place":1,"phase":0,"sequence":36,"prices":[200,165,165,173,182,207,161,202,204,180],"times":[2407,1790],"next_num":2,"trial_type":"ticket-choose","trial_index":56,"time_elapsed":1503111,"internal_node_id":"0.0-56.0"},{"result":169,"points":2,"place":1,"phase":0,"sequence":37,"prices":[181,215,169,147,182,193,177,184,176,179],"times":[2176,1000,2284],"next_num":3,"trial_type":"ticket-choose","trial_index":57,"time_elapsed":1511747,"internal_node_id":"0.0-57.0"},{"result":159,"points":1,"place":2,"phase":0,"sequence":38,"prices":[180,159,149,175,185,141,163,174,178,207],"times":[3108,1476],"next_num":2,"trial_type":"ticket-choose","trial_index":58,"time_elapsed":1520423,"internal_node_id":"0.0-58.0"},{"result":165,"points":2,"place":1,"phase":0,"sequence":39,"prices":[201,165,162,166,185,214,165,202,204,179],"times":[2633,3220],"next_num":2,"trial_type":"ticket-choose","trial_index":59,"time_elapsed":1529608,"internal_node_id":"0.0-59.0"},{"result":165,"points":3,"place":0,"phase":0,"sequence":40,"prices":[193,165,175,181,185,224,180,199,218,184],"times":[2168,1910],"next_num":2,"trial_type":"ticket-choose","trial_index":60,"time_elapsed":1540872,"internal_node_id":"0.0-60.0"},{"result":165,"points":2,"place":1,"phase":0,"sequence":41,"prices":[188,200,165,172,198,174,177,154,177,180],"times":[2999,947,1516],"next_num":3,"trial_type":"ticket-choose","trial_index":61,"time_elapsed":1549791,"internal_node_id":"0.0-61.0"},{"result":165,"points":2,"place":1,"phase":0,"sequence":42,"prices":[175,187,165,209,180,188,177,166,154,208],"times":[2355,1108,1535],"next_num":3,"trial_type":"ticket-choose","trial_index":62,"time_elapsed":1557757,"internal_node_id":"0.0-62.0"},{"result":155,"points":2,"place":1,"phase":0,"sequence":43,"prices":[201,207,155,158,156,165,167,135,178,177],"times":[2592,815,1454],"next_num":3,"trial_type":"ticket-choose","trial_index":63,"time_elapsed":1565773,"internal_node_id":"0.0-63.0"},{"result":165,"points":3,"place":0,"phase":0,"sequence":44,"prices":[196,165,170,184,187,211,171,201,202,185],"times":[1840,1411],"next_num":2,"trial_type":"ticket-choose","trial_index":64,"time_elapsed":1572206,"internal_node_id":"0.0-64.0"},{"result":158,"points":2,"place":1,"phase":0,"sequence":45,"prices":[176,187,177,225,181,187,158,165,208,153],"times":[1740,856,876,844,1200,1920,1424],"next_num":7,"trial_type":"ticket-choose","trial_index":65,"time_elapsed":1586127,"internal_node_id":"0.0-65.0"},{"result":169,"points":2,"place":1,"phase":0,"sequence":46,"prices":[193,169,171,187,190,224,174,194,165,188],"times":[1773,2935],"next_num":2,"trial_type":"ticket-choose","trial_index":66,"time_elapsed":1593810,"internal_node_id":"0.0-66.0"},{"result":163,"points":2,"place":1,"phase":0,"sequence":47,"prices":[174,186,163,212,181,187,176,166,153,209],"times":[2313,1435,1615],"next_num":3,"trial_type":"ticket-choose","trial_index":67,"time_elapsed":1602971,"internal_node_id":"0.0-67.0"},{"result":163,"points":2,"place":1,"phase":0,"sequence":48,"prices":[175,187,176,209,180,188,163,165,154,208],"times":[2160,844,1333,855,894,888,1584],"next_num":7,"trial_type":"ticket-choose","trial_index":68,"time_elapsed":1615977,"internal_node_id":"0.0-68.0"},{"result":170,"points":1,"place":2,"phase":0,"sequence":49,"prices":[191,172,169,175,182,203,170,195,165,176],"times":[3860,845,737,843,1130,927,1476],"next_num":7,"trial_type":"ticket-choose","trial_index":69,"time_elapsed":1630120,"internal_node_id":"0.0-69.0"},{"responses":[{"value":0,"offby":-1,"category":"$115 - $130","category_index":0},{"value":0,"offby":-5,"category":"$131 - $145","category_index":1},{"value":0,"offby":-12,"category":"$146 - $160","category_index":2},{"value":38,"offby":16,"category":"$161 - $175","category_index":3},{"value":37,"offby":3,"category":"$176 - $190","category_index":4},{"value":15,"offby":0,"category":"$191 - $205","category_index":5},{"value":10,"offby":-1,"category":"$206 - $220","category_index":6}],"phase":1,"number":1,"trial_type":"bar-choose","trial_index":70,"time_elapsed":1703188,"internal_node_id":"0.0-70.0"},{"rt":27995,"url":"\/christiane\/tickets\/utils\/testing2.html","trial_type":"point_update","trial_index":71,"time_elapsed":1732430,"internal_node_id":"0.0-71.0"},{"phase":1,"order":[25,14,1,36,3,43,26,9,38,31,46,44,28,47,30,13,15,29,23,39,10,6,16,34,49,12,24,7,48,22,35,21,8,19,18,40,17,0,4,2,33,27,45,42,5,11,41,37,20,32],"trial_type":"store_order","trial_index":72,"time_elapsed":1733432,"internal_node_id":"0.0-72.0"},{"result":179,"points":1,"place":4,"phase":1,"sequence":0,"prices":[201,204,179,166,185,165,214,156,202,165],"times":[2766,775,2195],"next_num":3,"trial_type":"ticket-choose","trial_index":73,"time_elapsed":1742310,"internal_node_id":"0.0-73.0"},{"result":163,"points":2,"place":1,"phase":1,"sequence":1,"prices":[163,174,186,212,176,181,187,166,153,209],"times":[2318],"next_num":1,"trial_type":"ticket-choose","trial_index":74,"time_elapsed":1747077,"internal_node_id":"0.0-74.0"},{"result":167,"points":2,"place":1,"phase":1,"sequence":2,"prices":[167,175,185,224,178,181,186,168,208,156],"times":[1840],"next_num":1,"trial_type":"ticket-choose","trial_index":75,"time_elapsed":1751786,"internal_node_id":"0.0-75.0"},{"result":165,"points":2,"place":1,"phase":1,"sequence":3,"prices":[187,201,165,172,196,174,178,154,172,180],"times":[2134,1029,1351],"next_num":3,"trial_type":"ticket-choose","trial_index":76,"time_elapsed":1759350,"internal_node_id":"0.0-76.0"},{"result":167,"points":2,"place":1,"phase":1,"sequence":4,"prices":[178,174,186,217,167,181,188,168,208,156],"times":[4077,802,1099,1049,1566],"next_num":5,"trial_type":"ticket-choose","trial_index":77,"time_elapsed":1772455,"internal_node_id":"0.0-77.0"},{"result":157,"points":3,"place":0,"phase":1,"sequence":5,"prices":[201,187,157,184,198,179,188,185,178,170],"times":[1274,713,1901],"next_num":3,"trial_type":"ticket-choose","trial_index":78,"time_elapsed":1781412,"internal_node_id":"0.0-78.0"},{"result":169,"points":1,"place":3,"phase":1,"sequence":6,"prices":[200,173,182,169,207,165,152,202,161,204],"times":[1861,986,804,1391],"next_num":4,"trial_type":"ticket-choose","trial_index":79,"time_elapsed":1789392,"internal_node_id":"0.0-79.0"},{"result":165,"points":2,"place":1,"phase":1,"sequence":7,"prices":[177,175,186,210,165,179,187,166,153,208],"times":[1392,1028,976,918,1413],"next_num":5,"trial_type":"ticket-choose","trial_index":80,"time_elapsed":1798753,"internal_node_id":"0.0-80.0"},{"result":163,"points":3,"place":0,"phase":1,"sequence":8,"prices":[163,199,196,199,185,195,227,163,177,166],"times":[2941],"next_num":1,"trial_type":"ticket-choose","trial_index":81,"time_elapsed":1804645,"internal_node_id":"0.0-81.0"},{"result":169,"points":0,"place":5,"phase":1,"sequence":9,"prices":[171,169,186,165,163,167,220,148,187,165],"times":[1903,1348],"next_num":2,"trial_type":"ticket-choose","trial_index":82,"time_elapsed":1811409,"internal_node_id":"0.0-82.0"},{"result":158,"points":3,"place":0,"phase":1,"sequence":10,"prices":[214,184,226,192,215,158,199,175,176,208],"times":[2287,2132,807,1868,887,1452],"next_num":6,"trial_type":"ticket-choose","trial_index":83,"time_elapsed":1824400,"internal_node_id":"0.0-83.0"},{"result":159,"points":1,"place":2,"phase":1,"sequence":11,"prices":[181,159,149,175,185,151,163,174,178,207],"times":[2550,1697],"next_num":2,"trial_type":"ticket-choose","trial_index":84,"time_elapsed":1831551,"internal_node_id":"0.0-84.0"},{"result":165,"points":3,"place":0,"phase":1,"sequence":12,"prices":[196,171,170,184,187,165,211,169,201,202],"times":[1332,3938,1971,1128,385,1250],"next_num":6,"trial_type":"ticket-choose","trial_index":85,"time_elapsed":1845596,"internal_node_id":"0.0-85.0"},{"result":152,"points":3,"place":0,"phase":1,"sequence":13,"prices":[200,180,203,152,175,170,160,154,176,191],"times":[1941,1200,2284,1576],"next_num":4,"trial_type":"ticket-choose","trial_index":86,"time_elapsed":1868664,"internal_node_id":"0.0-86.0"},{"result":165,"points":2,"place":1,"phase":1,"sequence":14,"prices":[191,170,182,165,175,182,203,157,195,200],"times":[1761,966,899,1878],"next_num":4,"trial_type":"ticket-choose","trial_index":87,"time_elapsed":1877419,"internal_node_id":"0.0-87.0"},{"result":163,"points":2,"place":1,"phase":1,"sequence":15,"prices":[163,175,187,209,176,180,188,165,154,208],"times":[1556],"next_num":1,"trial_type":"ticket-choose","trial_index":88,"time_elapsed":1881761,"internal_node_id":"0.0-88.0"},{"result":163,"points":2,"place":1,"phase":1,"sequence":16,"prices":[176,175,186,210,163,179,187,166,153,208],"times":[1621,1017,1445,875,1444],"next_num":5,"trial_type":"ticket-choose","trial_index":89,"time_elapsed":1891501,"internal_node_id":"0.0-89.0"},{"result":161,"points":2,"place":1,"phase":1,"sequence":17,"prices":[185,179,191,165,161,173,199,150,188,168],"times":[1840,2154,977,884,1384],"next_num":5,"trial_type":"ticket-choose","trial_index":90,"time_elapsed":1902162,"internal_node_id":"0.0-90.0"},{"result":158,"points":2,"place":1,"phase":1,"sequence":18,"prices":[177,176,187,225,158,181,187,165,208,153],"times":[1546,1111,964,867,1676],"next_num":5,"trial_type":"ticket-choose","trial_index":91,"time_elapsed":1912447,"internal_node_id":"0.0-91.0"},{"result":167,"points":2,"place":1,"phase":1,"sequence":19,"prices":[189,167,180,197,165,168,172,213,178,171],"times":[2386,1931],"next_num":2,"trial_type":"ticket-choose","trial_index":92,"time_elapsed":1919729,"internal_node_id":"0.0-92.0"},{"result":165,"points":2,"place":1,"phase":1,"sequence":20,"prices":[177,175,187,209,165,180,188,165,154,208],"times":[1543,865,2114,257,1484],"next_num":5,"trial_type":"ticket-choose","trial_index":93,"time_elapsed":1929272,"internal_node_id":"0.0-93.0"},{"result":165,"points":2,"place":1,"phase":1,"sequence":21,"prices":[165,175,186,214,177,179,187,166,153,208],"times":[2264],"next_num":1,"trial_type":"ticket-choose","trial_index":94,"time_elapsed":1934475,"internal_node_id":"0.0-94.0"},{"result":163,"points":2,"place":1,"phase":1,"sequence":22,"prices":[176,187,179,209,163,180,188,165,154,208],"times":[2174,1107,906,896,1394],"next_num":5,"trial_type":"ticket-choose","trial_index":95,"time_elapsed":1944560,"internal_node_id":"0.0-95.0"},{"result":156,"points":2,"place":1,"phase":1,"sequence":23,"prices":[180,156,149,160,168,186,172,198,176,195],"times":[1543,1414],"next_num":2,"trial_type":"ticket-choose","trial_index":96,"time_elapsed":1950321,"internal_node_id":"0.0-96.0"},{"result":163,"points":1,"place":2,"phase":1,"sequence":24,"prices":[173,163,185,181,166,148,160,185,176,184],"times":[1405,1484],"next_num":2,"trial_type":"ticket-choose","trial_index":97,"time_elapsed":1956682,"internal_node_id":"0.0-97.0"},{"result":163,"points":2,"place":1,"phase":1,"sequence":25,"prices":[163,175,186,214,176,179,187,166,153,208],"times":[2245],"next_num":1,"trial_type":"ticket-choose","trial_index":98,"time_elapsed":1962200,"internal_node_id":"0.0-98.0"},{"result":165,"points":3,"place":0,"phase":1,"sequence":26,"prices":[193,181,175,181,185,165,224,199,218,184],"times":[1412,967,915,1230,1942,1525],"next_num":6,"trial_type":"ticket-choose","trial_index":99,"time_elapsed":1974230,"internal_node_id":"0.0-99.0"},{"result":165,"points":2,"place":1,"phase":1,"sequence":27,"prices":[165,175,187,209,177,180,188,167,154,208],"times":[3149],"next_num":1,"trial_type":"ticket-choose","trial_index":100,"time_elapsed":1980194,"internal_node_id":"0.0-100.0"},{"result":169,"points":2,"place":1,"phase":1,"sequence":28,"prices":[181,214,169,147,182,193,178,184,176,179],"times":[2051,876,1342],"next_num":3,"trial_type":"ticket-choose","trial_index":101,"time_elapsed":1987416,"internal_node_id":"0.0-101.0"},{"result":158,"points":2,"place":1,"phase":1,"sequence":29,"prices":[177,175,186,209,158,181,188,167,208,154],"times":[3941,1352,1921,1666,1547],"next_num":5,"trial_type":"ticket-choose","trial_index":102,"time_elapsed":2001138,"internal_node_id":"0.0-102.0"},{"result":167,"points":1,"place":2,"phase":1,"sequence":30,"prices":[167,153,172,185,195,143,184,211,177,227],"times":[11538],"next_num":1,"trial_type":"ticket-choose","trial_index":103,"time_elapsed":2015971,"internal_node_id":"0.0-103.0"},{"result":158,"points":2,"place":1,"phase":1,"sequence":31,"prices":[177,175,186,221,158,180,187,166,209,153],"times":[1935,813,1119,835,1302],"next_num":5,"trial_type":"ticket-choose","trial_index":104,"time_elapsed":2027700,"internal_node_id":"0.0-104.0"},{"result":165,"points":2,"place":1,"phase":1,"sequence":32,"prices":[165,174,186,212,177,181,187,166,153,209],"times":[2696],"next_num":1,"trial_type":"ticket-choose","trial_index":105,"time_elapsed":2032945,"internal_node_id":"0.0-105.0"},{"result":158,"points":2,"place":1,"phase":1,"sequence":33,"prices":[158,175,186,209,177,181,188,167,208,154],"times":[1808],"next_num":1,"trial_type":"ticket-choose","trial_index":106,"time_elapsed":2037092,"internal_node_id":"0.0-106.0"},{"result":158,"points":2,"place":1,"phase":1,"sequence":34,"prices":[158,175,186,211,177,180,187,166,209,153],"times":[1494],"next_num":1,"trial_type":"ticket-choose","trial_index":107,"time_elapsed":2041039,"internal_node_id":"0.0-107.0"},{"result":161,"points":1,"place":2,"phase":1,"sequence":35,"prices":[190,150,175,161,188,207,157,194,178,199],"times":[1539,3159,1312,1495],"next_num":4,"trial_type":"ticket-choose","trial_index":108,"time_elapsed":2051744,"internal_node_id":"0.0-108.0"},{"result":163,"points":2,"place":1,"phase":1,"sequence":36,"prices":[176,186,178,217,163,181,187,166,153,209],"times":[2634,703,812,1637,1344],"next_num":5,"trial_type":"ticket-choose","trial_index":109,"time_elapsed":2064152,"internal_node_id":"0.0-109.0"},{"result":167,"points":2,"place":1,"phase":1,"sequence":37,"prices":[167,174,186,211,178,181,188,168,208,156],"times":[2269],"next_num":1,"trial_type":"ticket-choose","trial_index":110,"time_elapsed":2069468,"internal_node_id":"0.0-110.0"},{"result":167,"points":2,"place":1,"phase":1,"sequence":38,"prices":[178,175,185,215,167,181,186,168,208,156],"times":[1940,1881,6346,1901,1619],"next_num":5,"trial_type":"ticket-choose","trial_index":111,"time_elapsed":2086616,"internal_node_id":"0.0-111.0"},{"result":167,"points":2,"place":1,"phase":1,"sequence":39,"prices":[167,175,186,225,178,179,187,169,209,153],"times":[5473],"next_num":1,"trial_type":"ticket-choose","trial_index":112,"time_elapsed":2097689,"internal_node_id":"0.0-112.0"},{"result":165,"points":2,"place":1,"phase":1,"sequence":40,"prices":[183,179,188,165,168,173,205,159,187,191],"times":[2200,1026,888,1434],"next_num":4,"trial_type":"ticket-choose","trial_index":113,"time_elapsed":2106475,"internal_node_id":"0.0-113.0"},{"result":165,"points":3,"place":0,"phase":1,"sequence":41,"prices":[192,172,171,178,188,165,217,168,195,197],"times":[1596,3048,1913,1016,1191,1292],"next_num":6,"trial_type":"ticket-choose","trial_index":114,"time_elapsed":2120955,"internal_node_id":"0.0-114.0"},{"result":167,"points":2,"place":1,"phase":1,"sequence":42,"prices":[199,191,188,174,167,193,189,164,176,170],"times":[2663,824,990,854,1314],"next_num":5,"trial_type":"ticket-choose","trial_index":115,"time_elapsed":2131021,"internal_node_id":"0.0-115.0"},{"result":169,"points":3,"place":0,"phase":1,"sequence":43,"prices":[220,173,201,197,169,205,198,183,178,186],"times":[1838,836,815,1556,2783],"next_num":5,"trial_type":"ticket-choose","trial_index":116,"time_elapsed":2142267,"internal_node_id":"0.0-116.0"},{"result":167,"points":2,"place":1,"phase":1,"sequence":44,"prices":[178,175,186,212,167,179,187,169,209,153],"times":[2018,877,1180,938,1758],"next_num":5,"trial_type":"ticket-choose","trial_index":117,"time_elapsed":2152371,"internal_node_id":"0.0-117.0"},{"result":165,"points":2,"place":1,"phase":1,"sequence":45,"prices":[177,174,186,217,165,181,187,166,153,209],"times":[2083,836,1232,906,1598],"next_num":5,"trial_type":"ticket-choose","trial_index":118,"time_elapsed":2162884,"internal_node_id":"0.0-118.0"},{"result":155,"points":2,"place":1,"phase":1,"sequence":46,"prices":[200,207,155,158,156,168,167,135,178,177],"times":[1455,1465,1779],"next_num":3,"trial_type":"ticket-choose","trial_index":119,"time_elapsed":2171237,"internal_node_id":"0.0-119.0"},{"result":169,"points":1,"place":3,"phase":1,"sequence":47,"prices":[199,193,169,165,202,182,151,164,176,171],"times":[3172,1322,2671],"next_num":3,"trial_type":"ticket-choose","trial_index":120,"time_elapsed":2182228,"internal_node_id":"0.0-120.0"},{"result":158,"points":2,"place":1,"phase":1,"sequence":48,"prices":[158,176,187,210,177,181,187,165,208,153],"times":[2595],"next_num":1,"trial_type":"ticket-choose","trial_index":121,"time_elapsed":2188893,"internal_node_id":"0.0-121.0"},{"result":165,"points":2,"place":1,"phase":1,"sequence":49,"prices":[193,174,224,165,187,190,224,161,194,195],"times":[2443,916,784,1556],"next_num":4,"trial_type":"ticket-choose","trial_index":122,"time_elapsed":2198300,"internal_node_id":"0.0-122.0"},{"responses":[{"value":0,"offby":-1,"category":"$115 - $130","category_index":0},{"value":0,"offby":-5,"category":"$131 - $145","category_index":1},{"value":25,"offby":13,"category":"$146 - $160","category_index":2},{"value":35,"offby":13,"category":"$161 - $175","category_index":3},{"value":16,"offby":-18,"category":"$176 - $190","category_index":4},{"value":13,"offby":-2,"category":"$191 - $205","category_index":5},{"value":11,"offby":0,"category":"$206 - $220","category_index":6}],"phase":1,"number":1,"trial_type":"bar-choose","trial_index":123,"time_elapsed":2249273,"internal_node_id":"0.0-123.0"},{"special_comment":"SOME HAD MANY MORE HIGH PRICES","trial_type":"special_sequence","trial_index":124,"time_elapsed":2319631,"internal_node_id":"0.0-124.0"},{"during":"Nothing","bonus":252,"trial_type":"final","trial_index":125,"time_elapsed":2344258,"internal_node_id":"0.0-125.0"}],"bonus":252}