{"start_time":"2017-05-24 16:05:06","end_time":"2017-05-24 16:49:51","points_phase0":114,"points_phase1":120,"phase_order":0,"age":37,"gender":"f","tries":1,"during":"Nothing","worker_id":"A34CDAXB2IMLDP","assignment_id":"3CN4LGXD5YH741OUT9B22K0PKOT4Y6","data":[{"rt":348817,"url":"\/christiane\/tickets\/utils\/consent.html","trial_type":"html","trial_index":0,"time_elapsed":349117,"internal_node_id":"0.0-0.0"},{"age":37,"gender":"f","trial_type":"age","trial_index":1,"time_elapsed":356609,"internal_node_id":"0.0-1.0"},{"worker_id":"A34CDAXB2IMLDP","trial_type":"workerid","trial_index":2,"time_elapsed":367880,"internal_node_id":"0.0-2.0"},{"tries":1,"trial_type":"instructions_check","trial_index":3,"time_elapsed":465869,"internal_node_id":"0.0-3.0"},{"rt":18918,"url":"\/christiane\/tickets\/utils\/start.html","trial_type":"html","trial_index":4,"time_elapsed":485949,"internal_node_id":"0.0-4.0"},{"trial_type":"number-animation","trial_index":5,"time_elapsed":516678,"internal_node_id":"0.0-5.0"},{"phase":0,"sequence":0,"avg":181,"response":180,"trial_type":"training_avg","trial_index":6,"time_elapsed":542818,"internal_node_id":"0.0-6.0"},{"trial_type":"number-animation","trial_index":7,"time_elapsed":565700,"internal_node_id":"0.0-7.0"},{"phase":0,"sequence":1,"avg":188,"response":185,"trial_type":"training_avg","trial_index":8,"time_elapsed":606909,"internal_node_id":"0.0-8.0"},{"trial_type":"number-animation","trial_index":9,"time_elapsed":640697,"internal_node_id":"0.0-9.0"},{"phase":0,"sequence":2,"avg":188,"response":180,"trial_type":"training_avg","trial_index":10,"time_elapsed":667244,"internal_node_id":"0.0-10.0"},{"trial_type":"number-animation","trial_index":11,"time_elapsed":686552,"internal_node_id":"0.0-11.0"},{"phase":0,"sequence":3,"avg":177,"response":180,"trial_type":"training_avg","trial_index":12,"time_elapsed":709623,"internal_node_id":"0.0-12.0"},{"trial_type":"number-animation","trial_index":13,"time_elapsed":735943,"internal_node_id":"0.0-13.0"},{"phase":0,"sequence":4,"avg":182,"response":180,"trial_type":"training_avg","trial_index":14,"time_elapsed":789555,"internal_node_id":"0.0-14.0"},{"responses":[{"value":0,"offby":-1,"category":"$115 - $130","category_index":0},{"value":5,"offby":0,"category":"$131 - $145","category_index":1},{"value":10,"offby":-2,"category":"$146 - $160","category_index":2},{"value":21,"offby":-1,"category":"$161 - $175","category_index":3},{"value":42,"offby":8,"category":"$176 - $190","category_index":4},{"value":13,"offby":-2,"category":"$191 - $205","category_index":5},{"value":9,"offby":-2,"category":"$206 - $220","category_index":6}],"phase":0,"number":0,"trial_type":"bar-choose","trial_index":15,"time_elapsed":1025334,"internal_node_id":"0.0-15.0"},{"rt":25074,"url":"\/christiane\/tickets\/utils\/testing.html","trial_type":"html","trial_index":16,"time_elapsed":1051558,"internal_node_id":"0.0-16.0"},{"phase":0,"order":[4,47,22,25,44,21,1,49,18,10,32,38,46,28,41,0,23,11,3,26,24,27,20,17,31,36,34,48,13,19,33,37,29,5,7,8,9,43,2,6,14,30,45,16,15,35,40,12,42,39],"trial_type":"store_order","trial_index":17,"time_elapsed":1052560,"internal_node_id":"0.0-17.0"},{"result":146,"points":3,"place":0,"phase":0,"sequence":-1,"prices":[184,180,224,165,181,199,185,193,218,146],"times":[6283,2434,1870,8316,1194,1543,1658,1601,1510,1815],"next_num":10,"trial_type":"ticket-choose","trial_index":18,"time_elapsed":1090494,"internal_node_id":"0.0-18.0"},{"rt":29365,"url":"\/christiane\/tickets\/utils\/testing_after.html","trial_type":"html","trial_index":19,"time_elapsed":1121015,"internal_node_id":"0.0-19.0"},{"result":156,"points":3,"place":0,"phase":0,"sequence":0,"prices":[175,185,178,215,181,186,167,168,208,156],"times":[2805,4269,1050,1376,1251,1207,6585,1297,1149,1434],"next_num":10,"trial_type":"ticket-choose","trial_index":20,"time_elapsed":1148510,"internal_node_id":"0.0-20.0"},{"result":152,"points":3,"place":0,"phase":0,"sequence":1,"prices":[200,181,203,152,175,171,160,154,176,191],"times":[2175,2468,5898,1769],"next_num":4,"trial_type":"ticket-choose","trial_index":21,"time_elapsed":1168197,"internal_node_id":"0.0-21.0"},{"result":158,"points":2,"place":1,"phase":0,"sequence":2,"prices":[175,186,177,209,181,188,158,167,208,154],"times":[1813,1106,1602,1230,1590,1264,2243],"next_num":7,"trial_type":"ticket-choose","trial_index":22,"time_elapsed":1186895,"internal_node_id":"0.0-22.0"},{"result":179,"points":1,"place":4,"phase":0,"sequence":3,"prices":[201,165,162,166,185,214,165,202,204,179],"times":[1419,1263,1139,1126,1050,1241,1264,1141,1084,1152],"next_num":10,"trial_type":"ticket-choose","trial_index":23,"time_elapsed":1206785,"internal_node_id":"0.0-23.0"},{"result":159,"points":1,"place":2,"phase":0,"sequence":4,"prices":[180,159,149,175,185,141,163,174,178,207],"times":[1376,2635],"next_num":2,"trial_type":"ticket-choose","trial_index":24,"time_elapsed":1213874,"internal_node_id":"0.0-24.0"},{"result":153,"points":3,"place":0,"phase":0,"sequence":5,"prices":[175,186,177,221,180,187,158,166,209,153],"times":[4797,790,1060,937,859,993,1600,1275,1037,1198],"next_num":10,"trial_type":"ticket-choose","trial_index":25,"time_elapsed":1235035,"internal_node_id":"0.0-25.0"},{"result":156,"points":3,"place":0,"phase":0,"sequence":6,"prices":[175,185,167,224,181,186,178,168,208,156],"times":[1869,869,825,1623,1533,869,710,871,815,1782],"next_num":10,"trial_type":"ticket-choose","trial_index":26,"time_elapsed":1251796,"internal_node_id":"0.0-26.0"},{"result":184,"points":0,"place":7,"phase":0,"sequence":7,"prices":[183,163,185,180,166,148,160,186,176,184],"times":[3996,690,612,545,590,600,826,835,869,1253],"next_num":10,"trial_type":"ticket-choose","trial_index":27,"time_elapsed":1266985,"internal_node_id":"0.0-27.0"},{"result":153,"points":3,"place":0,"phase":0,"sequence":8,"prices":[175,186,158,211,180,187,177,166,209,153],"times":[1621,926,1522,699,860,893,1443,1063,970,960],"next_num":10,"trial_type":"ticket-choose","trial_index":28,"time_elapsed":1282128,"internal_node_id":"0.0-28.0"},{"result":154,"points":3,"place":0,"phase":0,"sequence":9,"prices":[175,187,177,209,180,188,165,165,154,208],"times":[3386,981,735,735,947,1062,870,1151,1286],"next_num":9,"trial_type":"ticket-choose","trial_index":29,"time_elapsed":1297483,"internal_node_id":"0.0-29.0"},{"result":188,"points":0,"place":5,"phase":0,"sequence":10,"prices":[193,169,171,187,190,224,174,194,165,188],"times":[1162,971,815,768,814,881,870,1084,1139,1565],"next_num":10,"trial_type":"ticket-choose","trial_index":30,"time_elapsed":1311828,"internal_node_id":"0.0-30.0"},{"result":166,"points":2,"place":1,"phase":0,"sequence":11,"prices":[168,199,196,198,185,195,227,163,177,166],"times":[1163,1318,949,824,802,1096,925,1377,1004,1163],"next_num":11,"trial_type":"ticket-choose","trial_index":31,"time_elapsed":1327521,"internal_node_id":"0.0-31.0"},{"result":158,"points":3,"place":0,"phase":0,"sequence":12,"prices":[210,184,226,193,215,158,199,175,176,208],"times":[1018,1342,1330,712,948,2874],"next_num":6,"trial_type":"ticket-choose","trial_index":32,"time_elapsed":1339333,"internal_node_id":"0.0-32.0"},{"result":185,"points":1,"place":4,"phase":0,"sequence":13,"prices":[196,165,170,184,187,211,171,201,202,185],"times":[1070,1138,1071,802,859,779,679,1118,869,1184],"next_num":11,"trial_type":"ticket-choose","trial_index":33,"time_elapsed":1353800,"internal_node_id":"0.0-33.0"},{"result":155,"points":2,"place":1,"phase":0,"sequence":14,"prices":[201,207,155,158,156,165,167,135,178,177],"times":[883,578,1287],"next_num":3,"trial_type":"ticket-choose","trial_index":34,"time_elapsed":1359033,"internal_node_id":"0.0-34.0"},{"result":156,"points":3,"place":0,"phase":0,"sequence":15,"prices":[174,186,167,211,181,188,178,168,208,156],"times":[1140,610,734,657,735,1434,699,791,837,1073],"next_num":10,"trial_type":"ticket-choose","trial_index":35,"time_elapsed":1371892,"internal_node_id":"0.0-35.0"},{"result":153,"points":3,"place":0,"phase":0,"sequence":16,"prices":[176,187,177,225,181,187,158,165,208,153],"times":[1331,769,769,859,804,857,2007,859,925,950],"next_num":10,"trial_type":"ticket-choose","trial_index":36,"time_elapsed":1386111,"internal_node_id":"0.0-36.0"},{"result":153,"points":3,"place":0,"phase":0,"sequence":17,"prices":[174,186,177,217,181,187,165,166,153,209],"times":[1824,815,800,893,812,746,1546,1129,1286],"next_num":9,"trial_type":"ticket-choose","trial_index":37,"time_elapsed":1399824,"internal_node_id":"0.0-37.0"},{"result":156,"points":3,"place":0,"phase":0,"sequence":18,"prices":[174,186,178,217,181,188,167,168,208,156],"times":[2154,653,1151,2018,1870,2781,3380,1376,1160,7496],"next_num":10,"trial_type":"ticket-choose","trial_index":38,"time_elapsed":1427939,"internal_node_id":"0.0-38.0"},{"result":180,"points":1,"place":4,"phase":0,"sequence":19,"prices":[200,165,165,173,182,207,161,202,204,180],"times":[1847,1228,2142,2185,757,1017,1725,1004,734,925],"next_num":11,"trial_type":"ticket-choose","trial_index":39,"time_elapsed":1445736,"internal_node_id":"0.0-39.0"},{"result":184,"points":1,"place":4,"phase":0,"sequence":20,"prices":[193,165,175,181,185,224,180,199,218,184],"times":[1150,836,680,791,803,789,779,916,734,1095],"next_num":11,"trial_type":"ticket-choose","trial_index":40,"time_elapsed":1459382,"internal_node_id":"0.0-40.0"},{"result":186,"points":1,"place":4,"phase":0,"sequence":21,"prices":[192,165,171,178,188,217,172,195,197,186],"times":[2367,612,724,923,666,745,813,849,745,758],"next_num":11,"trial_type":"ticket-choose","trial_index":41,"time_elapsed":1473108,"internal_node_id":"0.0-41.0"},{"result":158,"points":2,"place":1,"phase":0,"sequence":22,"prices":[176,187,158,210,181,187,177,165,208,153],"times":[1059,656,2029],"next_num":3,"trial_type":"ticket-choose","trial_index":42,"time_elapsed":1479486,"internal_node_id":"0.0-42.0"},{"result":153,"points":3,"place":0,"phase":0,"sequence":23,"prices":[174,186,176,217,181,187,163,166,153,209],"times":[949,814,688,745,759,757,848,779,1241],"next_num":9,"trial_type":"ticket-choose","trial_index":43,"time_elapsed":1490995,"internal_node_id":"0.0-43.0"},{"result":165,"points":3,"place":0,"phase":0,"sequence":24,"prices":[171,203,175,170,167,220,192,186,165,165],"times":[1115,666,679,713,949,891,981,1063,1108,1938],"next_num":11,"trial_type":"ticket-choose","trial_index":44,"time_elapsed":1505868,"internal_node_id":"0.0-44.0"},{"result":154,"points":3,"place":0,"phase":0,"sequence":25,"prices":[188,200,165,172,198,174,177,154,177,180],"times":[3670,701,2355,1150,690,768,703,2252],"next_num":8,"trial_type":"ticket-choose","trial_index":45,"time_elapsed":1525006,"internal_node_id":"0.0-45.0"},{"result":155,"points":2,"place":1,"phase":0,"sequence":26,"prices":[181,155,148,161,168,187,172,199,176,194],"times":[1809,1445],"next_num":2,"trial_type":"ticket-choose","trial_index":46,"time_elapsed":1530707,"internal_node_id":"0.0-46.0"},{"result":179,"points":1,"place":4,"phase":0,"sequence":27,"prices":[181,215,169,147,182,193,177,184,176,179],"times":[1028,600,530,567,746,702,665,701,1006,1805],"next_num":11,"trial_type":"ticket-choose","trial_index":47,"time_elapsed":1543162,"internal_node_id":"0.0-47.0"},{"result":154,"points":3,"place":0,"phase":0,"sequence":28,"prices":[175,187,163,209,180,188,176,165,154,208],"times":[1243,914,711,646,802,611,611,803,1174],"next_num":9,"trial_type":"ticket-choose","trial_index":48,"time_elapsed":1554626,"internal_node_id":"0.0-48.0"},{"result":154,"points":3,"place":0,"phase":0,"sequence":29,"prices":[175,186,158,209,181,188,177,167,208,154],"times":[27468,609,1591,533,533,623,610,633,1118,1205],"next_num":10,"trial_type":"ticket-choose","trial_index":49,"time_elapsed":1593686,"internal_node_id":"0.0-49.0"},{"result":170,"points":1,"place":3,"phase":0,"sequence":30,"prices":[183,182,192,168,173,205,167,187,165,170],"times":[1454,892,578,677,577,621,812,782,698,1108],"next_num":10,"trial_type":"ticket-choose","trial_index":50,"time_elapsed":1606016,"internal_node_id":"0.0-50.0"},{"result":152,"points":3,"place":0,"phase":0,"sequence":31,"prices":[198,193,169,163,202,182,152,164,177,171],"times":[1355,609,1072,804,779,610,1173],"next_num":7,"trial_type":"ticket-choose","trial_index":51,"time_elapsed":1615850,"internal_node_id":"0.0-51.0"},{"result":168,"points":2,"place":1,"phase":0,"sequence":32,"prices":[185,170,182,201,173,199,171,188,165,168],"times":[2557,913,926,894,668,644,635,656,736,589],"next_num":11,"trial_type":"ticket-choose","trial_index":52,"time_elapsed":1629281,"internal_node_id":"0.0-52.0"},{"result":153,"points":3,"place":0,"phase":0,"sequence":33,"prices":[175,186,178,212,179,187,167,169,209,153],"times":[1388,1106,613,745,655,589,621,1116,724,1556],"next_num":11,"trial_type":"ticket-choose","trial_index":53,"time_elapsed":1643503,"internal_node_id":"0.0-53.0"},{"result":154,"points":3,"place":0,"phase":0,"sequence":34,"prices":[175,187,165,209,180,188,177,166,154,208],"times":[3816,573,662,597,878,598,885,693,1497],"next_num":9,"trial_type":"ticket-choose","trial_index":54,"time_elapsed":1657901,"internal_node_id":"0.0-54.0"},{"result":153,"points":3,"place":0,"phase":0,"sequence":35,"prices":[174,186,165,212,181,187,177,167,153,209],"times":[1199,467,566,543,494,493,598,814,1627],"next_num":9,"trial_type":"ticket-choose","trial_index":55,"time_elapsed":1668126,"internal_node_id":"0.0-55.0"},{"result":153,"points":3,"place":0,"phase":0,"sequence":36,"prices":[175,186,177,210,179,187,165,166,153,208],"times":[2816,499,518,532,470,581,956,558,1164],"next_num":9,"trial_type":"ticket-choose","trial_index":56,"time_elapsed":1679797,"internal_node_id":"0.0-56.0"},{"result":157,"points":3,"place":0,"phase":0,"sequence":37,"prices":[201,187,157,184,198,179,188,185,178,170],"times":[1415,651,2777],"next_num":3,"trial_type":"ticket-choose","trial_index":57,"time_elapsed":1687399,"internal_node_id":"0.0-57.0"},{"result":153,"points":3,"place":0,"phase":0,"sequence":38,"prices":[175,186,167,225,179,187,178,169,209,153],"times":[950,525,956,589,886,1482,567,630,999,1110],"next_num":11,"trial_type":"ticket-choose","trial_index":58,"time_elapsed":1699877,"internal_node_id":"0.0-58.0"},{"result":153,"points":3,"place":0,"phase":0,"sequence":39,"prices":[175,186,165,214,179,187,177,166,153,208],"times":[645,790,696,572,573,565,549,1117,1224],"next_num":9,"trial_type":"ticket-choose","trial_index":59,"time_elapsed":1710349,"internal_node_id":"0.0-59.0"},{"result":153,"points":3,"place":0,"phase":0,"sequence":40,"prices":[174,186,163,212,181,187,176,166,153,209],"times":[677,727,671,542,518,510,509,766,1244],"next_num":9,"trial_type":"ticket-choose","trial_index":60,"time_elapsed":1720020,"internal_node_id":"0.0-60.0"},{"result":176,"points":0,"place":5,"phase":0,"sequence":41,"prices":[191,172,169,175,182,203,170,195,165,176],"times":[1029,509,501,552,829,614,948,629,782,1055],"next_num":11,"trial_type":"ticket-choose","trial_index":61,"time_elapsed":1731276,"internal_node_id":"0.0-61.0"},{"result":170,"points":1,"place":2,"phase":0,"sequence":42,"prices":[212,192,188,184,167,193,189,164,176,170],"times":[2065,581,663,1270,566,532,517,702,741,1438],"next_num":11,"trial_type":"ticket-choose","trial_index":62,"time_elapsed":1744059,"internal_node_id":"0.0-62.0"},{"result":154,"points":3,"place":0,"phase":0,"sequence":43,"prices":[175,187,176,209,180,188,163,165,154,208],"times":[568,557,565,582,564,589,2053,798,1533],"next_num":9,"trial_type":"ticket-choose","trial_index":63,"time_elapsed":1755387,"internal_node_id":"0.0-63.0"},{"result":153,"points":3,"place":0,"phase":0,"sequence":44,"prices":[175,186,176,210,179,187,163,166,153,208],"times":[608,565,501,511,558,615,621,607,1328],"next_num":9,"trial_type":"ticket-choose","trial_index":64,"time_elapsed":1765026,"internal_node_id":"0.0-64.0"},{"result":154,"points":2,"place":1,"phase":0,"sequence":45,"prices":[168,154,172,185,195,144,184,211,177,227],"times":[2001,1504],"next_num":2,"trial_type":"ticket-choose","trial_index":65,"time_elapsed":1771010,"internal_node_id":"0.0-65.0"},{"result":150,"points":3,"place":0,"phase":0,"sequence":46,"prices":[189,150,175,160,188,207,158,194,178,199],"times":[867,2395],"next_num":2,"trial_type":"ticket-choose","trial_index":66,"time_elapsed":1777026,"internal_node_id":"0.0-66.0"},{"result":153,"points":3,"place":0,"phase":0,"sequence":47,"prices":[175,186,163,214,179,187,176,166,153,208],"times":[1440,525,518,532,583,566,533,630,1704],"next_num":9,"trial_type":"ticket-choose","trial_index":67,"time_elapsed":1787818,"internal_node_id":"0.0-67.0"},{"result":143,"points":3,"place":0,"phase":0,"sequence":48,"prices":[222,173,202,197,143,205,198,183,178,186],"times":[809,547,511,567,1883],"next_num":5,"trial_type":"ticket-choose","trial_index":68,"time_elapsed":1795034,"internal_node_id":"0.0-68.0"},{"result":171,"points":1,"place":3,"phase":0,"sequence":49,"prices":[189,167,180,197,165,168,172,213,178,171],"times":[596,790,678,654,694,653,926,958,791,1743],"next_num":11,"trial_type":"ticket-choose","trial_index":69,"time_elapsed":1808259,"internal_node_id":"0.0-69.0"},{"responses":[{"value":0,"offby":-1,"category":"$115 - $130","category_index":0},{"value":5,"offby":0,"category":"$131 - $145","category_index":1},{"value":10,"offby":-2,"category":"$146 - $160","category_index":2},{"value":21,"offby":-1,"category":"$161 - $175","category_index":3},{"value":42,"offby":8,"category":"$176 - $190","category_index":4},{"value":13,"offby":-2,"category":"$191 - $205","category_index":5},{"value":9,"offby":-2,"category":"$206 - $220","category_index":6}],"phase":1,"number":1,"trial_type":"bar-choose","trial_index":70,"time_elapsed":1941911,"internal_node_id":"0.0-70.0"},{"rt":61255,"url":"\/christiane\/tickets\/utils\/testing2.html","trial_type":"point_update","trial_index":71,"time_elapsed":2004485,"internal_node_id":"0.0-71.0"},{"phase":1,"order":[31,21,16,41,40,45,37,4,33,46,1,29,15,20,9,42,28,43,7,3,8,10,5,14,0,6,26,22,32,17,30,23,39,36,25,35,18,2,13,12,48,24,44,34,38,11,19,27,49,47],"trial_type":"store_order","trial_index":72,"time_elapsed":2005486,"internal_node_id":"0.0-72.0"},{"result":148,"points":3,"place":0,"phase":1,"sequence":0,"prices":[171,169,186,165,163,167,220,148,187,165],"times":[1341,708,565,461,533,478,541,1527],"next_num":8,"trial_type":"ticket-choose","trial_index":73,"time_elapsed":2016020,"internal_node_id":"0.0-73.0"},{"result":153,"points":3,"place":0,"phase":1,"sequence":1,"prices":[177,175,186,221,158,180,187,166,209,153],"times":[699,405,526,462,853,555,487,742,710,1166],"next_num":10,"trial_type":"ticket-choose","trial_index":74,"time_elapsed":2026947,"internal_node_id":"0.0-74.0"},{"result":154,"points":3,"place":0,"phase":1,"sequence":2,"prices":[176,187,179,209,163,180,188,165,154,208],"times":[605,502,527,622,565,583,646,690,1277],"next_num":9,"trial_type":"ticket-choose","trial_index":75,"time_elapsed":2036586,"internal_node_id":"0.0-75.0"},{"result":155,"points":2,"place":1,"phase":1,"sequence":3,"prices":[200,207,155,158,156,168,167,135,178,177],"times":[801,49339,2413],"next_num":3,"trial_type":"ticket-choose","trial_index":76,"time_elapsed":2092088,"internal_node_id":"0.0-76.0"},{"result":150,"points":3,"place":0,"phase":1,"sequence":4,"prices":[190,150,175,161,188,207,157,194,178,199],"times":[659,3111],"next_num":2,"trial_type":"ticket-choose","trial_index":77,"time_elapsed":2098081,"internal_node_id":"0.0-77.0"},{"result":170,"points":1,"place":2,"phase":1,"sequence":5,"prices":[199,191,188,174,167,193,189,164,176,170],"times":[838,470,510,486,509,503,495,709,940,582],"next_num":11,"trial_type":"ticket-choose","trial_index":78,"time_elapsed":2118657,"internal_node_id":"0.0-78.0"},{"result":151,"points":3,"place":0,"phase":1,"sequence":6,"prices":[199,193,169,165,202,182,151,164,176,171],"times":[906,423,406,486,515,471,1443],"next_num":7,"trial_type":"ticket-choose","trial_index":79,"time_elapsed":2126351,"internal_node_id":"0.0-79.0"},{"result":156,"points":3,"place":0,"phase":1,"sequence":7,"prices":[178,175,185,215,167,181,186,168,208,156],"times":[462,445,432,492,509,495,509,1197,558,1093],"next_num":10,"trial_type":"ticket-choose","trial_index":80,"time_elapsed":2136054,"internal_node_id":"0.0-80.0"},{"result":159,"points":3,"place":0,"phase":1,"sequence":8,"prices":[183,179,188,165,168,173,205,159,187,191],"times":[4487,466,454,438,559,486,557,1306],"next_num":8,"trial_type":"ticket-choose","trial_index":81,"time_elapsed":2148246,"internal_node_id":"0.0-81.0"},{"result":158,"points":3,"place":0,"phase":1,"sequence":9,"prices":[214,184,226,192,215,158,199,175,176,208],"times":[485,422,470,490,448,1654],"next_num":6,"trial_type":"ticket-choose","trial_index":82,"time_elapsed":2155102,"internal_node_id":"0.0-82.0"},{"result":156,"points":3,"place":0,"phase":1,"sequence":10,"prices":[167,175,185,224,178,181,186,168,208,156],"times":[751,439,518,504,542,660,559,695,508,1040],"next_num":11,"trial_type":"ticket-choose","trial_index":83,"time_elapsed":2164941,"internal_node_id":"0.0-83.0"},{"result":150,"points":3,"place":0,"phase":1,"sequence":11,"prices":[185,179,191,165,161,173,199,150,188,168],"times":[455,396,367,516,493,470,501,1667],"next_num":8,"trial_type":"ticket-choose","trial_index":84,"time_elapsed":2173070,"internal_node_id":"0.0-84.0"},{"result":153,"points":3,"place":0,"phase":1,"sequence":12,"prices":[176,175,186,210,163,179,187,166,153,208],"times":[709,478,502,549,829,782,565,597,1495],"next_num":9,"trial_type":"ticket-choose","trial_index":85,"time_elapsed":2183142,"internal_node_id":"0.0-85.0"},{"result":158,"points":2,"place":1,"phase":1,"sequence":13,"prices":[158,176,187,210,177,181,187,165,208,153],"times":[2491],"next_num":1,"trial_type":"ticket-choose","trial_index":86,"time_elapsed":2187429,"internal_node_id":"0.0-86.0"},{"result":153,"points":3,"place":0,"phase":1,"sequence":14,"prices":[177,175,186,210,165,179,187,166,153,208],"times":[600,500,447,628,806,501,618,740,1394],"next_num":9,"trial_type":"ticket-choose","trial_index":87,"time_elapsed":2206374,"internal_node_id":"0.0-87.0"},{"result":186,"points":1,"place":4,"phase":1,"sequence":15,"prices":[220,173,201,197,169,205,198,183,178,186],"times":[774,478,525,396,590,566,510,631,663,941],"next_num":11,"trial_type":"ticket-choose","trial_index":88,"time_elapsed":2216244,"internal_node_id":"0.0-88.0"},{"result":202,"points":0,"place":8,"phase":1,"sequence":16,"prices":[196,171,170,184,187,165,211,169,201,202],"times":[664,509,454,517,501,790,454,607,559,1759],"next_num":11,"trial_type":"ticket-choose","trial_index":89,"time_elapsed":2226603,"internal_node_id":"0.0-89.0"},{"result":157,"points":3,"place":0,"phase":1,"sequence":17,"prices":[201,187,157,184,198,179,188,185,178,170],"times":[735,651,1537],"next_num":3,"trial_type":"ticket-choose","trial_index":90,"time_elapsed":2231787,"internal_node_id":"0.0-90.0"},{"result":154,"points":3,"place":0,"phase":1,"sequence":18,"prices":[165,175,187,209,177,180,188,167,154,208],"times":[572,535,477,518,478,478,454,832,1348],"next_num":9,"trial_type":"ticket-choose","trial_index":91,"time_elapsed":2240915,"internal_node_id":"0.0-91.0"},{"result":156,"points":3,"place":0,"phase":1,"sequence":19,"prices":[178,174,186,217,167,181,188,168,208,156],"times":[749,454,663,389,438,557,446,421,532,2908],"next_num":10,"trial_type":"ticket-choose","trial_index":92,"time_elapsed":2255730,"internal_node_id":"0.0-92.0"},{"result":153,"points":3,"place":0,"phase":1,"sequence":20,"prices":[165,174,186,212,177,181,187,166,153,209],"times":[1044,1670,391,414,409,397,365,422,1245],"next_num":9,"trial_type":"ticket-choose","trial_index":93,"time_elapsed":2265450,"internal_node_id":"0.0-93.0"},{"result":154,"points":3,"place":0,"phase":1,"sequence":21,"prices":[177,175,187,209,165,180,188,165,154,208],"times":[558,387,391,509,580,486,591,488,1180],"next_num":9,"trial_type":"ticket-choose","trial_index":94,"time_elapsed":2274226,"internal_node_id":"0.0-94.0"},{"result":153,"points":3,"place":0,"phase":1,"sequence":22,"prices":[178,175,186,212,167,179,187,169,209,153],"times":[637,2046,557,502,478,485,502,528,684,1456],"next_num":10,"trial_type":"ticket-choose","trial_index":95,"time_elapsed":2285874,"internal_node_id":"0.0-95.0"},{"result":153,"points":3,"place":0,"phase":1,"sequence":23,"prices":[163,174,186,212,176,181,187,166,153,209],"times":[510,430,422,504,428,445,430,479,1511],"next_num":9,"trial_type":"ticket-choose","trial_index":96,"time_elapsed":2294377,"internal_node_id":"0.0-96.0"},{"result":156,"points":3,"place":0,"phase":1,"sequence":24,"prices":[167,174,186,211,178,181,188,168,208,156],"times":[580,485,486,455,437,445,399,470,790,1070],"next_num":11,"trial_type":"ticket-choose","trial_index":97,"time_elapsed":2303561,"internal_node_id":"0.0-97.0"},{"result":153,"points":3,"place":0,"phase":1,"sequence":25,"prices":[165,175,186,214,177,179,187,166,153,208],"times":[926,325,422,414,380,414,486,638,1284],"next_num":9,"trial_type":"ticket-choose","trial_index":98,"time_elapsed":2312320,"internal_node_id":"0.0-98.0"},{"result":152,"points":3,"place":0,"phase":1,"sequence":26,"prices":[200,173,182,169,207,165,152,202,161,204],"times":[646,422,404,518,811,502,1708],"next_num":7,"trial_type":"ticket-choose","trial_index":99,"time_elapsed":2321440,"internal_node_id":"0.0-99.0"},{"result":154,"points":3,"place":0,"phase":1,"sequence":27,"prices":[177,175,186,209,158,181,188,167,208,154],"times":[644,372,397,478,526,600,491,638,526,1434],"next_num":10,"trial_type":"ticket-choose","trial_index":100,"time_elapsed":2331112,"internal_node_id":"0.0-100.0"},{"result":195,"points":0,"place":7,"phase":1,"sequence":28,"prices":[193,174,224,165,187,190,224,161,194,195],"times":[446,447,383,558,663,580,656,635,836,677],"next_num":11,"trial_type":"ticket-choose","trial_index":101,"time_elapsed":2340640,"internal_node_id":"0.0-101.0"},{"result":153,"points":3,"place":0,"phase":1,"sequence":29,"prices":[176,186,178,217,163,181,187,166,153,209],"times":[494,438,495,517,485,575,510,759,1277],"next_num":9,"trial_type":"ticket-choose","trial_index":102,"time_elapsed":2349568,"internal_node_id":"0.0-102.0"},{"result":157,"points":3,"place":0,"phase":1,"sequence":30,"prices":[191,170,182,165,175,182,203,157,195,200],"times":[510,422,519,636,869,501,439,1744],"next_num":8,"trial_type":"ticket-choose","trial_index":103,"time_elapsed":2358495,"internal_node_id":"0.0-103.0"},{"result":158,"points":2,"place":1,"phase":1,"sequence":31,"prices":[177,176,187,225,158,181,187,165,208,153],"times":[438,390,438,574,1828],"next_num":5,"trial_type":"ticket-choose","trial_index":104,"time_elapsed":2364695,"internal_node_id":"0.0-104.0"},{"result":171,"points":1,"place":3,"phase":1,"sequence":32,"prices":[189,167,180,197,165,168,172,213,178,171],"times":[500,519,462,477,878,452,444,452,734,534],"next_num":11,"trial_type":"ticket-choose","trial_index":105,"time_elapsed":2373734,"internal_node_id":"0.0-105.0"},{"result":154,"points":3,"place":0,"phase":1,"sequence":33,"prices":[187,201,165,172,196,174,178,154,172,180],"times":[493,422,454,444,464,492,453,1222],"next_num":8,"trial_type":"ticket-choose","trial_index":106,"time_elapsed":2381319,"internal_node_id":"0.0-106.0"},{"result":156,"points":3,"place":0,"phase":1,"sequence":34,"prices":[201,204,179,166,185,165,214,156,202,165],"times":[741,613,510,437,519,519,501,1178],"next_num":8,"trial_type":"ticket-choose","trial_index":107,"time_elapsed":2389606,"internal_node_id":"0.0-107.0"},{"result":227,"points":0,"place":9,"phase":1,"sequence":35,"prices":[167,153,172,185,195,143,184,211,177,227],"times":[689,381,501,438,622,492,1165,926,717,688],"next_num":11,"trial_type":"ticket-choose","trial_index":108,"time_elapsed":2399862,"internal_node_id":"0.0-108.0"},{"result":158,"points":2,"place":1,"phase":1,"sequence":36,"prices":[158,175,186,211,177,180,187,166,209,153],"times":[2065],"next_num":1,"trial_type":"ticket-choose","trial_index":109,"time_elapsed":2403598,"internal_node_id":"0.0-109.0"},{"result":153,"points":3,"place":0,"phase":1,"sequence":37,"prices":[167,175,186,225,178,179,187,169,209,153],"times":[646,421,541,502,574,533,521,643,686,525],"next_num":11,"trial_type":"ticket-choose","trial_index":110,"time_elapsed":2412830,"internal_node_id":"0.0-110.0"},{"result":154,"points":3,"place":0,"phase":1,"sequence":38,"prices":[163,175,187,209,176,180,188,165,154,208],"times":[591,486,574,606,540,502,588,688,1550],"next_num":9,"trial_type":"ticket-choose","trial_index":111,"time_elapsed":2422333,"internal_node_id":"0.0-111.0"},{"result":153,"points":3,"place":0,"phase":1,"sequence":39,"prices":[163,175,186,214,176,179,187,166,153,208],"times":[2476,453,854,470,454,480,535,899,1025],"next_num":9,"trial_type":"ticket-choose","trial_index":112,"time_elapsed":2433301,"internal_node_id":"0.0-112.0"},{"result":179,"points":1,"place":4,"phase":1,"sequence":40,"prices":[181,214,169,147,182,193,178,184,176,179],"times":[476,439,453,479,604,549,678,678,672,540],"next_num":11,"trial_type":"ticket-choose","trial_index":113,"time_elapsed":2442708,"internal_node_id":"0.0-113.0"},{"result":184,"points":1,"place":4,"phase":1,"sequence":41,"prices":[193,181,175,181,185,165,224,199,218,184],"times":[445,494,566,647,535,582,654,839,606,584],"next_num":11,"trial_type":"ticket-choose","trial_index":114,"time_elapsed":2452356,"internal_node_id":"0.0-114.0"},{"result":151,"points":2,"place":1,"phase":1,"sequence":42,"prices":[181,159,149,175,185,151,163,174,178,207],"times":[550,1310,486,638,437,1597],"next_num":6,"trial_type":"ticket-choose","trial_index":115,"time_elapsed":2460108,"internal_node_id":"0.0-115.0"},{"result":156,"points":2,"place":1,"phase":1,"sequence":43,"prices":[180,156,149,160,168,186,172,198,176,195],"times":[886,1359],"next_num":2,"trial_type":"ticket-choose","trial_index":116,"time_elapsed":2464435,"internal_node_id":"0.0-116.0"},{"result":166,"points":1,"place":2,"phase":1,"sequence":44,"prices":[163,199,196,199,185,195,227,163,177,166],"times":[655,453,494,550,444,549,620,702,656,870],"next_num":11,"trial_type":"ticket-choose","trial_index":117,"time_elapsed":2474011,"internal_node_id":"0.0-117.0"},{"result":153,"points":3,"place":0,"phase":1,"sequence":45,"prices":[177,174,186,217,165,181,187,166,153,209],"times":[603,565,574,495,502,719,638,966,1646],"next_num":9,"trial_type":"ticket-choose","trial_index":118,"time_elapsed":2484075,"internal_node_id":"0.0-118.0"},{"result":154,"points":3,"place":0,"phase":1,"sequence":46,"prices":[158,175,186,209,177,181,188,167,208,154],"times":[701,591,623,470,518,550,630,558,604,599],"next_num":11,"trial_type":"ticket-choose","trial_index":119,"time_elapsed":2493684,"internal_node_id":"0.0-119.0"},{"result":197,"points":0,"place":8,"phase":1,"sequence":47,"prices":[192,172,171,178,188,165,217,168,195,197],"times":[534,534,701,590,655,759,662,550,590,639],"next_num":11,"trial_type":"ticket-choose","trial_index":120,"time_elapsed":2503506,"internal_node_id":"0.0-120.0"},{"result":148,"points":3,"place":0,"phase":1,"sequence":48,"prices":[173,163,185,181,166,148,160,185,176,184],"times":[503,483,503,485,510,1558],"next_num":6,"trial_type":"ticket-choose","trial_index":121,"time_elapsed":2510450,"internal_node_id":"0.0-121.0"},{"result":152,"points":3,"place":0,"phase":1,"sequence":49,"prices":[200,180,203,152,175,170,160,154,176,191],"times":[1638,527,719,1693],"next_num":4,"trial_type":"ticket-choose","trial_index":122,"time_elapsed":2517626,"internal_node_id":"0.0-122.0"},{"responses":[{"value":0,"offby":-1,"category":"$115 - $130","category_index":0},{"value":5,"offby":0,"category":"$131 - $145","category_index":1},{"value":8,"offby":-4,"category":"$146 - $160","category_index":2},{"value":20,"offby":-2,"category":"$161 - $175","category_index":3},{"value":49,"offby":15,"category":"$176 - $190","category_index":4},{"value":11,"offby":-4,"category":"$191 - $205","category_index":5},{"value":7,"offby":-4,"category":"$206 - $220","category_index":6}],"phase":1,"number":1,"trial_type":"bar-choose","trial_index":123,"time_elapsed":2623677,"internal_node_id":"0.0-123.0"},{"special_comment":"no","trial_type":"special_sequence","trial_index":124,"time_elapsed":2629920,"internal_node_id":"0.0-124.0"},{"during":"Nothing","bonus":312,"trial_type":"final","trial_index":125,"time_elapsed":2681401,"internal_node_id":"0.0-125.0"}],"bonus":312}