{"start_time":"2017-05-24 15:35:46","end_time":"2017-05-24 15:56:04","points_phase0":107,"points_phase1":97,"phase_order":0,"age":31,"gender":"f","tries":1,"during":"Nothing","worker_id":"A34WAR0H85FL2K","assignment_id":"386CSBG1O0FCAM1MLNNNMWH1H6I6QQ","data":[{"rt":16560,"url":"\/christiane\/tickets\/utils\/consent.html","trial_type":"html","trial_index":0,"time_elapsed":17158,"internal_node_id":"0.0-0.0"},{"age":31,"gender":"f","trial_type":"age","trial_index":1,"time_elapsed":24233,"internal_node_id":"0.0-1.0"},{"worker_id":"A34WAR0H85FL2K","trial_type":"workerid","trial_index":2,"time_elapsed":31315,"internal_node_id":"0.0-2.0"},{"tries":1,"trial_type":"instructions_check","trial_index":3,"time_elapsed":70509,"internal_node_id":"0.0-3.0"},{"rt":15208,"url":"\/christiane\/tickets\/utils\/start.html","trial_type":"html","trial_index":4,"time_elapsed":87183,"internal_node_id":"0.0-4.0"},{"trial_type":"number-animation","trial_index":5,"time_elapsed":104083,"internal_node_id":"0.0-5.0"},{"phase":0,"sequence":0,"avg":181,"response":170,"trial_type":"training_avg","trial_index":6,"time_elapsed":117075,"internal_node_id":"0.0-6.0"},{"trial_type":"number-animation","trial_index":7,"time_elapsed":132848,"internal_node_id":"0.0-7.0"},{"phase":0,"sequence":1,"avg":188,"response":201,"trial_type":"training_avg","trial_index":8,"time_elapsed":143791,"internal_node_id":"0.0-8.0"},{"trial_type":"number-animation","trial_index":9,"time_elapsed":153497,"internal_node_id":"0.0-9.0"},{"phase":0,"sequence":2,"avg":188,"response":188,"trial_type":"training_avg","trial_index":10,"time_elapsed":161058,"internal_node_id":"0.0-10.0"},{"trial_type":"number-animation","trial_index":11,"time_elapsed":169749,"internal_node_id":"0.0-11.0"},{"phase":0,"sequence":3,"avg":177,"response":176,"trial_type":"training_avg","trial_index":12,"time_elapsed":177431,"internal_node_id":"0.0-12.0"},{"trial_type":"number-animation","trial_index":13,"time_elapsed":187237,"internal_node_id":"0.0-13.0"},{"phase":0,"sequence":4,"avg":182,"response":175,"trial_type":"training_avg","trial_index":14,"time_elapsed":196029,"internal_node_id":"0.0-14.0"},{"responses":[{"value":3,"offby":2,"category":"$115 - $130","category_index":0},{"value":3,"offby":-2,"category":"$131 - $145","category_index":1},{"value":7,"offby":-5,"category":"$146 - $160","category_index":2},{"value":25,"offby":3,"category":"$161 - $175","category_index":3},{"value":27,"offby":-7,"category":"$176 - $190","category_index":4},{"value":27,"offby":12,"category":"$191 - $205","category_index":5},{"value":8,"offby":-3,"category":"$206 - $220","category_index":6}],"phase":0,"number":0,"trial_type":"bar-choose","trial_index":15,"time_elapsed":295777,"internal_node_id":"0.0-15.0"},{"rt":22844,"url":"\/christiane\/tickets\/utils\/testing.html","trial_type":"html","trial_index":16,"time_elapsed":319730,"internal_node_id":"0.0-16.0"},{"phase":0,"order":[24,37,40,9,4,28,35,30,21,18,8,43,1,12,15,3,44,20,13,33,32,27,45,41,48,16,14,36,11,5,26,0,17,29,46,49,7,22,25,47,2,38,34,39,42,10,23,31,6,19],"trial_type":"store_order","trial_index":17,"time_elapsed":320734,"internal_node_id":"0.0-17.0"},{"result":165,"points":2,"place":1,"phase":0,"sequence":-1,"prices":[184,180,224,165,181,199,185,193,218,146],"times":[3014,1339,916,3478],"next_num":4,"trial_type":"ticket-choose","trial_index":18,"time_elapsed":333141,"internal_node_id":"0.0-18.0"},{"rt":24019,"url":"\/christiane\/tickets\/utils\/testing_after.html","trial_type":"html","trial_index":19,"time_elapsed":358288,"internal_node_id":"0.0-19.0"},{"result":165,"points":3,"place":0,"phase":0,"sequence":0,"prices":[193,165,175,181,185,224,180,199,218,184],"times":[2067,2544],"next_num":2,"trial_type":"ticket-choose","trial_index":20,"time_elapsed":367081,"internal_node_id":"0.0-20.0"},{"result":163,"points":2,"place":1,"phase":0,"sequence":1,"prices":[198,193,169,163,202,182,152,164,177,171],"times":[1385,772,978,2295],"next_num":4,"trial_type":"ticket-choose","trial_index":21,"time_elapsed":375981,"internal_node_id":"0.0-21.0"},{"result":150,"points":3,"place":0,"phase":0,"sequence":2,"prices":[189,150,175,160,188,207,158,194,178,199],"times":[1786,2144],"next_num":2,"trial_type":"ticket-choose","trial_index":22,"time_elapsed":382944,"internal_node_id":"0.0-22.0"},{"result":165,"points":2,"place":1,"phase":0,"sequence":3,"prices":[175,186,177,210,179,187,165,166,153,208],"times":[1442,646,603,724,945,954,2184],"next_num":7,"trial_type":"ticket-choose","trial_index":23,"time_elapsed":394513,"internal_node_id":"0.0-23.0"},{"result":167,"points":2,"place":1,"phase":0,"sequence":4,"prices":[175,185,178,215,181,186,167,168,208,156],"times":[6137,553,521,532,622,553,3286],"next_num":7,"trial_type":"ticket-choose","trial_index":24,"time_elapsed":410571,"internal_node_id":"0.0-24.0"},{"result":165,"points":3,"place":0,"phase":0,"sequence":5,"prices":[196,165,170,184,187,211,171,201,202,185],"times":[1501,2060],"next_num":2,"trial_type":"ticket-choose","trial_index":25,"time_elapsed":416911,"internal_node_id":"0.0-25.0"},{"result":154,"points":2,"place":1,"phase":0,"sequence":6,"prices":[168,154,172,185,195,144,184,211,177,227],"times":[1760,2006],"next_num":2,"trial_type":"ticket-choose","trial_index":26,"time_elapsed":423209,"internal_node_id":"0.0-26.0"},{"result":165,"points":3,"place":0,"phase":0,"sequence":7,"prices":[191,172,169,175,182,203,170,195,165,176],"times":[926,511,676,528,571,662,974,608,2038],"next_num":9,"trial_type":"ticket-choose","trial_index":27,"time_elapsed":434825,"internal_node_id":"0.0-27.0"},{"result":158,"points":2,"place":1,"phase":0,"sequence":8,"prices":[175,186,177,221,180,187,158,166,209,153],"times":[869,639,609,541,552,514,2439],"next_num":7,"trial_type":"ticket-choose","trial_index":28,"time_elapsed":444636,"internal_node_id":"0.0-28.0"},{"result":158,"points":2,"place":1,"phase":0,"sequence":9,"prices":[175,186,158,211,180,187,177,166,209,153],"times":[1474,532,2540],"next_num":3,"trial_type":"ticket-choose","trial_index":29,"time_elapsed":451956,"internal_node_id":"0.0-29.0"},{"result":165,"points":2,"place":1,"phase":0,"sequence":10,"prices":[174,186,165,212,181,187,177,167,153,209],"times":[976,559,2505],"next_num":3,"trial_type":"ticket-choose","trial_index":30,"time_elapsed":458698,"internal_node_id":"0.0-30.0"},{"result":157,"points":3,"place":0,"phase":0,"sequence":11,"prices":[201,187,157,184,198,179,188,185,178,170],"times":[907,570,2106],"next_num":3,"trial_type":"ticket-choose","trial_index":31,"time_elapsed":465468,"internal_node_id":"0.0-31.0"},{"result":167,"points":2,"place":1,"phase":0,"sequence":12,"prices":[175,185,167,224,181,186,178,168,208,156],"times":[837,573,3239],"next_num":3,"trial_type":"ticket-choose","trial_index":32,"time_elapsed":472751,"internal_node_id":"0.0-32.0"},{"result":163,"points":2,"place":1,"phase":0,"sequence":13,"prices":[175,186,163,214,179,187,176,166,153,208],"times":[800,596,2310],"next_num":3,"trial_type":"ticket-choose","trial_index":33,"time_elapsed":479269,"internal_node_id":"0.0-33.0"},{"result":163,"points":2,"place":1,"phase":0,"sequence":14,"prices":[175,186,176,210,179,187,163,166,153,208],"times":[1287,566,574,546,535,624,2354],"next_num":7,"trial_type":"ticket-choose","trial_index":34,"time_elapsed":489999,"internal_node_id":"0.0-34.0"},{"result":167,"points":2,"place":1,"phase":0,"sequence":15,"prices":[174,186,178,217,181,188,167,168,208,156],"times":[867,569,506,521,565,533,1301],"next_num":7,"trial_type":"ticket-choose","trial_index":35,"time_elapsed":498727,"internal_node_id":"0.0-35.0"},{"result":159,"points":1,"place":2,"phase":0,"sequence":16,"prices":[180,159,149,175,185,141,163,174,178,207],"times":[998,1485],"next_num":2,"trial_type":"ticket-choose","trial_index":36,"time_elapsed":503998,"internal_node_id":"0.0-36.0"},{"result":158,"points":2,"place":1,"phase":0,"sequence":17,"prices":[176,187,158,210,181,187,177,165,208,153],"times":[620,492,1449],"next_num":3,"trial_type":"ticket-choose","trial_index":37,"time_elapsed":509226,"internal_node_id":"0.0-37.0"},{"result":163,"points":2,"place":1,"phase":0,"sequence":18,"prices":[175,187,163,209,180,188,176,165,154,208],"times":[826,543,1372],"next_num":3,"trial_type":"ticket-choose","trial_index":38,"time_elapsed":514517,"internal_node_id":"0.0-38.0"},{"result":168,"points":1,"place":2,"phase":0,"sequence":19,"prices":[183,182,192,168,173,205,167,187,165,170],"times":[842,530,515,1467],"next_num":4,"trial_type":"ticket-choose","trial_index":39,"time_elapsed":520791,"internal_node_id":"0.0-39.0"},{"result":165,"points":3,"place":0,"phase":0,"sequence":20,"prices":[193,169,171,187,190,224,174,194,165,188],"times":[595,457,544,508,539,620,536,1134,1357],"next_num":9,"trial_type":"ticket-choose","trial_index":40,"time_elapsed":531088,"internal_node_id":"0.0-40.0"},{"result":165,"points":3,"place":0,"phase":0,"sequence":21,"prices":[192,165,171,178,188,217,172,195,197,186],"times":[873,1082],"next_num":2,"trial_type":"ticket-choose","trial_index":41,"time_elapsed":535327,"internal_node_id":"0.0-41.0"},{"result":167,"points":2,"place":1,"phase":0,"sequence":22,"prices":[212,192,188,184,167,193,189,164,176,170],"times":[1655,743,568,564,1418],"next_num":5,"trial_type":"ticket-choose","trial_index":42,"time_elapsed":543081,"internal_node_id":"0.0-42.0"},{"result":158,"points":1,"place":3,"phase":0,"sequence":23,"prices":[201,207,155,158,156,165,167,135,178,177],"times":[659,533,439,1583],"next_num":4,"trial_type":"ticket-choose","trial_index":43,"time_elapsed":551488,"internal_node_id":"0.0-43.0"},{"result":147,"points":3,"place":0,"phase":0,"sequence":24,"prices":[181,215,169,147,182,193,177,184,176,179],"times":[580,616,515,1433],"next_num":4,"trial_type":"ticket-choose","trial_index":44,"time_elapsed":557234,"internal_node_id":"0.0-44.0"},{"result":163,"points":2,"place":1,"phase":0,"sequence":25,"prices":[175,187,176,209,180,188,163,165,154,208],"times":[1095,567,1322,593,583,551,1172],"next_num":7,"trial_type":"ticket-choose","trial_index":45,"time_elapsed":566290,"internal_node_id":"0.0-45.0"},{"result":163,"points":2,"place":1,"phase":0,"sequence":26,"prices":[174,186,163,212,181,187,176,166,153,209],"times":[1193,478,1485],"next_num":3,"trial_type":"ticket-choose","trial_index":46,"time_elapsed":571807,"internal_node_id":"0.0-46.0"},{"result":165,"points":2,"place":1,"phase":0,"sequence":27,"prices":[188,200,165,172,198,174,177,154,177,180],"times":[738,581,1197],"next_num":3,"trial_type":"ticket-choose","trial_index":47,"time_elapsed":576546,"internal_node_id":"0.0-47.0"},{"result":165,"points":2,"place":1,"phase":0,"sequence":28,"prices":[174,186,177,217,181,187,165,166,153,209],"times":[1040,592,525,562,541,504,1255],"next_num":7,"trial_type":"ticket-choose","trial_index":48,"time_elapsed":584849,"internal_node_id":"0.0-48.0"},{"result":167,"points":2,"place":1,"phase":0,"sequence":29,"prices":[175,186,178,212,179,187,167,169,209,153],"times":[860,470,520,540,533,525,1252],"next_num":7,"trial_type":"ticket-choose","trial_index":49,"time_elapsed":592909,"internal_node_id":"0.0-49.0"},{"result":165,"points":2,"place":1,"phase":0,"sequence":30,"prices":[200,165,165,173,182,207,161,202,204,180],"times":[562,1331],"next_num":2,"trial_type":"ticket-choose","trial_index":50,"time_elapsed":596967,"internal_node_id":"0.0-50.0"},{"result":167,"points":2,"place":1,"phase":0,"sequence":31,"prices":[174,186,167,211,181,188,178,168,208,156],"times":[817,614,1124],"next_num":3,"trial_type":"ticket-choose","trial_index":51,"time_elapsed":602012,"internal_node_id":"0.0-51.0"},{"result":163,"points":2,"place":1,"phase":0,"sequence":32,"prices":[174,186,176,217,181,187,163,166,153,209],"times":[724,540,536,526,528,546,1203],"next_num":7,"trial_type":"ticket-choose","trial_index":52,"time_elapsed":609903,"internal_node_id":"0.0-52.0"},{"result":165,"points":3,"place":0,"phase":0,"sequence":33,"prices":[185,170,182,201,173,199,171,188,165,168],"times":[1272,945,537,523,512,562,529,1089,1115],"next_num":9,"trial_type":"ticket-choose","trial_index":53,"time_elapsed":620661,"internal_node_id":"0.0-53.0"},{"result":158,"points":3,"place":0,"phase":0,"sequence":34,"prices":[210,184,226,193,215,158,199,175,176,208],"times":[760,964,941,688,570,1379],"next_num":6,"trial_type":"ticket-choose","trial_index":54,"time_elapsed":628957,"internal_node_id":"0.0-54.0"},{"result":163,"points":1,"place":2,"phase":0,"sequence":35,"prices":[183,163,185,180,166,148,160,186,176,184],"times":[575,1302],"next_num":2,"trial_type":"ticket-choose","trial_index":55,"time_elapsed":633036,"internal_node_id":"0.0-55.0"},{"result":165,"points":2,"place":1,"phase":0,"sequence":36,"prices":[175,187,165,209,180,188,177,166,154,208],"times":[744,494,1195],"next_num":3,"trial_type":"ticket-choose","trial_index":56,"time_elapsed":637776,"internal_node_id":"0.0-56.0"},{"result":158,"points":2,"place":1,"phase":0,"sequence":37,"prices":[175,186,177,209,181,188,158,167,208,154],"times":[829,552,514,575,593,462,1174],"next_num":7,"trial_type":"ticket-choose","trial_index":57,"time_elapsed":645698,"internal_node_id":"0.0-57.0"},{"result":165,"points":2,"place":1,"phase":0,"sequence":38,"prices":[201,165,162,166,185,214,165,202,204,179],"times":[670,1321],"next_num":2,"trial_type":"ticket-choose","trial_index":58,"time_elapsed":649858,"internal_node_id":"0.0-58.0"},{"result":152,"points":3,"place":0,"phase":0,"sequence":39,"prices":[200,181,203,152,175,171,160,154,176,191],"times":[836,513,521,1207],"next_num":4,"trial_type":"ticket-choose","trial_index":59,"time_elapsed":655619,"internal_node_id":"0.0-59.0"},{"result":167,"points":2,"place":1,"phase":0,"sequence":40,"prices":[175,186,167,225,179,187,178,169,209,153],"times":[741,462,1987],"next_num":3,"trial_type":"ticket-choose","trial_index":60,"time_elapsed":661250,"internal_node_id":"0.0-60.0"},{"result":168,"points":1,"place":2,"phase":0,"sequence":41,"prices":[168,199,196,198,185,195,227,163,177,166],"times":[1775],"next_num":1,"trial_type":"ticket-choose","trial_index":61,"time_elapsed":665269,"internal_node_id":"0.0-61.0"},{"result":155,"points":2,"place":1,"phase":0,"sequence":42,"prices":[181,155,148,161,168,187,172,199,176,194],"times":[1964,1297],"next_num":2,"trial_type":"ticket-choose","trial_index":62,"time_elapsed":670857,"internal_node_id":"0.0-62.0"},{"result":165,"points":3,"place":0,"phase":0,"sequence":43,"prices":[189,167,180,197,165,168,172,213,178,171],"times":[755,472,565,522,1191],"next_num":5,"trial_type":"ticket-choose","trial_index":63,"time_elapsed":677130,"internal_node_id":"0.0-63.0"},{"result":143,"points":3,"place":0,"phase":0,"sequence":44,"prices":[222,173,202,197,143,205,198,183,178,186],"times":[801,509,648,530,1266],"next_num":5,"trial_type":"ticket-choose","trial_index":64,"time_elapsed":683792,"internal_node_id":"0.0-64.0"},{"result":165,"points":2,"place":1,"phase":0,"sequence":45,"prices":[175,187,177,209,180,188,165,165,154,208],"times":[656,672,511,523,605,524,1177],"next_num":7,"trial_type":"ticket-choose","trial_index":65,"time_elapsed":691682,"internal_node_id":"0.0-65.0"},{"result":158,"points":2,"place":1,"phase":0,"sequence":46,"prices":[176,187,177,225,181,187,158,165,208,153],"times":[603,525,489,611,518,542,1542],"next_num":7,"trial_type":"ticket-choose","trial_index":66,"time_elapsed":699729,"internal_node_id":"0.0-66.0"},{"result":167,"points":1,"place":2,"phase":0,"sequence":47,"prices":[171,203,175,170,167,220,192,186,165,165],"times":[1269,505,542,906,2198],"next_num":5,"trial_type":"ticket-choose","trial_index":67,"time_elapsed":707934,"internal_node_id":"0.0-67.0"},{"result":165,"points":2,"place":1,"phase":0,"sequence":48,"prices":[175,186,165,214,179,187,177,166,153,208],"times":[1104,572,1363],"next_num":3,"trial_type":"ticket-choose","trial_index":68,"time_elapsed":713678,"internal_node_id":"0.0-68.0"},{"result":158,"points":2,"place":1,"phase":0,"sequence":49,"prices":[175,186,158,209,181,188,177,167,208,154],"times":[898,518,1215],"next_num":3,"trial_type":"ticket-choose","trial_index":69,"time_elapsed":719137,"internal_node_id":"0.0-69.0"},{"responses":[{"value":2,"offby":1,"category":"$115 - $130","category_index":0},{"value":5,"offby":0,"category":"$131 - $145","category_index":1},{"value":9,"offby":-3,"category":"$146 - $160","category_index":2},{"value":25,"offby":3,"category":"$161 - $175","category_index":3},{"value":35,"offby":1,"category":"$176 - $190","category_index":4},{"value":15,"offby":0,"category":"$191 - $205","category_index":5},{"value":9,"offby":-2,"category":"$206 - $220","category_index":6}],"phase":1,"number":1,"trial_type":"bar-choose","trial_index":70,"time_elapsed":790001,"internal_node_id":"0.0-70.0"},{"rt":21307,"url":"\/christiane\/tickets\/utils\/testing2.html","trial_type":"point_update","trial_index":71,"time_elapsed":812540,"internal_node_id":"0.0-71.0"},{"phase":1,"order":[15,31,5,45,1,12,20,48,3,39,18,23,16,44,34,4,28,37,49,33,14,26,7,46,13,9,35,43,25,29,19,2,47,17,6,27,42,8,30,24,41,38,11,21,10,0,40,32,36,22],"trial_type":"store_order","trial_index":72,"time_elapsed":813557,"internal_node_id":"0.0-72.0"},{"result":163,"points":2,"place":1,"phase":1,"sequence":0,"prices":[176,175,186,210,163,179,187,166,153,208],"times":[1473,984,658,678,1301],"next_num":5,"trial_type":"ticket-choose","trial_index":73,"time_elapsed":821708,"internal_node_id":"0.0-73.0"},{"result":165,"points":1,"place":2,"phase":1,"sequence":1,"prices":[171,169,186,165,163,167,220,148,187,165],"times":[698,628,581,1245],"next_num":4,"trial_type":"ticket-choose","trial_index":74,"time_elapsed":828206,"internal_node_id":"0.0-74.0"},{"result":167,"points":2,"place":1,"phase":1,"sequence":2,"prices":[178,175,186,212,167,179,187,169,209,153],"times":[18590,799,590,553,1408],"next_num":5,"trial_type":"ticket-choose","trial_index":75,"time_elapsed":852997,"internal_node_id":"0.0-75.0"},{"result":167,"points":2,"place":1,"phase":1,"sequence":3,"prices":[199,191,188,174,167,193,189,164,176,170],"times":[671,565,585,736,1578],"next_num":5,"trial_type":"ticket-choose","trial_index":76,"time_elapsed":859857,"internal_node_id":"0.0-76.0"},{"result":167,"points":2,"place":1,"phase":1,"sequence":4,"prices":[167,175,185,224,178,181,186,168,208,156],"times":[1752],"next_num":1,"trial_type":"ticket-choose","trial_index":77,"time_elapsed":863577,"internal_node_id":"0.0-77.0"},{"result":163,"points":2,"place":1,"phase":1,"sequence":5,"prices":[163,175,186,214,176,179,187,166,153,208],"times":[1540],"next_num":1,"trial_type":"ticket-choose","trial_index":78,"time_elapsed":866997,"internal_node_id":"0.0-78.0"},{"result":158,"points":2,"place":1,"phase":1,"sequence":6,"prices":[158,176,187,210,177,181,187,165,208,153],"times":[1070],"next_num":1,"trial_type":"ticket-choose","trial_index":79,"time_elapsed":870935,"internal_node_id":"0.0-79.0"},{"result":147,"points":3,"place":0,"phase":1,"sequence":7,"prices":[181,214,169,147,182,193,178,184,176,179],"times":[1155,513,879,1501],"next_num":4,"trial_type":"ticket-choose","trial_index":80,"time_elapsed":877554,"internal_node_id":"0.0-80.0"},{"result":167,"points":2,"place":1,"phase":1,"sequence":8,"prices":[178,174,186,217,167,181,188,168,208,156],"times":[1369,517,551,534,1396],"next_num":5,"trial_type":"ticket-choose","trial_index":81,"time_elapsed":884692,"internal_node_id":"0.0-81.0"},{"result":167,"points":2,"place":1,"phase":1,"sequence":9,"prices":[189,167,180,197,165,168,172,213,178,171],"times":[583,1395],"next_num":2,"trial_type":"ticket-choose","trial_index":82,"time_elapsed":888682,"internal_node_id":"0.0-82.0"},{"result":158,"points":2,"place":1,"phase":1,"sequence":10,"prices":[158,175,186,211,177,180,187,166,209,153],"times":[1281],"next_num":1,"trial_type":"ticket-choose","trial_index":83,"time_elapsed":891829,"internal_node_id":"0.0-83.0"},{"result":158,"points":2,"place":1,"phase":1,"sequence":11,"prices":[177,176,187,225,158,181,187,165,208,153],"times":[1177,561,560,555,1393],"next_num":5,"trial_type":"ticket-choose","trial_index":84,"time_elapsed":898667,"internal_node_id":"0.0-84.0"},{"result":163,"points":2,"place":1,"phase":1,"sequence":12,"prices":[176,187,179,209,163,180,188,165,154,208],"times":[639,534,548,579,1624],"next_num":5,"trial_type":"ticket-choose","trial_index":85,"time_elapsed":905168,"internal_node_id":"0.0-85.0"},{"result":159,"points":1,"place":2,"phase":1,"sequence":13,"prices":[181,159,149,175,185,151,163,174,178,207],"times":[895,1113],"next_num":2,"trial_type":"ticket-choose","trial_index":86,"time_elapsed":909332,"internal_node_id":"0.0-86.0"},{"result":156,"points":2,"place":1,"phase":1,"sequence":14,"prices":[180,156,149,160,168,186,172,198,176,195],"times":[535,1144],"next_num":2,"trial_type":"ticket-choose","trial_index":87,"time_elapsed":912973,"internal_node_id":"0.0-87.0"},{"result":167,"points":2,"place":1,"phase":1,"sequence":15,"prices":[178,175,185,215,167,181,186,168,208,156],"times":[979,648,551,589,1290],"next_num":5,"trial_type":"ticket-choose","trial_index":88,"time_elapsed":919775,"internal_node_id":"0.0-88.0"},{"result":165,"points":3,"place":0,"phase":1,"sequence":16,"prices":[196,171,170,184,187,165,211,169,201,202],"times":[1037,1784,552,526,530,1070],"next_num":6,"trial_type":"ticket-choose","trial_index":89,"time_elapsed":928936,"internal_node_id":"0.0-89.0"},{"result":165,"points":1,"place":2,"phase":1,"sequence":17,"prices":[199,193,169,165,202,182,151,164,176,171],"times":[577,540,909,1630],"next_num":4,"trial_type":"ticket-choose","trial_index":90,"time_elapsed":935289,"internal_node_id":"0.0-90.0"},{"result":163,"points":1,"place":2,"phase":1,"sequence":18,"prices":[173,163,185,181,166,148,160,185,176,184],"times":[653,1476],"next_num":2,"trial_type":"ticket-choose","trial_index":91,"time_elapsed":939647,"internal_node_id":"0.0-91.0"},{"result":165,"points":2,"place":1,"phase":1,"sequence":19,"prices":[183,179,188,165,168,173,205,159,187,191],"times":[571,658,548,2020],"next_num":4,"trial_type":"ticket-choose","trial_index":92,"time_elapsed":945916,"internal_node_id":"0.0-92.0"},{"result":163,"points":2,"place":1,"phase":1,"sequence":20,"prices":[163,174,186,212,176,181,187,166,153,209],"times":[1476],"next_num":1,"trial_type":"ticket-choose","trial_index":93,"time_elapsed":949324,"internal_node_id":"0.0-93.0"},{"result":165,"points":1,"place":2,"phase":1,"sequence":21,"prices":[200,173,182,169,207,165,152,202,161,204],"times":[815,635,473,687,513,1219],"next_num":6,"trial_type":"ticket-choose","trial_index":94,"time_elapsed":956750,"internal_node_id":"0.0-94.0"},{"result":165,"points":2,"place":1,"phase":1,"sequence":22,"prices":[165,175,187,209,177,180,188,167,154,208],"times":[1678],"next_num":1,"trial_type":"ticket-choose","trial_index":95,"time_elapsed":960296,"internal_node_id":"0.0-95.0"},{"result":208,"points":0,"place":6,"phase":1,"sequence":23,"prices":[214,184,226,192,215,158,199,175,176,208],"times":[649,567,556,1394,792,778,1493,613,1318,1381],"next_num":11,"trial_type":"ticket-choose","trial_index":96,"time_elapsed":974842,"internal_node_id":"0.0-96.0"},{"result":163,"points":2,"place":1,"phase":1,"sequence":24,"prices":[163,175,187,209,176,180,188,165,154,208],"times":[1698],"next_num":1,"trial_type":"ticket-choose","trial_index":97,"time_elapsed":979184,"internal_node_id":"0.0-97.0"},{"result":165,"points":2,"place":1,"phase":1,"sequence":25,"prices":[177,175,186,210,165,179,187,166,153,208],"times":[721,595,992,557,1129],"next_num":5,"trial_type":"ticket-choose","trial_index":98,"time_elapsed":985840,"internal_node_id":"0.0-98.0"},{"result":167,"points":1,"place":2,"phase":1,"sequence":26,"prices":[167,153,172,185,195,143,184,211,177,227],"times":[1337],"next_num":1,"trial_type":"ticket-choose","trial_index":99,"time_elapsed":989021,"internal_node_id":"0.0-99.0"},{"result":157,"points":3,"place":0,"phase":1,"sequence":27,"prices":[201,187,157,184,198,179,188,185,178,170],"times":[613,575,1113],"next_num":3,"trial_type":"ticket-choose","trial_index":100,"time_elapsed":993569,"internal_node_id":"0.0-100.0"},{"result":166,"points":1,"place":3,"phase":1,"sequence":28,"prices":[201,204,179,166,185,165,214,156,202,165],"times":[1067,611,546,1083],"next_num":4,"trial_type":"ticket-choose","trial_index":101,"time_elapsed":999274,"internal_node_id":"0.0-101.0"},{"result":165,"points":1,"place":2,"phase":1,"sequence":29,"prices":[185,179,191,165,161,173,199,150,188,168],"times":[579,515,530,1102],"next_num":4,"trial_type":"ticket-choose","trial_index":102,"time_elapsed":1004639,"internal_node_id":"0.0-102.0"},{"result":167,"points":1,"place":2,"phase":1,"sequence":30,"prices":[158,175,186,209,177,181,188,167,208,154],"times":[1023,796,654,575,663,606,552,1118],"next_num":8,"trial_type":"ticket-choose","trial_index":103,"time_elapsed":1014158,"internal_node_id":"0.0-103.0"},{"result":167,"points":2,"place":1,"phase":1,"sequence":31,"prices":[167,175,186,225,178,179,187,169,209,153],"times":[1212],"next_num":1,"trial_type":"ticket-choose","trial_index":104,"time_elapsed":1017246,"internal_node_id":"0.0-104.0"},{"result":152,"points":3,"place":0,"phase":1,"sequence":32,"prices":[200,180,203,152,175,170,160,154,176,191],"times":[723,746,615,1208],"next_num":4,"trial_type":"ticket-choose","trial_index":105,"time_elapsed":1022984,"internal_node_id":"0.0-105.0"},{"result":163,"points":2,"place":1,"phase":1,"sequence":33,"prices":[176,186,178,217,163,181,187,166,153,209],"times":[844,527,548,586,1230],"next_num":5,"trial_type":"ticket-choose","trial_index":106,"time_elapsed":1029389,"internal_node_id":"0.0-106.0"},{"result":165,"points":2,"place":1,"phase":1,"sequence":34,"prices":[165,175,186,214,177,179,187,166,153,208],"times":[1638],"next_num":1,"trial_type":"ticket-choose","trial_index":107,"time_elapsed":1032931,"internal_node_id":"0.0-107.0"},{"result":165,"points":3,"place":0,"phase":1,"sequence":35,"prices":[192,172,171,178,188,165,217,168,195,197],"times":[602,586,546,531,524,1082],"next_num":6,"trial_type":"ticket-choose","trial_index":108,"time_elapsed":1039672,"internal_node_id":"0.0-108.0"},{"result":169,"points":3,"place":0,"phase":1,"sequence":36,"prices":[220,173,201,197,169,205,198,183,178,186],"times":[600,1134,1191,606,1233],"next_num":5,"trial_type":"ticket-choose","trial_index":109,"time_elapsed":1047296,"internal_node_id":"0.0-109.0"},{"result":165,"points":2,"place":1,"phase":1,"sequence":37,"prices":[165,174,186,212,177,181,187,166,153,209],"times":[1247],"next_num":1,"trial_type":"ticket-choose","trial_index":110,"time_elapsed":1050411,"internal_node_id":"0.0-110.0"},{"result":165,"points":2,"place":1,"phase":1,"sequence":38,"prices":[191,170,182,165,175,182,203,157,195,200],"times":[1221,505,483,1023],"next_num":4,"trial_type":"ticket-choose","trial_index":111,"time_elapsed":1056161,"internal_node_id":"0.0-111.0"},{"result":165,"points":3,"place":0,"phase":1,"sequence":39,"prices":[193,181,175,181,185,165,224,199,218,184],"times":[1113,553,543,524,556,1150],"next_num":6,"trial_type":"ticket-choose","trial_index":112,"time_elapsed":1064010,"internal_node_id":"0.0-112.0"},{"result":158,"points":1,"place":3,"phase":1,"sequence":40,"prices":[200,207,155,158,156,168,167,135,178,177],"times":[518,487,406,1304],"next_num":4,"trial_type":"ticket-choose","trial_index":113,"time_elapsed":1069576,"internal_node_id":"0.0-113.0"},{"result":163,"points":3,"place":0,"phase":1,"sequence":41,"prices":[163,199,196,199,185,195,227,163,177,166],"times":[1556],"next_num":1,"trial_type":"ticket-choose","trial_index":114,"time_elapsed":1073954,"internal_node_id":"0.0-114.0"},{"result":165,"points":2,"place":1,"phase":1,"sequence":42,"prices":[177,174,186,217,165,181,187,166,153,209],"times":[789,599,568,531,1309],"next_num":5,"trial_type":"ticket-choose","trial_index":115,"time_elapsed":1080450,"internal_node_id":"0.0-115.0"},{"result":158,"points":2,"place":1,"phase":1,"sequence":43,"prices":[177,175,186,221,158,180,187,166,209,153],"times":[596,1127,576,513,1183],"next_num":5,"trial_type":"ticket-choose","trial_index":116,"time_elapsed":1087198,"internal_node_id":"0.0-116.0"},{"result":165,"points":2,"place":1,"phase":1,"sequence":44,"prices":[177,175,187,209,165,180,188,165,154,208],"times":[533,509,508,542,1095],"next_num":5,"trial_type":"ticket-choose","trial_index":117,"time_elapsed":1093196,"internal_node_id":"0.0-117.0"},{"result":167,"points":2,"place":1,"phase":1,"sequence":45,"prices":[167,174,186,211,178,181,188,168,208,156],"times":[1661],"next_num":1,"trial_type":"ticket-choose","trial_index":118,"time_elapsed":1096773,"internal_node_id":"0.0-118.0"},{"result":150,"points":3,"place":0,"phase":1,"sequence":46,"prices":[190,150,175,161,188,207,157,194,178,199],"times":[667,1142],"next_num":2,"trial_type":"ticket-choose","trial_index":119,"time_elapsed":1100840,"internal_node_id":"0.0-119.0"},{"result":165,"points":2,"place":1,"phase":1,"sequence":47,"prices":[193,174,224,165,187,190,224,161,194,195],"times":[513,552,622,1345],"next_num":4,"trial_type":"ticket-choose","trial_index":120,"time_elapsed":1106632,"internal_node_id":"0.0-120.0"},{"result":165,"points":2,"place":1,"phase":1,"sequence":48,"prices":[187,201,165,172,196,174,178,154,172,180],"times":[1023,618,1087],"next_num":3,"trial_type":"ticket-choose","trial_index":121,"time_elapsed":1111786,"internal_node_id":"0.0-121.0"},{"result":158,"points":2,"place":1,"phase":1,"sequence":49,"prices":[177,175,186,209,158,181,188,167,208,154],"times":[863,622,565,579,1108],"next_num":5,"trial_type":"ticket-choose","trial_index":122,"time_elapsed":1118416,"internal_node_id":"0.0-122.0"},{"responses":[{"value":2,"offby":1,"category":"$115 - $130","category_index":0},{"value":5,"offby":0,"category":"$131 - $145","category_index":1},{"value":9,"offby":-3,"category":"$146 - $160","category_index":2},{"value":25,"offby":3,"category":"$161 - $175","category_index":3},{"value":35,"offby":1,"category":"$176 - $190","category_index":4},{"value":15,"offby":0,"category":"$191 - $205","category_index":5},{"value":9,"offby":-2,"category":"$206 - $220","category_index":6}],"phase":1,"number":1,"trial_type":"bar-choose","trial_index":123,"time_elapsed":1174501,"internal_node_id":"0.0-123.0"},{"special_comment":"No.","trial_type":"special_sequence","trial_index":124,"time_elapsed":1182624,"internal_node_id":"0.0-124.0"},{"during":"Nothing","bonus":272,"trial_type":"final","trial_index":125,"time_elapsed":1214175,"internal_node_id":"0.0-125.0"}],"bonus":272}