{"start_time":"2017-05-24 12:02:59","end_time":"2017-05-24 12:27:03","points_phase0":103,"points_phase1":95,"phase_order":0,"age":51,"gender":"f","tries":1,"during":"Nothing","worker_id":"A351P2O6QGTCS","assignment_id":"3EJPLAJKEN9LOE2D8J60DPT5M8M6Z1","data":[{"rt":15671,"url":"\/christiane\/tickets\/utils\/consent.html","trial_type":"html","trial_index":0,"time_elapsed":15846,"internal_node_id":"0.0-0.0"},{"age":51,"gender":"f","trial_type":"age","trial_index":1,"time_elapsed":22307,"internal_node_id":"0.0-1.0"},{"worker_id":"A351P2O6QGTCS","trial_type":"workerid","trial_index":2,"time_elapsed":35289,"internal_node_id":"0.0-2.0"},{"tries":1,"trial_type":"instructions_check","trial_index":3,"time_elapsed":67288,"internal_node_id":"0.0-3.0"},{"rt":13343,"url":"\/christiane\/tickets\/utils\/start.html","trial_type":"html","trial_index":4,"time_elapsed":81746,"internal_node_id":"0.0-4.0"},{"trial_type":"number-animation","trial_index":5,"time_elapsed":96961,"internal_node_id":"0.0-5.0"},{"phase":0,"sequence":0,"avg":181,"response":178,"trial_type":"training_avg","trial_index":6,"time_elapsed":109588,"internal_node_id":"0.0-6.0"},{"trial_type":"number-animation","trial_index":7,"time_elapsed":120752,"internal_node_id":"0.0-7.0"},{"phase":0,"sequence":1,"avg":188,"response":196,"trial_type":"training_avg","trial_index":8,"time_elapsed":132197,"internal_node_id":"0.0-8.0"},{"trial_type":"number-animation","trial_index":9,"time_elapsed":143724,"internal_node_id":"0.0-9.0"},{"phase":0,"sequence":2,"avg":188,"response":184,"trial_type":"training_avg","trial_index":10,"time_elapsed":153595,"internal_node_id":"0.0-10.0"},{"trial_type":"number-animation","trial_index":11,"time_elapsed":164968,"internal_node_id":"0.0-11.0"},{"phase":0,"sequence":3,"avg":177,"response":185,"trial_type":"training_avg","trial_index":12,"time_elapsed":180563,"internal_node_id":"0.0-12.0"},{"trial_type":"number-animation","trial_index":13,"time_elapsed":192561,"internal_node_id":"0.0-13.0"},{"phase":0,"sequence":4,"avg":182,"response":180,"trial_type":"training_avg","trial_index":14,"time_elapsed":201559,"internal_node_id":"0.0-14.0"},{"responses":[{"value":0,"offby":-1,"category":"$115 - $130","category_index":0},{"value":5,"offby":0,"category":"$131 - $145","category_index":1},{"value":6,"offby":-6,"category":"$146 - $160","category_index":2},{"value":9,"offby":-13,"category":"$161 - $175","category_index":3},{"value":12,"offby":-22,"category":"$176 - $190","category_index":4},{"value":20,"offby":5,"category":"$191 - $205","category_index":5},{"value":40,"offby":29,"category":"$206 - $220","category_index":6}],"phase":0,"number":0,"trial_type":"bar-choose","trial_index":15,"time_elapsed":564081,"internal_node_id":"0.0-15.0"},{"rt":4057,"url":"\/christiane\/tickets\/utils\/testing.html","trial_type":"html","trial_index":16,"time_elapsed":569253,"internal_node_id":"0.0-16.0"},{"phase":0,"order":[20,30,32,8,42,4,9,26,40,1,3,45,14,7,33,11,47,16,6,24,5,12,37,17,23,39,22,28,13,21,49,44,18,34,27,15,10,0,29,46,25,48,2,35,41,43,19,36,31,38],"trial_type":"store_order","trial_index":17,"time_elapsed":570254,"internal_node_id":"0.0-17.0"},{"result":165,"points":2,"place":1,"phase":0,"sequence":-1,"prices":[184,180,224,165,181,199,185,193,218,146],"times":[5297,1363,874,2924],"next_num":4,"trial_type":"ticket-choose","trial_index":18,"time_elapsed":584765,"internal_node_id":"0.0-18.0"},{"rt":8699,"url":"\/christiane\/tickets\/utils\/testing_after.html","trial_type":"html","trial_index":19,"time_elapsed":594594,"internal_node_id":"0.0-19.0"},{"result":158,"points":2,"place":1,"phase":0,"sequence":0,"prices":[176,187,158,210,181,187,177,165,208,153],"times":[16466,1133,3863],"next_num":3,"trial_type":"ticket-choose","trial_index":20,"time_elapsed":619768,"internal_node_id":"0.0-20.0"},{"result":165,"points":3,"place":0,"phase":0,"sequence":1,"prices":[191,172,169,175,182,203,170,195,165,176],"times":[1783,1441,1155,756,719,803,1173,745,1312],"next_num":9,"trial_type":"ticket-choose","trial_index":21,"time_elapsed":633661,"internal_node_id":"0.0-21.0"},{"result":165,"points":3,"place":0,"phase":0,"sequence":2,"prices":[193,169,171,187,190,224,174,194,165,188],"times":[1976,971,770,680,677,671,1002,725,1113],"next_num":9,"trial_type":"ticket-choose","trial_index":22,"time_elapsed":646290,"internal_node_id":"0.0-22.0"},{"result":167,"points":1,"place":2,"phase":0,"sequence":3,"prices":[174,186,165,212,181,187,177,167,153,209],"times":[1792,731,1419,702,705,726,1287,1154],"next_num":8,"trial_type":"ticket-choose","trial_index":23,"time_elapsed":658909,"internal_node_id":"0.0-23.0"},{"result":143,"points":3,"place":0,"phase":0,"sequence":4,"prices":[222,173,202,197,143,205,198,183,178,186],"times":[1586,787,726,709,1318],"next_num":5,"trial_type":"ticket-choose","trial_index":24,"time_elapsed":667272,"internal_node_id":"0.0-24.0"},{"result":167,"points":2,"place":1,"phase":0,"sequence":5,"prices":[175,185,178,215,181,186,167,168,208,156],"times":[1697,655,796,664,773,732,1091],"next_num":7,"trial_type":"ticket-choose","trial_index":25,"time_elapsed":677282,"internal_node_id":"0.0-25.0"},{"result":177,"points":1,"place":4,"phase":0,"sequence":6,"prices":[175,186,177,210,179,187,165,166,153,208],"times":[1396,889,1457],"next_num":3,"trial_type":"ticket-choose","trial_index":26,"time_elapsed":683774,"internal_node_id":"0.0-26.0"},{"result":165,"points":2,"place":1,"phase":0,"sequence":7,"prices":[200,165,165,173,182,207,161,202,204,180],"times":[1309,1270],"next_num":2,"trial_type":"ticket-choose","trial_index":27,"time_elapsed":689011,"internal_node_id":"0.0-27.0"},{"result":158,"points":2,"place":1,"phase":0,"sequence":8,"prices":[189,150,175,160,188,207,158,194,178,199],"times":[1249,643,1133,1315,724,671,1269],"next_num":7,"trial_type":"ticket-choose","trial_index":28,"time_elapsed":699651,"internal_node_id":"0.0-28.0"},{"result":168,"points":1,"place":2,"phase":0,"sequence":9,"prices":[175,185,167,224,181,186,178,168,208,156],"times":[1325,794,1061,721,761,813,867,1058],"next_num":8,"trial_type":"ticket-choose","trial_index":29,"time_elapsed":710915,"internal_node_id":"0.0-29.0"},{"result":167,"points":2,"place":1,"phase":0,"sequence":10,"prices":[174,186,178,217,181,188,167,168,208,156],"times":[1259,710,824,657,660,859,1170],"next_num":7,"trial_type":"ticket-choose","trial_index":30,"time_elapsed":720541,"internal_node_id":"0.0-30.0"},{"result":167,"points":2,"place":1,"phase":0,"sequence":11,"prices":[212,192,188,184,167,193,189,164,176,170],"times":[1171,703,732,725,1190],"next_num":5,"trial_type":"ticket-choose","trial_index":31,"time_elapsed":728101,"internal_node_id":"0.0-31.0"},{"result":163,"points":2,"place":1,"phase":0,"sequence":12,"prices":[174,186,163,212,181,187,176,166,153,209],"times":[1106,677,1209],"next_num":3,"trial_type":"ticket-choose","trial_index":32,"time_elapsed":733768,"internal_node_id":"0.0-32.0"},{"result":165,"points":2,"place":1,"phase":0,"sequence":13,"prices":[175,187,165,209,180,188,177,166,154,208],"times":[1189,607,1084],"next_num":3,"trial_type":"ticket-choose","trial_index":33,"time_elapsed":739207,"internal_node_id":"0.0-33.0"},{"result":168,"points":1,"place":2,"phase":0,"sequence":14,"prices":[183,182,192,168,173,205,167,187,165,170],"times":[983,685,725,1635],"next_num":4,"trial_type":"ticket-choose","trial_index":34,"time_elapsed":745899,"internal_node_id":"0.0-34.0"},{"result":165,"points":2,"place":1,"phase":0,"sequence":15,"prices":[174,186,177,217,181,187,165,166,153,209],"times":[1155,686,774,646,674,758,1139],"next_num":7,"trial_type":"ticket-choose","trial_index":35,"time_elapsed":755061,"internal_node_id":"0.0-35.0"},{"result":152,"points":3,"place":0,"phase":0,"sequence":16,"prices":[200,181,203,152,175,171,160,154,176,191],"times":[1183,698,725,1082],"next_num":4,"trial_type":"ticket-choose","trial_index":36,"time_elapsed":761614,"internal_node_id":"0.0-36.0"},{"result":163,"points":2,"place":1,"phase":0,"sequence":17,"prices":[175,187,176,209,180,188,163,165,154,208],"times":[1176,684,824,610,796,1902,1129],"next_num":7,"trial_type":"ticket-choose","trial_index":37,"time_elapsed":772161,"internal_node_id":"0.0-37.0"},{"result":165,"points":2,"place":1,"phase":0,"sequence":18,"prices":[175,186,165,214,179,187,177,166,153,208],"times":[1246,701,1053],"next_num":3,"trial_type":"ticket-choose","trial_index":38,"time_elapsed":777657,"internal_node_id":"0.0-38.0"},{"result":165,"points":3,"place":0,"phase":0,"sequence":19,"prices":[193,165,175,181,185,224,180,199,218,184],"times":[1175,926],"next_num":2,"trial_type":"ticket-choose","trial_index":39,"time_elapsed":781967,"internal_node_id":"0.0-39.0"},{"result":167,"points":2,"place":1,"phase":0,"sequence":20,"prices":[175,186,178,212,179,187,167,169,209,153],"times":[1361,701,646,645,789,662,1030],"next_num":7,"trial_type":"ticket-choose","trial_index":40,"time_elapsed":791102,"internal_node_id":"0.0-40.0"},{"result":163,"points":2,"place":1,"phase":0,"sequence":21,"prices":[175,186,163,214,179,187,176,166,153,208],"times":[1650,691,1411],"next_num":3,"trial_type":"ticket-choose","trial_index":41,"time_elapsed":797422,"internal_node_id":"0.0-41.0"},{"result":169,"points":1,"place":3,"phase":0,"sequence":22,"prices":[198,193,169,163,202,182,152,164,177,171],"times":[1181,724,1418],"next_num":3,"trial_type":"ticket-choose","trial_index":42,"time_elapsed":803245,"internal_node_id":"0.0-42.0"},{"result":163,"points":2,"place":1,"phase":0,"sequence":23,"prices":[174,186,176,217,181,187,163,166,153,209],"times":[1086,700,756,616,712,731,1162],"next_num":7,"trial_type":"ticket-choose","trial_index":43,"time_elapsed":812326,"internal_node_id":"0.0-43.0"},{"result":158,"points":2,"place":1,"phase":0,"sequence":24,"prices":[176,187,177,225,181,187,158,165,208,153],"times":[1181,639,1348,647,702,654,1133],"next_num":7,"trial_type":"ticket-choose","trial_index":44,"time_elapsed":821899,"internal_node_id":"0.0-44.0"},{"result":165,"points":3,"place":0,"phase":0,"sequence":25,"prices":[189,167,180,197,165,168,172,213,178,171],"times":[1325,758,600,630,1178],"next_num":5,"trial_type":"ticket-choose","trial_index":45,"time_elapsed":829250,"internal_node_id":"0.0-45.0"},{"result":158,"points":2,"place":1,"phase":0,"sequence":26,"prices":[175,186,177,209,181,188,158,167,208,154],"times":[1162,593,824,648,638,664,1122],"next_num":7,"trial_type":"ticket-choose","trial_index":46,"time_elapsed":838246,"internal_node_id":"0.0-46.0"},{"result":165,"points":3,"place":0,"phase":0,"sequence":27,"prices":[196,165,170,184,187,211,171,201,202,185],"times":[1446,1248],"next_num":2,"trial_type":"ticket-choose","trial_index":47,"time_elapsed":843126,"internal_node_id":"0.0-47.0"},{"result":163,"points":2,"place":1,"phase":0,"sequence":28,"prices":[175,187,163,209,180,188,176,165,154,208],"times":[1149,664,1015],"next_num":3,"trial_type":"ticket-choose","trial_index":48,"time_elapsed":848309,"internal_node_id":"0.0-48.0"},{"result":158,"points":2,"place":1,"phase":0,"sequence":29,"prices":[175,186,177,221,180,187,158,166,209,153],"times":[1139,622,919,640,655,678,1062],"next_num":7,"trial_type":"ticket-choose","trial_index":49,"time_elapsed":857382,"internal_node_id":"0.0-49.0"},{"result":166,"points":1,"place":3,"phase":0,"sequence":30,"prices":[183,163,185,180,166,148,160,186,176,184],"times":[1286,1446,669,632,1194],"next_num":5,"trial_type":"ticket-choose","trial_index":50,"time_elapsed":865475,"internal_node_id":"0.0-50.0"},{"result":159,"points":1,"place":2,"phase":0,"sequence":31,"prices":[180,159,149,175,185,141,163,174,178,207],"times":[902,1083],"next_num":2,"trial_type":"ticket-choose","trial_index":51,"time_elapsed":869669,"internal_node_id":"0.0-51.0"},{"result":166,"points":1,"place":2,"phase":0,"sequence":32,"prices":[175,186,158,211,180,187,177,166,209,153],"times":[974,632,981,631,657,654,998,1078],"next_num":8,"trial_type":"ticket-choose","trial_index":52,"time_elapsed":879864,"internal_node_id":"0.0-52.0"},{"result":155,"points":2,"place":1,"phase":0,"sequence":33,"prices":[181,155,148,161,168,187,172,199,176,194],"times":[1182,1006],"next_num":2,"trial_type":"ticket-choose","trial_index":53,"time_elapsed":884236,"internal_node_id":"0.0-53.0"},{"result":165,"points":3,"place":0,"phase":0,"sequence":34,"prices":[192,165,171,178,188,217,172,195,197,186],"times":[1042,1031],"next_num":2,"trial_type":"ticket-choose","trial_index":54,"time_elapsed":888345,"internal_node_id":"0.0-54.0"},{"result":163,"points":2,"place":1,"phase":0,"sequence":35,"prices":[175,186,176,210,179,187,163,166,153,208],"times":[1034,631,764,654,702,715,1303],"next_num":7,"trial_type":"ticket-choose","trial_index":55,"time_elapsed":897421,"internal_node_id":"0.0-55.0"},{"result":165,"points":2,"place":1,"phase":0,"sequence":36,"prices":[175,187,177,209,180,188,165,165,154,208],"times":[1138,651,676,680,677,678,1684],"next_num":7,"trial_type":"ticket-choose","trial_index":56,"time_elapsed":906762,"internal_node_id":"0.0-56.0"},{"result":167,"points":2,"place":1,"phase":0,"sequence":37,"prices":[174,186,167,211,181,188,178,168,208,156],"times":[987,759,1490],"next_num":3,"trial_type":"ticket-choose","trial_index":57,"time_elapsed":912410,"internal_node_id":"0.0-57.0"},{"result":165,"points":3,"place":0,"phase":0,"sequence":38,"prices":[185,170,182,201,173,199,171,188,165,168],"times":[966,688,662,657,726,623,710,923,988],"next_num":9,"trial_type":"ticket-choose","trial_index":58,"time_elapsed":923051,"internal_node_id":"0.0-58.0"},{"result":158,"points":3,"place":0,"phase":0,"sequence":39,"prices":[210,184,226,193,215,158,199,175,176,208],"times":[958,639,692,656,661,1084],"next_num":6,"trial_type":"ticket-choose","trial_index":59,"time_elapsed":930728,"internal_node_id":"0.0-59.0"},{"result":165,"points":2,"place":1,"phase":0,"sequence":40,"prices":[201,165,162,166,185,214,165,202,204,179],"times":[1009,1383],"next_num":2,"trial_type":"ticket-choose","trial_index":60,"time_elapsed":935163,"internal_node_id":"0.0-60.0"},{"result":169,"points":2,"place":1,"phase":0,"sequence":41,"prices":[181,215,169,147,182,193,177,184,176,179],"times":[1044,719,1084],"next_num":3,"trial_type":"ticket-choose","trial_index":61,"time_elapsed":940228,"internal_node_id":"0.0-61.0"},{"result":169,"points":1,"place":2,"phase":0,"sequence":42,"prices":[175,186,167,225,179,187,178,169,209,153],"times":[943,632,835,586,641,645,657,1058],"next_num":8,"trial_type":"ticket-choose","trial_index":62,"time_elapsed":949630,"internal_node_id":"0.0-62.0"},{"result":154,"points":2,"place":1,"phase":0,"sequence":43,"prices":[168,154,172,185,195,144,184,211,177,227],"times":[1165,998],"next_num":2,"trial_type":"ticket-choose","trial_index":63,"time_elapsed":953834,"internal_node_id":"0.0-63.0"},{"result":155,"points":2,"place":1,"phase":0,"sequence":44,"prices":[201,207,155,158,156,165,167,135,178,177],"times":[1078,648,1053],"next_num":3,"trial_type":"ticket-choose","trial_index":64,"time_elapsed":958835,"internal_node_id":"0.0-64.0"},{"result":157,"points":3,"place":0,"phase":0,"sequence":45,"prices":[201,187,157,184,198,179,188,185,178,170],"times":[1018,649,1007],"next_num":3,"trial_type":"ticket-choose","trial_index":65,"time_elapsed":963731,"internal_node_id":"0.0-65.0"},{"result":158,"points":2,"place":1,"phase":0,"sequence":46,"prices":[175,186,158,209,181,188,177,167,208,154],"times":[1007,608,998],"next_num":3,"trial_type":"ticket-choose","trial_index":66,"time_elapsed":968615,"internal_node_id":"0.0-66.0"},{"result":154,"points":3,"place":0,"phase":0,"sequence":47,"prices":[188,200,165,172,198,174,177,154,177,180],"times":[1076,660,1094,629,631,726,610,1144],"next_num":8,"trial_type":"ticket-choose","trial_index":67,"time_elapsed":978912,"internal_node_id":"0.0-67.0"},{"result":167,"points":1,"place":2,"phase":0,"sequence":48,"prices":[171,203,175,170,167,220,192,186,165,165],"times":[1130,710,743,739,1170],"next_num":5,"trial_type":"ticket-choose","trial_index":68,"time_elapsed":986169,"internal_node_id":"0.0-68.0"},{"result":163,"points":3,"place":0,"phase":0,"sequence":49,"prices":[168,199,196,198,185,195,227,163,177,166],"times":[1088,655,576,586,686,693,641,1050],"next_num":8,"trial_type":"ticket-choose","trial_index":69,"time_elapsed":995702,"internal_node_id":"0.0-69.0"},{"responses":[{"value":0,"offby":-1,"category":"$115 - $130","category_index":0},{"value":0,"offby":-5,"category":"$131 - $145","category_index":1},{"value":0,"offby":-12,"category":"$146 - $160","category_index":2},{"value":5,"offby":-17,"category":"$161 - $175","category_index":3},{"value":25,"offby":-9,"category":"$176 - $190","category_index":4},{"value":30,"offby":15,"category":"$191 - $205","category_index":5},{"value":40,"offby":29,"category":"$206 - $220","category_index":6}],"phase":1,"number":1,"trial_type":"bar-choose","trial_index":70,"time_elapsed":1048540,"internal_node_id":"0.0-70.0"},{"rt":5320,"url":"\/christiane\/tickets\/utils\/testing2.html","trial_type":"point_update","trial_index":71,"time_elapsed":1055100,"internal_node_id":"0.0-71.0"},{"phase":1,"order":[10,49,38,14,3,32,23,20,33,34,40,2,15,36,4,41,44,18,31,30,26,8,0,24,29,28,46,5,13,9,42,45,12,16,48,39,27,1,21,17,7,11,37,6,25,43,19,35,22,47],"trial_type":"store_order","trial_index":72,"time_elapsed":1056102,"internal_node_id":"0.0-72.0"},{"result":165,"points":2,"place":1,"phase":1,"sequence":0,"prices":[177,175,187,209,165,180,188,165,154,208],"times":[2359,725,514,556,1089],"next_num":5,"trial_type":"ticket-choose","trial_index":73,"time_elapsed":1064381,"internal_node_id":"0.0-73.0"},{"result":166,"points":1,"place":3,"phase":1,"sequence":1,"prices":[173,163,185,181,166,148,160,185,176,184],"times":[1124,547,530,578,1038],"next_num":5,"trial_type":"ticket-choose","trial_index":74,"time_elapsed":1070975,"internal_node_id":"0.0-74.0"},{"result":163,"points":3,"place":0,"phase":1,"sequence":2,"prices":[163,199,196,199,185,195,227,163,177,166],"times":[1348],"next_num":1,"trial_type":"ticket-choose","trial_index":75,"time_elapsed":1074367,"internal_node_id":"0.0-75.0"},{"result":163,"points":2,"place":1,"phase":1,"sequence":3,"prices":[163,174,186,212,176,181,187,166,153,209],"times":[1046],"next_num":1,"trial_type":"ticket-choose","trial_index":76,"time_elapsed":1077251,"internal_node_id":"0.0-76.0"},{"result":167,"points":2,"place":1,"phase":1,"sequence":4,"prices":[178,174,186,217,167,181,188,168,208,156],"times":[1128,626,682,601,1303],"next_num":5,"trial_type":"ticket-choose","trial_index":77,"time_elapsed":1084283,"internal_node_id":"0.0-77.0"},{"result":165,"points":2,"place":1,"phase":1,"sequence":5,"prices":[193,174,224,165,187,190,224,161,194,195],"times":[1090,661,610,997],"next_num":4,"trial_type":"ticket-choose","trial_index":78,"time_elapsed":1090191,"internal_node_id":"0.0-78.0"},{"result":158,"points":2,"place":1,"phase":1,"sequence":6,"prices":[177,176,187,225,158,181,187,165,208,153],"times":[1154,688,590,610,1145],"next_num":5,"trial_type":"ticket-choose","trial_index":79,"time_elapsed":1097081,"internal_node_id":"0.0-79.0"},{"result":158,"points":2,"place":1,"phase":1,"sequence":7,"prices":[158,176,187,210,177,181,187,165,208,153],"times":[1067],"next_num":1,"trial_type":"ticket-choose","trial_index":80,"time_elapsed":1100027,"internal_node_id":"0.0-80.0"},{"result":165,"points":2,"place":1,"phase":1,"sequence":8,"prices":[183,179,188,165,168,173,205,159,187,191],"times":[1254,756,676,939],"next_num":4,"trial_type":"ticket-choose","trial_index":81,"time_elapsed":1106257,"internal_node_id":"0.0-81.0"},{"result":156,"points":2,"place":1,"phase":1,"sequence":9,"prices":[180,156,149,160,168,186,172,198,176,195],"times":[996,1053],"next_num":2,"trial_type":"ticket-choose","trial_index":82,"time_elapsed":1110263,"internal_node_id":"0.0-82.0"},{"result":150,"points":3,"place":0,"phase":1,"sequence":10,"prices":[190,150,175,161,188,207,157,194,178,199],"times":[889,928],"next_num":2,"trial_type":"ticket-choose","trial_index":83,"time_elapsed":1114269,"internal_node_id":"0.0-83.0"},{"result":169,"points":1,"place":2,"phase":1,"sequence":11,"prices":[167,175,186,225,178,179,187,169,209,153],"times":[941,701,624,645,701,747,632,1014],"next_num":8,"trial_type":"ticket-choose","trial_index":84,"time_elapsed":1123602,"internal_node_id":"0.0-84.0"},{"result":166,"points":1,"place":2,"phase":1,"sequence":12,"prices":[176,175,186,210,163,179,187,166,153,208],"times":[1094,771,663,686,1053,591,640,1076],"next_num":8,"trial_type":"ticket-choose","trial_index":85,"time_elapsed":1133578,"internal_node_id":"0.0-85.0"},{"result":165,"points":2,"place":1,"phase":1,"sequence":13,"prices":[187,201,165,172,196,174,178,154,172,180],"times":[957,673,1145],"next_num":3,"trial_type":"ticket-choose","trial_index":86,"time_elapsed":1138542,"internal_node_id":"0.0-86.0"},{"result":167,"points":2,"place":1,"phase":1,"sequence":14,"prices":[178,175,185,215,167,181,186,168,208,156],"times":[1034,654,614,629,959],"next_num":5,"trial_type":"ticket-choose","trial_index":87,"time_elapsed":1145145,"internal_node_id":"0.0-87.0"},{"result":155,"points":2,"place":1,"phase":1,"sequence":15,"prices":[200,207,155,158,156,168,167,135,178,177],"times":[1680,654,1042],"next_num":3,"trial_type":"ticket-choose","trial_index":88,"time_elapsed":1150805,"internal_node_id":"0.0-88.0"},{"result":159,"points":1,"place":2,"phase":1,"sequence":16,"prices":[181,159,149,175,185,151,163,174,178,207],"times":[879,952],"next_num":2,"trial_type":"ticket-choose","trial_index":89,"time_elapsed":1154756,"internal_node_id":"0.0-89.0"},{"result":158,"points":2,"place":1,"phase":1,"sequence":17,"prices":[158,175,186,211,177,180,187,166,209,153],"times":[1049],"next_num":1,"trial_type":"ticket-choose","trial_index":90,"time_elapsed":1157539,"internal_node_id":"0.0-90.0"},{"result":165,"points":1,"place":2,"phase":1,"sequence":18,"prices":[171,169,186,165,163,167,220,148,187,165],"times":[1159,783,661,1115],"next_num":4,"trial_type":"ticket-choose","trial_index":91,"time_elapsed":1163686,"internal_node_id":"0.0-91.0"},{"result":165,"points":2,"place":1,"phase":1,"sequence":19,"prices":[191,170,182,165,175,182,203,157,195,200],"times":[1062,662,640,1038],"next_num":4,"trial_type":"ticket-choose","trial_index":92,"time_elapsed":1169467,"internal_node_id":"0.0-92.0"},{"result":169,"points":1,"place":3,"phase":1,"sequence":20,"prices":[200,173,182,169,207,165,152,202,161,204],"times":[908,749,683,943],"next_num":4,"trial_type":"ticket-choose","trial_index":93,"time_elapsed":1175141,"internal_node_id":"0.0-93.0"},{"result":153,"points":3,"place":0,"phase":1,"sequence":21,"prices":[165,174,186,212,177,181,187,166,153,209],"times":[1398,594,622,611,677,701,626,819,1191],"next_num":9,"trial_type":"ticket-choose","trial_index":94,"time_elapsed":1186000,"internal_node_id":"0.0-94.0"},{"result":156,"points":3,"place":0,"phase":1,"sequence":22,"prices":[167,174,186,211,178,181,188,168,208,156],"times":[1247,566,611,607,603,591,609,1022,664,1036],"next_num":10,"trial_type":"ticket-choose","trial_index":95,"time_elapsed":1197389,"internal_node_id":"0.0-95.0"},{"result":165,"points":3,"place":0,"phase":1,"sequence":23,"prices":[193,181,175,181,185,165,224,199,218,184],"times":[1128,765,655,604,653,1020],"next_num":6,"trial_type":"ticket-choose","trial_index":96,"time_elapsed":1205138,"internal_node_id":"0.0-96.0"},{"result":150,"points":3,"place":0,"phase":1,"sequence":24,"prices":[185,179,191,165,161,173,199,150,188,168],"times":[895,703,619,1024,599,609,631,1009],"next_num":8,"trial_type":"ticket-choose","trial_index":97,"time_elapsed":1214641,"internal_node_id":"0.0-97.0"},{"result":202,"points":0,"place":8,"phase":1,"sequence":25,"prices":[196,171,170,184,187,165,211,169,201,202],"times":[941,647,631,633,661,945,631,1030,671,1652],"next_num":10,"trial_type":"ticket-choose","trial_index":98,"time_elapsed":1227269,"internal_node_id":"0.0-98.0"},{"result":158,"points":3,"place":0,"phase":1,"sequence":26,"prices":[214,184,226,192,215,158,199,175,176,208],"times":[1073,670,654,591,647,952],"next_num":6,"trial_type":"ticket-choose","trial_index":99,"time_elapsed":1234816,"internal_node_id":"0.0-99.0"},{"result":167,"points":2,"place":1,"phase":1,"sequence":27,"prices":[178,175,186,212,167,179,187,169,209,153],"times":[1226,719,569,607,1029],"next_num":5,"trial_type":"ticket-choose","trial_index":100,"time_elapsed":1241635,"internal_node_id":"0.0-100.0"},{"result":165,"points":1,"place":2,"phase":1,"sequence":28,"prices":[163,175,187,209,176,180,188,165,154,208],"times":[1072,537,526,523,551,587,577,1234],"next_num":8,"trial_type":"ticket-choose","trial_index":101,"time_elapsed":1250765,"internal_node_id":"0.0-101.0"},{"result":165,"points":2,"place":1,"phase":1,"sequence":29,"prices":[177,175,186,210,165,179,187,166,153,208],"times":[1027,600,554,553,1075],"next_num":5,"trial_type":"ticket-choose","trial_index":102,"time_elapsed":1257305,"internal_node_id":"0.0-102.0"},{"result":186,"points":1,"place":4,"phase":1,"sequence":30,"prices":[220,173,201,197,169,205,198,183,178,186],"times":[992,720,630,640,609,630,623,654,627,645],"next_num":11,"trial_type":"ticket-choose","trial_index":103,"time_elapsed":1268857,"internal_node_id":"0.0-103.0"},{"result":174,"points":1,"place":3,"phase":1,"sequence":31,"prices":[199,191,188,174,167,193,189,164,176,170],"times":[1258,640,679,1021],"next_num":4,"trial_type":"ticket-choose","trial_index":104,"time_elapsed":1274976,"internal_node_id":"0.0-104.0"},{"result":163,"points":2,"place":1,"phase":1,"sequence":32,"prices":[163,175,186,214,176,179,187,166,153,208],"times":[1171],"next_num":1,"trial_type":"ticket-choose","trial_index":105,"time_elapsed":1277962,"internal_node_id":"0.0-105.0"},{"result":163,"points":2,"place":1,"phase":1,"sequence":33,"prices":[176,187,179,209,163,180,188,165,154,208],"times":[1040,575,594,609,1038],"next_num":5,"trial_type":"ticket-choose","trial_index":106,"time_elapsed":1284509,"internal_node_id":"0.0-106.0"},{"result":176,"points":1,"place":2,"phase":1,"sequence":34,"prices":[181,214,169,147,182,193,178,184,176,179],"times":[981,577,855,587,779,608,1008,795,1231],"next_num":9,"trial_type":"ticket-choose","trial_index":107,"time_elapsed":1295725,"internal_node_id":"0.0-107.0"},{"result":167,"points":2,"place":1,"phase":1,"sequence":35,"prices":[189,167,180,197,165,168,172,213,178,171],"times":[1548,1208],"next_num":2,"trial_type":"ticket-choose","trial_index":108,"time_elapsed":1300467,"internal_node_id":"0.0-108.0"},{"result":165,"points":3,"place":0,"phase":1,"sequence":36,"prices":[192,172,171,178,188,165,217,168,195,197],"times":[1491,996,1354,759,740,922],"next_num":6,"trial_type":"ticket-choose","trial_index":109,"time_elapsed":1309622,"internal_node_id":"0.0-109.0"},{"result":168,"points":1,"place":2,"phase":1,"sequence":37,"prices":[167,175,185,224,178,181,186,168,208,156],"times":[1799,649,623,694,742,650,676,1006],"next_num":8,"trial_type":"ticket-choose","trial_index":110,"time_elapsed":1319818,"internal_node_id":"0.0-110.0"},{"result":158,"points":2,"place":1,"phase":1,"sequence":38,"prices":[177,175,186,221,158,180,187,166,209,153],"times":[1083,685,632,648,1069],"next_num":5,"trial_type":"ticket-choose","trial_index":111,"time_elapsed":1326801,"internal_node_id":"0.0-111.0"},{"result":163,"points":2,"place":1,"phase":1,"sequence":39,"prices":[176,186,178,217,163,181,187,166,153,209],"times":[1113,610,921,630,1029],"next_num":5,"trial_type":"ticket-choose","trial_index":112,"time_elapsed":1333795,"internal_node_id":"0.0-112.0"},{"result":165,"points":2,"place":1,"phase":1,"sequence":40,"prices":[165,175,187,209,177,180,188,167,154,208],"times":[1349],"next_num":1,"trial_type":"ticket-choose","trial_index":113,"time_elapsed":1337043,"internal_node_id":"0.0-113.0"},{"result":165,"points":2,"place":1,"phase":1,"sequence":41,"prices":[177,174,186,217,165,181,187,166,153,209],"times":[1037,671,639,634,925],"next_num":5,"trial_type":"ticket-choose","trial_index":114,"time_elapsed":1343739,"internal_node_id":"0.0-114.0"},{"result":169,"points":1,"place":3,"phase":1,"sequence":42,"prices":[199,193,169,165,202,182,151,164,176,171],"times":[925,639,1001],"next_num":3,"trial_type":"ticket-choose","trial_index":115,"time_elapsed":1348455,"internal_node_id":"0.0-115.0"},{"result":165,"points":2,"place":1,"phase":1,"sequence":43,"prices":[165,175,186,214,177,179,187,166,153,208],"times":[1087],"next_num":1,"trial_type":"ticket-choose","trial_index":116,"time_elapsed":1351385,"internal_node_id":"0.0-116.0"},{"result":166,"points":1,"place":3,"phase":1,"sequence":44,"prices":[201,204,179,166,185,165,214,156,202,165],"times":[1051,641,708,1006],"next_num":4,"trial_type":"ticket-choose","trial_index":117,"time_elapsed":1357176,"internal_node_id":"0.0-117.0"},{"result":157,"points":3,"place":0,"phase":1,"sequence":45,"prices":[201,187,157,184,198,179,188,185,178,170],"times":[1033,593,974],"next_num":3,"trial_type":"ticket-choose","trial_index":118,"time_elapsed":1361993,"internal_node_id":"0.0-118.0"},{"result":158,"points":2,"place":1,"phase":1,"sequence":46,"prices":[158,175,186,209,177,181,188,167,208,154],"times":[1282],"next_num":1,"trial_type":"ticket-choose","trial_index":119,"time_elapsed":1365070,"internal_node_id":"0.0-119.0"},{"result":153,"points":2,"place":1,"phase":1,"sequence":47,"prices":[167,153,172,185,195,143,184,211,177,227],"times":[1060,988],"next_num":2,"trial_type":"ticket-choose","trial_index":120,"time_elapsed":1369078,"internal_node_id":"0.0-120.0"},{"result":158,"points":2,"place":1,"phase":1,"sequence":48,"prices":[177,175,186,209,158,181,188,167,208,154],"times":[1035,662,608,623,984],"next_num":5,"trial_type":"ticket-choose","trial_index":121,"time_elapsed":1375584,"internal_node_id":"0.0-121.0"},{"result":152,"points":3,"place":0,"phase":1,"sequence":49,"prices":[200,180,203,152,175,170,160,154,176,191],"times":[971,671,656,1006],"next_num":4,"trial_type":"ticket-choose","trial_index":122,"time_elapsed":1381408,"internal_node_id":"0.0-122.0"},{"responses":[{"value":0,"offby":-1,"category":"$115 - $130","category_index":0},{"value":0,"offby":-5,"category":"$131 - $145","category_index":1},{"value":20,"offby":8,"category":"$146 - $160","category_index":2},{"value":20,"offby":-2,"category":"$161 - $175","category_index":3},{"value":20,"offby":-14,"category":"$176 - $190","category_index":4},{"value":20,"offby":5,"category":"$191 - $205","category_index":5},{"value":20,"offby":9,"category":"$206 - $220","category_index":6}],"phase":1,"number":1,"trial_type":"bar-choose","trial_index":123,"time_elapsed":1411858,"internal_node_id":"0.0-123.0"},{"special_comment":"no","trial_type":"special_sequence","trial_index":124,"time_elapsed":1418536,"internal_node_id":"0.0-124.0"},{"during":"Nothing","bonus":264,"trial_type":"final","trial_index":125,"time_elapsed":1441800,"internal_node_id":"0.0-125.0"}],"bonus":264}