{"start_time":"2017-05-24 13:23:33","end_time":"2017-05-24 13:41:42","points_phase0":104,"points_phase1":92,"phase_order":0,"age":29,"gender":"m","tries":1,"during":"Nothing","worker_id":"A358YR7MWC6LRH","assignment_id":"324G5B4FB417QTASNZY0D4QFZCN709","data":[{"rt":3681,"url":"\/christiane\/tickets\/utils\/consent.html","trial_type":"html","trial_index":0,"time_elapsed":3712,"internal_node_id":"0.0-0.0"},{"age":29,"gender":"m","trial_type":"age","trial_index":1,"time_elapsed":7882,"internal_node_id":"0.0-1.0"},{"worker_id":"A358YR7MWC6LRH","trial_type":"workerid","trial_index":2,"time_elapsed":12352,"internal_node_id":"0.0-2.0"},{"tries":1,"trial_type":"instructions_check","trial_index":3,"time_elapsed":25561,"internal_node_id":"0.0-3.0"},{"rt":8960,"url":"\/christiane\/tickets\/utils\/start.html","trial_type":"html","trial_index":4,"time_elapsed":35575,"internal_node_id":"0.0-4.0"},{"trial_type":"number-animation","trial_index":5,"time_elapsed":49467,"internal_node_id":"0.0-5.0"},{"phase":0,"sequence":0,"avg":181,"response":180,"trial_type":"training_avg","trial_index":6,"time_elapsed":59989,"internal_node_id":"0.0-6.0"},{"trial_type":"number-animation","trial_index":7,"time_elapsed":68932,"internal_node_id":"0.0-7.0"},{"phase":0,"sequence":1,"avg":188,"response":188,"trial_type":"training_avg","trial_index":8,"time_elapsed":78119,"internal_node_id":"0.0-8.0"},{"trial_type":"number-animation","trial_index":9,"time_elapsed":87989,"internal_node_id":"0.0-9.0"},{"phase":0,"sequence":2,"avg":188,"response":180,"trial_type":"training_avg","trial_index":10,"time_elapsed":93502,"internal_node_id":"0.0-10.0"},{"trial_type":"number-animation","trial_index":11,"time_elapsed":103315,"internal_node_id":"0.0-11.0"},{"phase":0,"sequence":3,"avg":177,"response":179,"trial_type":"training_avg","trial_index":12,"time_elapsed":109337,"internal_node_id":"0.0-12.0"},{"trial_type":"number-animation","trial_index":13,"time_elapsed":119793,"internal_node_id":"0.0-13.0"},{"phase":0,"sequence":4,"avg":182,"response":184,"trial_type":"training_avg","trial_index":14,"time_elapsed":127296,"internal_node_id":"0.0-14.0"},{"responses":[{"value":0,"offby":-1,"category":"$115 - $130","category_index":0},{"value":1,"offby":-4,"category":"$131 - $145","category_index":1},{"value":11,"offby":-1,"category":"$146 - $160","category_index":2},{"value":21,"offby":-1,"category":"$161 - $175","category_index":3},{"value":37,"offby":3,"category":"$176 - $190","category_index":4},{"value":23,"offby":8,"category":"$191 - $205","category_index":5},{"value":7,"offby":-4,"category":"$206 - $220","category_index":6}],"phase":0,"number":0,"trial_type":"bar-choose","trial_index":15,"time_elapsed":169646,"internal_node_id":"0.0-15.0"},{"rt":5891,"url":"\/christiane\/tickets\/utils\/testing.html","trial_type":"html","trial_index":16,"time_elapsed":176578,"internal_node_id":"0.0-16.0"},{"phase":0,"order":[41,37,8,16,10,14,13,6,11,23,18,47,35,31,0,43,5,28,19,45,22,42,2,44,27,25,40,12,21,46,30,1,17,7,29,24,26,33,39,20,15,4,34,32,36,38,49,9,3,48],"trial_type":"store_order","trial_index":17,"time_elapsed":177579,"internal_node_id":"0.0-17.0"},{"result":165,"points":2,"place":1,"phase":0,"sequence":-1,"prices":[184,180,224,165,181,199,185,193,218,146],"times":[3004,663,673,926],"next_num":4,"trial_type":"ticket-choose","trial_index":18,"time_elapsed":185661,"internal_node_id":"0.0-18.0"},{"rt":5861,"url":"\/christiane\/tickets\/utils\/testing_after.html","trial_type":"html","trial_index":19,"time_elapsed":192660,"internal_node_id":"0.0-19.0"},{"result":155,"points":2,"place":1,"phase":0,"sequence":0,"prices":[201,207,155,158,156,165,167,135,178,177],"times":[1618,585,1139],"next_num":3,"trial_type":"ticket-choose","trial_index":20,"time_elapsed":198945,"internal_node_id":"0.0-20.0"},{"result":163,"points":2,"place":1,"phase":0,"sequence":1,"prices":[198,193,169,163,202,182,152,164,177,171],"times":[949,516,606,1171],"next_num":4,"trial_type":"ticket-choose","trial_index":21,"time_elapsed":205125,"internal_node_id":"0.0-21.0"},{"result":167,"points":1,"place":2,"phase":0,"sequence":2,"prices":[174,186,165,212,181,187,177,167,153,209],"times":[962,579,765,558,763,689,1256,1069],"next_num":8,"trial_type":"ticket-choose","trial_index":22,"time_elapsed":215267,"internal_node_id":"0.0-22.0"},{"result":163,"points":2,"place":1,"phase":0,"sequence":3,"prices":[175,187,176,209,180,188,163,165,154,208],"times":[738,524,719,580,687,555,830],"next_num":7,"trial_type":"ticket-choose","trial_index":23,"time_elapsed":223098,"internal_node_id":"0.0-23.0"},{"result":165,"points":2,"place":1,"phase":0,"sequence":4,"prices":[175,187,177,209,180,188,165,165,154,208],"times":[732,433,511,564,520,539,799],"next_num":7,"trial_type":"ticket-choose","trial_index":24,"time_elapsed":230464,"internal_node_id":"0.0-24.0"},{"result":163,"points":2,"place":1,"phase":0,"sequence":5,"prices":[174,186,163,212,181,187,176,166,153,209],"times":[3077,593,1276],"next_num":3,"trial_type":"ticket-choose","trial_index":25,"time_elapsed":237852,"internal_node_id":"0.0-25.0"},{"result":163,"points":2,"place":1,"phase":0,"sequence":6,"prices":[175,187,163,209,180,188,176,165,154,208],"times":[715,403,875],"next_num":3,"trial_type":"ticket-choose","trial_index":26,"time_elapsed":242262,"internal_node_id":"0.0-26.0"},{"result":165,"points":2,"place":1,"phase":0,"sequence":7,"prices":[175,186,165,214,179,187,177,166,153,208],"times":[425,519,847],"next_num":3,"trial_type":"ticket-choose","trial_index":27,"time_elapsed":246298,"internal_node_id":"0.0-27.0"},{"result":153,"points":3,"place":0,"phase":0,"sequence":8,"prices":[174,186,177,217,181,187,165,166,153,209],"times":[713,377,494,429,485,447,1046,730,771],"next_num":9,"trial_type":"ticket-choose","trial_index":28,"time_elapsed":256063,"internal_node_id":"0.0-28.0"},{"result":158,"points":2,"place":1,"phase":0,"sequence":9,"prices":[176,187,177,225,181,187,158,165,208,153],"times":[755,363,385,434,470,937,1073],"next_num":7,"trial_type":"ticket-choose","trial_index":29,"time_elapsed":263787,"internal_node_id":"0.0-29.0"},{"result":166,"points":1,"place":2,"phase":0,"sequence":10,"prices":[175,186,158,211,180,187,177,166,209,153],"times":[743,473,491,408,518,462,751,790],"next_num":8,"trial_type":"ticket-choose","trial_index":30,"time_elapsed":271801,"internal_node_id":"0.0-30.0"},{"result":160,"points":1,"place":2,"phase":0,"sequence":11,"prices":[200,181,203,152,175,171,160,154,176,191],"times":[737,370,613,327,555,699,828],"next_num":7,"trial_type":"ticket-choose","trial_index":31,"time_elapsed":279053,"internal_node_id":"0.0-31.0"},{"result":154,"points":2,"place":1,"phase":0,"sequence":12,"prices":[168,154,172,185,195,144,184,211,177,227],"times":[906,790],"next_num":2,"trial_type":"ticket-choose","trial_index":32,"time_elapsed":282781,"internal_node_id":"0.0-32.0"},{"result":165,"points":3,"place":0,"phase":0,"sequence":13,"prices":[171,203,175,170,167,220,192,186,165,165],"times":[776,496,517,812,665,571,531,808,1141,695],"next_num":10,"trial_type":"ticket-choose","trial_index":33,"time_elapsed":293837,"internal_node_id":"0.0-33.0"},{"result":167,"points":2,"place":1,"phase":0,"sequence":14,"prices":[174,186,167,211,181,188,178,168,208,156],"times":[778,583,981],"next_num":3,"trial_type":"ticket-choose","trial_index":34,"time_elapsed":298592,"internal_node_id":"0.0-34.0"},{"result":157,"points":3,"place":0,"phase":0,"sequence":15,"prices":[201,187,157,184,198,179,188,185,178,170],"times":[559,452,674],"next_num":3,"trial_type":"ticket-choose","trial_index":35,"time_elapsed":302409,"internal_node_id":"0.0-35.0"},{"result":153,"points":3,"place":0,"phase":0,"sequence":16,"prices":[175,186,178,212,179,187,167,169,209,153],"times":[435,704,561,564,712,570,1229,624,562,465],"next_num":10,"trial_type":"ticket-choose","trial_index":36,"time_elapsed":312662,"internal_node_id":"0.0-36.0"},{"result":165,"points":3,"place":0,"phase":0,"sequence":17,"prices":[196,165,170,184,187,211,171,201,202,185],"times":[753,716],"next_num":2,"trial_type":"ticket-choose","trial_index":37,"time_elapsed":316015,"internal_node_id":"0.0-37.0"},{"result":158,"points":2,"place":1,"phase":0,"sequence":18,"prices":[175,186,158,209,181,188,177,167,208,154],"times":[546,478,735],"next_num":3,"trial_type":"ticket-choose","trial_index":38,"time_elapsed":319899,"internal_node_id":"0.0-38.0"},{"result":167,"points":2,"place":1,"phase":0,"sequence":19,"prices":[212,192,188,184,167,193,189,164,176,170],"times":[591,496,510,721,818],"next_num":5,"trial_type":"ticket-choose","trial_index":39,"time_elapsed":325572,"internal_node_id":"0.0-39.0"},{"result":158,"points":2,"place":1,"phase":0,"sequence":20,"prices":[175,186,177,209,181,188,158,167,208,154],"times":[7138,534,2581,532,577,558,824],"next_num":7,"trial_type":"ticket-choose","trial_index":40,"time_elapsed":341352,"internal_node_id":"0.0-40.0"},{"result":143,"points":3,"place":0,"phase":0,"sequence":21,"prices":[222,173,202,197,143,205,198,183,178,186],"times":[1025,1890,581,694,905],"next_num":5,"trial_type":"ticket-choose","trial_index":41,"time_elapsed":349183,"internal_node_id":"0.0-41.0"},{"result":169,"points":1,"place":2,"phase":0,"sequence":22,"prices":[175,186,167,225,179,187,178,169,209,153],"times":[605,456,551,487,540,550,795,739],"next_num":8,"trial_type":"ticket-choose","trial_index":42,"time_elapsed":357120,"internal_node_id":"0.0-42.0"},{"result":141,"points":3,"place":0,"phase":0,"sequence":23,"prices":[180,159,149,175,185,141,163,174,178,207],"times":[530,453,479,638,623,775],"next_num":6,"trial_type":"ticket-choose","trial_index":43,"time_elapsed":363435,"internal_node_id":"0.0-43.0"},{"result":186,"points":1,"place":4,"phase":0,"sequence":24,"prices":[192,165,171,178,188,217,172,195,197,186],"times":[1381,672,540,589,608,557,564,711,634,499],"next_num":10,"trial_type":"ticket-choose","trial_index":44,"time_elapsed":374030,"internal_node_id":"0.0-44.0"},{"result":165,"points":2,"place":1,"phase":0,"sequence":25,"prices":[201,165,162,166,185,214,165,202,204,179],"times":[3684,864],"next_num":2,"trial_type":"ticket-choose","trial_index":45,"time_elapsed":380485,"internal_node_id":"0.0-45.0"},{"result":158,"points":2,"place":1,"phase":0,"sequence":26,"prices":[189,150,175,160,188,207,158,194,178,199],"times":[996,524,614,504,572,633,1007],"next_num":7,"trial_type":"ticket-choose","trial_index":46,"time_elapsed":388315,"internal_node_id":"0.0-46.0"},{"result":163,"points":2,"place":1,"phase":0,"sequence":27,"prices":[175,186,163,214,179,187,176,166,153,208],"times":[881,532,842],"next_num":3,"trial_type":"ticket-choose","trial_index":47,"time_elapsed":392697,"internal_node_id":"0.0-47.0"},{"result":158,"points":2,"place":1,"phase":0,"sequence":28,"prices":[175,186,177,221,180,187,158,166,209,153],"times":[1183,637,705,557,711,588,797],"next_num":7,"trial_type":"ticket-choose","trial_index":48,"time_elapsed":400972,"internal_node_id":"0.0-48.0"},{"result":158,"points":3,"place":0,"phase":0,"sequence":29,"prices":[210,184,226,193,215,158,199,175,176,208],"times":[5502,1237,526,534,519,1036],"next_num":6,"trial_type":"ticket-choose","trial_index":49,"time_elapsed":413105,"internal_node_id":"0.0-49.0"},{"result":169,"points":2,"place":1,"phase":0,"sequence":30,"prices":[191,172,169,175,182,203,170,195,165,176],"times":[906,545,954],"next_num":3,"trial_type":"ticket-choose","trial_index":50,"time_elapsed":417667,"internal_node_id":"0.0-50.0"},{"result":168,"points":1,"place":2,"phase":0,"sequence":31,"prices":[175,185,167,224,181,186,178,168,208,156],"times":[864,548,1155,486,568,559,618,906],"next_num":8,"trial_type":"ticket-choose","trial_index":51,"time_elapsed":426761,"internal_node_id":"0.0-51.0"},{"result":163,"points":2,"place":1,"phase":0,"sequence":32,"prices":[174,186,176,217,181,187,163,166,153,209],"times":[573,608,788,503,533,597,800],"next_num":7,"trial_type":"ticket-choose","trial_index":52,"time_elapsed":434286,"internal_node_id":"0.0-52.0"},{"result":165,"points":2,"place":1,"phase":0,"sequence":33,"prices":[175,187,165,209,180,188,177,166,154,208],"times":[2280,557,750],"next_num":3,"trial_type":"ticket-choose","trial_index":53,"time_elapsed":439951,"internal_node_id":"0.0-53.0"},{"result":165,"points":3,"place":0,"phase":0,"sequence":34,"prices":[185,170,182,201,173,199,171,188,165,168],"times":[553,510,518,569,674,503,757,609,727],"next_num":9,"trial_type":"ticket-choose","trial_index":54,"time_elapsed":448868,"internal_node_id":"0.0-54.0"},{"result":165,"points":3,"place":0,"phase":0,"sequence":35,"prices":[193,165,175,181,185,224,180,199,218,184],"times":[1197,796],"next_num":2,"trial_type":"ticket-choose","trial_index":55,"time_elapsed":455655,"internal_node_id":"0.0-55.0"},{"result":165,"points":2,"place":1,"phase":0,"sequence":36,"prices":[200,165,165,173,182,207,161,202,204,180],"times":[1071,1049],"next_num":2,"trial_type":"ticket-choose","trial_index":56,"time_elapsed":459751,"internal_node_id":"0.0-56.0"},{"result":167,"points":2,"place":1,"phase":0,"sequence":37,"prices":[183,182,192,168,173,205,167,187,165,170],"times":[847,616,512,755,577,587,862],"next_num":7,"trial_type":"ticket-choose","trial_index":57,"time_elapsed":467454,"internal_node_id":"0.0-57.0"},{"result":167,"points":2,"place":1,"phase":0,"sequence":38,"prices":[189,167,180,197,165,168,172,213,178,171],"times":[911,747],"next_num":2,"trial_type":"ticket-choose","trial_index":58,"time_elapsed":471062,"internal_node_id":"0.0-58.0"},{"result":158,"points":2,"place":1,"phase":0,"sequence":39,"prices":[176,187,158,210,181,187,177,165,208,153],"times":[1173,530,919],"next_num":3,"trial_type":"ticket-choose","trial_index":59,"time_elapsed":475907,"internal_node_id":"0.0-59.0"},{"result":163,"points":2,"place":1,"phase":0,"sequence":40,"prices":[175,186,176,210,179,187,163,166,153,208],"times":[3034,464,550,494,577,525,817],"next_num":7,"trial_type":"ticket-choose","trial_index":60,"time_elapsed":485357,"internal_node_id":"0.0-60.0"},{"result":167,"points":2,"place":1,"phase":0,"sequence":41,"prices":[175,185,178,215,181,186,167,168,208,156],"times":[665,510,560,517,498,559,803],"next_num":7,"trial_type":"ticket-choose","trial_index":61,"time_elapsed":492451,"internal_node_id":"0.0-61.0"},{"result":155,"points":2,"place":1,"phase":0,"sequence":42,"prices":[181,155,148,161,168,187,172,199,176,194],"times":[939,826],"next_num":2,"trial_type":"ticket-choose","trial_index":62,"time_elapsed":496164,"internal_node_id":"0.0-62.0"},{"result":174,"points":1,"place":3,"phase":0,"sequence":43,"prices":[193,169,171,187,190,224,174,194,165,188],"times":[1645,596,524,515,587,569,1085],"next_num":7,"trial_type":"ticket-choose","trial_index":63,"time_elapsed":504742,"internal_node_id":"0.0-63.0"},{"result":165,"points":2,"place":1,"phase":0,"sequence":44,"prices":[188,200,165,172,198,174,177,154,177,180],"times":[767,496,773],"next_num":3,"trial_type":"ticket-choose","trial_index":64,"time_elapsed":508834,"internal_node_id":"0.0-64.0"},{"result":163,"points":3,"place":0,"phase":0,"sequence":45,"prices":[168,199,196,198,185,195,227,163,177,166],"times":[518,472,487,489,720,515,518,750],"next_num":8,"trial_type":"ticket-choose","trial_index":65,"time_elapsed":516465,"internal_node_id":"0.0-65.0"},{"result":163,"points":1,"place":2,"phase":0,"sequence":46,"prices":[183,163,185,180,166,148,160,186,176,184],"times":[3022,1464],"next_num":2,"trial_type":"ticket-choose","trial_index":66,"time_elapsed":522898,"internal_node_id":"0.0-66.0"},{"result":153,"points":3,"place":0,"phase":0,"sequence":47,"prices":[175,186,177,210,179,187,165,166,153,208],"times":[828,539,449,451,456,486,555,1135,788],"next_num":9,"trial_type":"ticket-choose","trial_index":67,"time_elapsed":531996,"internal_node_id":"0.0-67.0"},{"result":167,"points":2,"place":1,"phase":0,"sequence":48,"prices":[174,186,178,217,181,188,167,168,208,156],"times":[619,481,430,489,476,441,931],"next_num":7,"trial_type":"ticket-choose","trial_index":68,"time_elapsed":538889,"internal_node_id":"0.0-68.0"},{"result":169,"points":2,"place":1,"phase":0,"sequence":49,"prices":[181,215,169,147,182,193,177,184,176,179],"times":[1095,568,972],"next_num":3,"trial_type":"ticket-choose","trial_index":69,"time_elapsed":543706,"internal_node_id":"0.0-69.0"},{"responses":[{"value":0,"offby":-1,"category":"$115 - $130","category_index":0},{"value":0,"offby":-5,"category":"$131 - $145","category_index":1},{"value":8,"offby":-4,"category":"$146 - $160","category_index":2},{"value":25,"offby":3,"category":"$161 - $175","category_index":3},{"value":36,"offby":2,"category":"$176 - $190","category_index":4},{"value":22,"offby":7,"category":"$191 - $205","category_index":5},{"value":9,"offby":-2,"category":"$206 - $220","category_index":6}],"phase":1,"number":1,"trial_type":"bar-choose","trial_index":70,"time_elapsed":569923,"internal_node_id":"0.0-70.0"},{"rt":57013,"url":"\/christiane\/tickets\/utils\/testing2.html","trial_type":"point_update","trial_index":71,"time_elapsed":628079,"internal_node_id":"0.0-71.0"},{"phase":1,"order":[29,38,11,23,10,40,8,20,36,33,16,24,34,42,31,2,27,7,6,18,3,5,26,28,47,41,43,0,44,14,45,46,21,25,48,22,19,1,17,15,37,13,9,35,30,32,39,49,12,4],"trial_type":"store_order","trial_index":72,"time_elapsed":629082,"internal_node_id":"0.0-72.0"},{"result":161,"points":2,"place":1,"phase":1,"sequence":0,"prices":[185,179,191,165,161,173,199,150,188,168],"times":[1417,434,450,932,1146],"next_num":5,"trial_type":"ticket-choose","trial_index":73,"time_elapsed":636051,"internal_node_id":"0.0-73.0"},{"result":163,"points":3,"place":0,"phase":1,"sequence":1,"prices":[163,199,196,199,185,195,227,163,177,166],"times":[478,495,509,472,443,473,518,781],"next_num":8,"trial_type":"ticket-choose","trial_index":74,"time_elapsed":643439,"internal_node_id":"0.0-74.0"},{"result":165,"points":2,"place":1,"phase":1,"sequence":2,"prices":[177,174,186,217,165,181,187,166,153,209],"times":[628,404,504,668,830],"next_num":5,"trial_type":"ticket-choose","trial_index":75,"time_elapsed":648967,"internal_node_id":"0.0-75.0"},{"result":165,"points":1,"place":2,"phase":1,"sequence":3,"prices":[177,176,187,225,158,181,187,165,208,153],"times":[860,573,458,478,464,572,513,741],"next_num":8,"trial_type":"ticket-choose","trial_index":76,"time_elapsed":656750,"internal_node_id":"0.0-76.0"},{"result":165,"points":2,"place":1,"phase":1,"sequence":4,"prices":[177,175,187,209,165,180,188,165,154,208],"times":[1231,518,449,474,966,511,646,694],"next_num":8,"trial_type":"ticket-choose","trial_index":77,"time_elapsed":665487,"internal_node_id":"0.0-77.0"},{"result":150,"points":3,"place":0,"phase":1,"sequence":5,"prices":[190,150,175,161,188,207,157,194,178,199],"times":[1072,1380],"next_num":2,"trial_type":"ticket-choose","trial_index":78,"time_elapsed":670347,"internal_node_id":"0.0-78.0"},{"result":166,"points":1,"place":2,"phase":1,"sequence":6,"prices":[165,174,186,212,177,181,187,166,153,209],"times":[1434,526,545,541,496,495,650,775],"next_num":8,"trial_type":"ticket-choose","trial_index":79,"time_elapsed":679007,"internal_node_id":"0.0-79.0"},{"result":165,"points":1,"place":2,"phase":1,"sequence":7,"prices":[158,176,187,210,177,181,187,165,208,153],"times":[809,830,570,518,602,511,608,741],"next_num":8,"trial_type":"ticket-choose","trial_index":80,"time_elapsed":687432,"internal_node_id":"0.0-80.0"},{"result":165,"points":2,"place":1,"phase":1,"sequence":8,"prices":[187,201,165,172,196,174,178,154,172,180],"times":[588,571,1138],"next_num":3,"trial_type":"ticket-choose","trial_index":81,"time_elapsed":691819,"internal_node_id":"0.0-81.0"},{"result":165,"points":2,"place":1,"phase":1,"sequence":9,"prices":[183,179,188,165,168,173,205,159,187,191],"times":[1789,531,472,735],"next_num":4,"trial_type":"ticket-choose","trial_index":82,"time_elapsed":697759,"internal_node_id":"0.0-82.0"},{"result":163,"points":2,"place":1,"phase":1,"sequence":10,"prices":[176,187,179,209,163,180,188,165,154,208],"times":[867,475,450,540,772],"next_num":5,"trial_type":"ticket-choose","trial_index":83,"time_elapsed":703402,"internal_node_id":"0.0-83.0"},{"result":165,"points":3,"place":0,"phase":1,"sequence":11,"prices":[193,181,175,181,185,165,224,199,218,184],"times":[595,480,517,473,452,770],"next_num":6,"trial_type":"ticket-choose","trial_index":84,"time_elapsed":709432,"internal_node_id":"0.0-84.0"},{"result":156,"points":2,"place":1,"phase":1,"sequence":12,"prices":[180,156,149,160,168,186,172,198,176,195],"times":[1832,845],"next_num":2,"trial_type":"ticket-choose","trial_index":85,"time_elapsed":713993,"internal_node_id":"0.0-85.0"},{"result":186,"points":1,"place":4,"phase":1,"sequence":13,"prices":[220,173,201,197,169,205,198,183,178,186],"times":[776,676,549,453,988,519,511,692,968,701],"next_num":11,"trial_type":"ticket-choose","trial_index":86,"time_elapsed":725070,"internal_node_id":"0.0-86.0"},{"result":165,"points":1,"place":2,"phase":1,"sequence":14,"prices":[171,169,186,165,163,167,220,148,187,165],"times":[1209,1231,607,796],"next_num":4,"trial_type":"ticket-choose","trial_index":87,"time_elapsed":731258,"internal_node_id":"0.0-87.0"},{"result":169,"points":1,"place":2,"phase":1,"sequence":15,"prices":[167,175,186,225,178,179,187,169,209,153],"times":[859,464,442,481,448,531,824,1162],"next_num":8,"trial_type":"ticket-choose","trial_index":88,"time_elapsed":739688,"internal_node_id":"0.0-88.0"},{"result":165,"points":3,"place":0,"phase":1,"sequence":16,"prices":[192,172,171,178,188,165,217,168,195,197],"times":[532,586,625,500,503,808],"next_num":6,"trial_type":"ticket-choose","trial_index":89,"time_elapsed":745974,"internal_node_id":"0.0-89.0"},{"result":165,"points":2,"place":1,"phase":1,"sequence":17,"prices":[165,175,187,209,177,180,188,167,154,208],"times":[1473],"next_num":1,"trial_type":"ticket-choose","trial_index":90,"time_elapsed":749244,"internal_node_id":"0.0-90.0"},{"result":166,"points":1,"place":2,"phase":1,"sequence":18,"prices":[165,175,186,214,177,179,187,166,153,208],"times":[3044,564,549,508,561,520,515,792],"next_num":8,"trial_type":"ticket-choose","trial_index":91,"time_elapsed":759642,"internal_node_id":"0.0-91.0"},{"result":158,"points":2,"place":1,"phase":1,"sequence":19,"prices":[158,175,186,211,177,180,187,166,209,153],"times":[1044],"next_num":1,"trial_type":"ticket-choose","trial_index":92,"time_elapsed":762377,"internal_node_id":"0.0-92.0"},{"result":167,"points":2,"place":1,"phase":1,"sequence":20,"prices":[178,174,186,217,167,181,188,168,208,156],"times":[738,500,510,506,887],"next_num":5,"trial_type":"ticket-choose","trial_index":93,"time_elapsed":768048,"internal_node_id":"0.0-93.0"},{"result":167,"points":2,"place":1,"phase":1,"sequence":21,"prices":[178,175,186,212,167,179,187,169,209,153],"times":[1037,555,546,575,1310],"next_num":5,"trial_type":"ticket-choose","trial_index":94,"time_elapsed":774574,"internal_node_id":"0.0-94.0"},{"result":169,"points":1,"place":3,"phase":1,"sequence":22,"prices":[200,173,182,169,207,165,152,202,161,204],"times":[806,621,521,918],"next_num":4,"trial_type":"ticket-choose","trial_index":95,"time_elapsed":779809,"internal_node_id":"0.0-95.0"},{"result":165,"points":3,"place":0,"phase":1,"sequence":23,"prices":[196,171,170,184,187,165,211,169,201,202],"times":[1010,594,633,651,615,882],"next_num":6,"trial_type":"ticket-choose","trial_index":96,"time_elapsed":786964,"internal_node_id":"0.0-96.0"},{"result":160,"points":1,"place":2,"phase":1,"sequence":24,"prices":[200,180,203,152,175,170,160,154,176,191],"times":[805,513,562,464,550,539,703],"next_num":7,"trial_type":"ticket-choose","trial_index":97,"time_elapsed":794091,"internal_node_id":"0.0-97.0"},{"result":155,"points":2,"place":1,"phase":1,"sequence":25,"prices":[200,207,155,158,156,168,167,135,178,177],"times":[1247,535,763],"next_num":3,"trial_type":"ticket-choose","trial_index":98,"time_elapsed":798808,"internal_node_id":"0.0-98.0"},{"result":157,"points":3,"place":0,"phase":1,"sequence":26,"prices":[201,187,157,184,198,179,188,185,178,170],"times":[609,622,757],"next_num":3,"trial_type":"ticket-choose","trial_index":99,"time_elapsed":803023,"internal_node_id":"0.0-99.0"},{"result":168,"points":1,"place":2,"phase":1,"sequence":27,"prices":[167,174,186,211,178,181,188,168,208,156],"times":[1035,588,573,533,607,514,489,740],"next_num":8,"trial_type":"ticket-choose","trial_index":100,"time_elapsed":811244,"internal_node_id":"0.0-100.0"},{"result":159,"points":1,"place":2,"phase":1,"sequence":28,"prices":[181,159,149,175,185,151,163,174,178,207],"times":[1890,1001],"next_num":2,"trial_type":"ticket-choose","trial_index":101,"time_elapsed":816480,"internal_node_id":"0.0-101.0"},{"result":163,"points":2,"place":1,"phase":1,"sequence":29,"prices":[163,174,186,212,176,181,187,166,153,209],"times":[1447],"next_num":1,"trial_type":"ticket-choose","trial_index":102,"time_elapsed":819628,"internal_node_id":"0.0-102.0"},{"result":167,"points":2,"place":1,"phase":1,"sequence":30,"prices":[199,191,188,174,167,193,189,164,176,170],"times":[738,525,487,558,826],"next_num":5,"trial_type":"ticket-choose","trial_index":103,"time_elapsed":825337,"internal_node_id":"0.0-103.0"},{"result":158,"points":3,"place":0,"phase":1,"sequence":31,"prices":[214,184,226,192,215,158,199,175,176,208],"times":[84133,571,482,742,501,760],"next_num":6,"trial_type":"ticket-choose","trial_index":104,"time_elapsed":915717,"internal_node_id":"0.0-104.0"},{"result":158,"points":2,"place":1,"phase":1,"sequence":32,"prices":[177,175,186,221,158,180,187,166,209,153],"times":[1939,549,503,530,801],"next_num":5,"trial_type":"ticket-choose","trial_index":105,"time_elapsed":922597,"internal_node_id":"0.0-105.0"},{"result":166,"points":1,"place":3,"phase":1,"sequence":33,"prices":[201,204,179,166,185,165,214,156,202,165],"times":[1350,772,640,877],"next_num":4,"trial_type":"ticket-choose","trial_index":106,"time_elapsed":928575,"internal_node_id":"0.0-106.0"},{"result":179,"points":1,"place":4,"phase":1,"sequence":34,"prices":[181,214,169,147,182,193,178,184,176,179],"times":[637,526,425,404,525,513,658,601,1102,479],"next_num":10,"trial_type":"ticket-choose","trial_index":107,"time_elapsed":938252,"internal_node_id":"0.0-107.0"},{"result":158,"points":2,"place":1,"phase":1,"sequence":35,"prices":[177,175,186,209,158,181,188,167,208,154],"times":[1081,447,503,510,1162],"next_num":5,"trial_type":"ticket-choose","trial_index":108,"time_elapsed":944455,"internal_node_id":"0.0-108.0"},{"result":158,"points":2,"place":1,"phase":1,"sequence":36,"prices":[158,175,186,209,177,181,188,167,208,154],"times":[1172],"next_num":1,"trial_type":"ticket-choose","trial_index":109,"time_elapsed":947359,"internal_node_id":"0.0-109.0"},{"result":168,"points":1,"place":2,"phase":1,"sequence":37,"prices":[167,175,185,224,178,181,186,168,208,156],"times":[760,459,468,462,584,496,519,817],"next_num":8,"trial_type":"ticket-choose","trial_index":110,"time_elapsed":955171,"internal_node_id":"0.0-110.0"},{"result":166,"points":1,"place":2,"phase":1,"sequence":38,"prices":[176,186,178,217,163,181,187,166,153,209],"times":[824,495,428,436,428,480,578,698],"next_num":8,"trial_type":"ticket-choose","trial_index":111,"time_elapsed":962680,"internal_node_id":"0.0-111.0"},{"result":163,"points":2,"place":1,"phase":1,"sequence":39,"prices":[176,175,186,210,163,179,187,166,153,208],"times":[942,615,541,458,863],"next_num":5,"trial_type":"ticket-choose","trial_index":112,"time_elapsed":968620,"internal_node_id":"0.0-112.0"},{"result":151,"points":3,"place":0,"phase":1,"sequence":40,"prices":[199,193,169,165,202,182,151,164,176,171],"times":[960,459,624,584,480,563,753],"next_num":7,"trial_type":"ticket-choose","trial_index":113,"time_elapsed":975897,"internal_node_id":"0.0-113.0"},{"result":165,"points":1,"place":2,"phase":1,"sequence":41,"prices":[163,175,187,209,176,180,188,165,154,208],"times":[776,489,471,519,588,638,518,773],"next_num":8,"trial_type":"ticket-choose","trial_index":114,"time_elapsed":983818,"internal_node_id":"0.0-114.0"},{"result":165,"points":2,"place":1,"phase":1,"sequence":42,"prices":[177,175,186,210,165,179,187,166,153,208],"times":[845,597,572,525,955],"next_num":5,"trial_type":"ticket-choose","trial_index":115,"time_elapsed":989950,"internal_node_id":"0.0-115.0"},{"result":143,"points":3,"place":0,"phase":1,"sequence":43,"prices":[167,153,172,185,195,143,184,211,177,227],"times":[3528,441,554,542,453,859],"next_num":6,"trial_type":"ticket-choose","trial_index":116,"time_elapsed":998999,"internal_node_id":"0.0-116.0"},{"result":165,"points":2,"place":1,"phase":1,"sequence":44,"prices":[191,170,182,165,175,182,203,157,195,200],"times":[1534,509,482,796],"next_num":4,"trial_type":"ticket-choose","trial_index":117,"time_elapsed":1004677,"internal_node_id":"0.0-117.0"},{"result":161,"points":3,"place":0,"phase":1,"sequence":45,"prices":[193,174,224,165,187,190,224,161,194,195],"times":[971,587,448,435,491,526,531,1081],"next_num":8,"trial_type":"ticket-choose","trial_index":118,"time_elapsed":1013017,"internal_node_id":"0.0-118.0"},{"result":171,"points":1,"place":3,"phase":1,"sequence":46,"prices":[189,167,180,197,165,168,172,213,178,171],"times":[581,773,466,420,392,465,471,688,475,381],"next_num":10,"trial_type":"ticket-choose","trial_index":119,"time_elapsed":1021833,"internal_node_id":"0.0-119.0"},{"result":163,"points":1,"place":2,"phase":1,"sequence":47,"prices":[173,163,185,181,166,148,160,185,176,184],"times":[639,944],"next_num":2,"trial_type":"ticket-choose","trial_index":120,"time_elapsed":1025334,"internal_node_id":"0.0-120.0"},{"result":163,"points":2,"place":1,"phase":1,"sequence":48,"prices":[163,175,186,214,176,179,187,166,153,208],"times":[784],"next_num":1,"trial_type":"ticket-choose","trial_index":121,"time_elapsed":1027868,"internal_node_id":"0.0-121.0"},{"result":167,"points":2,"place":1,"phase":1,"sequence":49,"prices":[178,175,185,215,167,181,186,168,208,156],"times":[643,504,449,460,870],"next_num":5,"trial_type":"ticket-choose","trial_index":122,"time_elapsed":1033323,"internal_node_id":"0.0-122.0"},{"responses":[{"value":0,"offby":-1,"category":"$115 - $130","category_index":0},{"value":0,"offby":-5,"category":"$131 - $145","category_index":1},{"value":4,"offby":-8,"category":"$146 - $160","category_index":2},{"value":21,"offby":-1,"category":"$161 - $175","category_index":3},{"value":38,"offby":4,"category":"$176 - $190","category_index":4},{"value":29,"offby":14,"category":"$191 - $205","category_index":5},{"value":8,"offby":-3,"category":"$206 - $220","category_index":6}],"phase":1,"number":1,"trial_type":"bar-choose","trial_index":123,"time_elapsed":1056279,"internal_node_id":"0.0-123.0"},{"special_comment":"No","trial_type":"special_sequence","trial_index":124,"time_elapsed":1065989,"internal_node_id":"0.0-124.0"},{"during":"Nothing","bonus":260,"trial_type":"final","trial_index":125,"time_elapsed":1086823,"internal_node_id":"0.0-125.0"}],"bonus":260}