{"start_time":"2017-05-24 12:09:15","end_time":"2017-05-24 12:49:27","points_phase0":112,"points_phase1":124,"phase_order":1,"age":30,"gender":"f","tries":1,"during":"Nothing","worker_id":"A3609GDWR2JCCA","assignment_id":"3N1FSUEFL6T46QT3XDOOPZQO2Z64DF","data":[{"rt":24496,"url":"\/christiane\/tickets\/utils\/consent.html","trial_type":"html","trial_index":0,"time_elapsed":26275,"internal_node_id":"0.0-0.0"},{"age":30,"gender":"f","trial_type":"age","trial_index":1,"time_elapsed":34036,"internal_node_id":"0.0-1.0"},{"worker_id":"A3609GDWR2JCCA","trial_type":"workerid","trial_index":2,"time_elapsed":47399,"internal_node_id":"0.0-2.0"},{"tries":1,"trial_type":"instructions_check","trial_index":3,"time_elapsed":79388,"internal_node_id":"0.0-3.0"},{"rt":15139,"url":"\/christiane\/tickets\/utils\/start.html","trial_type":"html","trial_index":4,"time_elapsed":95675,"internal_node_id":"0.0-4.0"},{"trial_type":"number-animation","trial_index":5,"time_elapsed":118464,"internal_node_id":"0.0-5.0"},{"phase":0,"sequence":0,"avg":181,"response":173,"trial_type":"training_avg","trial_index":6,"time_elapsed":130477,"internal_node_id":"0.0-6.0"},{"trial_type":"number-animation","trial_index":7,"time_elapsed":147161,"internal_node_id":"0.0-7.0"},{"phase":0,"sequence":1,"avg":188,"response":200,"trial_type":"training_avg","trial_index":8,"time_elapsed":157597,"internal_node_id":"0.0-8.0"},{"trial_type":"number-animation","trial_index":9,"time_elapsed":169222,"internal_node_id":"0.0-9.0"},{"phase":0,"sequence":2,"avg":188,"response":180,"trial_type":"training_avg","trial_index":10,"time_elapsed":177005,"internal_node_id":"0.0-10.0"},{"trial_type":"number-animation","trial_index":11,"time_elapsed":191514,"internal_node_id":"0.0-11.0"},{"phase":0,"sequence":3,"avg":177,"response":183,"trial_type":"training_avg","trial_index":12,"time_elapsed":199962,"internal_node_id":"0.0-12.0"},{"trial_type":"number-animation","trial_index":13,"time_elapsed":212603,"internal_node_id":"0.0-13.0"},{"phase":0,"sequence":4,"avg":182,"response":173,"trial_type":"training_avg","trial_index":14,"time_elapsed":221846,"internal_node_id":"0.0-14.0"},{"responses":[{"value":2,"offby":1,"category":"$115 - $130","category_index":0},{"value":5,"offby":0,"category":"$131 - $145","category_index":1},{"value":10,"offby":-2,"category":"$146 - $160","category_index":2},{"value":30,"offby":8,"category":"$161 - $175","category_index":3},{"value":30,"offby":-4,"category":"$176 - $190","category_index":4},{"value":15,"offby":0,"category":"$191 - $205","category_index":5},{"value":8,"offby":-3,"category":"$206 - $220","category_index":6}],"phase":0,"number":0,"trial_type":"bar-choose","trial_index":15,"time_elapsed":344371,"internal_node_id":"0.0-15.0"},{"rt":23518,"url":"\/christiane\/tickets\/utils\/testing.html","trial_type":"html","trial_index":16,"time_elapsed":369042,"internal_node_id":"0.0-16.0"},{"phase":0,"order":[26,36,41,25,40,34,17,39,29,48,9,0,42,38,24,11,19,4,27,30,32,3,16,18,8,23,20,7,1,47,44,45,33,37,35,22,49,2,14,28,13,10,43,21,31,46,15,6,5,12],"trial_type":"store_order","trial_index":17,"time_elapsed":370045,"internal_node_id":"0.0-17.0"},{"result":165,"points":2,"place":1,"phase":0,"sequence":-1,"prices":[184,180,224,165,181,199,185,193,218,146],"times":[3020,2434,1900,3381],"next_num":4,"trial_type":"ticket-choose","trial_index":18,"time_elapsed":386187,"internal_node_id":"0.0-18.0"},{"rt":31377,"url":"\/christiane\/tickets\/utils\/testing_after.html","trial_type":"html","trial_index":19,"time_elapsed":418724,"internal_node_id":"0.0-19.0"},{"result":163,"points":1,"place":2,"phase":0,"sequence":0,"prices":[173,163,185,181,166,148,160,185,176,184],"times":[3167,3701],"next_num":2,"trial_type":"ticket-choose","trial_index":20,"time_elapsed":428899,"internal_node_id":"0.0-20.0"},{"result":169,"points":1,"place":2,"phase":0,"sequence":1,"prices":[167,175,186,225,178,179,187,169,209,153],"times":[1579,1622,1498,1345,1345,1326,1249,3387],"next_num":8,"trial_type":"ticket-choose","trial_index":21,"time_elapsed":446348,"internal_node_id":"0.0-21.0"},{"result":156,"points":3,"place":0,"phase":0,"sequence":2,"prices":[178,174,186,217,167,181,188,168,208,156],"times":[1772,1514,1290,1318,1442,1218,1004,1555,1125,1828],"next_num":10,"trial_type":"ticket-choose","trial_index":22,"time_elapsed":466725,"internal_node_id":"0.0-22.0"},{"result":197,"points":0,"place":8,"phase":0,"sequence":3,"prices":[192,172,171,178,188,165,217,168,195,197],"times":[1871,2199,1413,1361,1237,1652,976,1297,925,2009],"next_num":10,"trial_type":"ticket-choose","trial_index":23,"time_elapsed":486245,"internal_node_id":"0.0-23.0"},{"result":159,"points":1,"place":2,"phase":0,"sequence":4,"prices":[181,159,149,175,185,151,163,174,178,207],"times":[754,1362],"next_num":2,"trial_type":"ticket-choose","trial_index":24,"time_elapsed":491910,"internal_node_id":"0.0-24.0"},{"result":157,"points":3,"place":0,"phase":0,"sequence":5,"prices":[191,170,182,165,175,182,203,157,195,200],"times":[1004,986,900,1444,630,636,681,1360],"next_num":8,"trial_type":"ticket-choose","trial_index":25,"time_elapsed":507166,"internal_node_id":"0.0-25.0"},{"result":186,"points":1,"place":4,"phase":0,"sequence":6,"prices":[220,173,201,197,169,205,198,183,178,186],"times":[3353,1024,1067,1802,1158,791,824,1214,1315,1354],"next_num":10,"trial_type":"ticket-choose","trial_index":26,"time_elapsed":525470,"internal_node_id":"0.0-26.0"},{"result":153,"points":2,"place":1,"phase":0,"sequence":7,"prices":[167,153,172,185,195,143,184,211,177,227],"times":[1114,1224],"next_num":2,"trial_type":"ticket-choose","trial_index":27,"time_elapsed":530446,"internal_node_id":"0.0-27.0"},{"result":153,"points":3,"place":0,"phase":0,"sequence":8,"prices":[158,175,186,211,177,180,187,166,209,153],"times":[3616,934,898,693,756,746,668,1173,672,1091],"next_num":10,"trial_type":"ticket-choose","trial_index":28,"time_elapsed":547377,"internal_node_id":"0.0-28.0"},{"result":161,"points":2,"place":1,"phase":0,"sequence":9,"prices":[185,179,191,165,161,173,199,150,188,168],"times":[1014,808,785,1611,1785],"next_num":5,"trial_type":"ticket-choose","trial_index":29,"time_elapsed":557640,"internal_node_id":"0.0-29.0"},{"result":153,"points":3,"place":0,"phase":0,"sequence":10,"prices":[163,174,186,212,176,181,187,166,153,209],"times":[2433,806,763,620,816,874,756,1364,1319],"next_num":9,"trial_type":"ticket-choose","trial_index":30,"time_elapsed":600204,"internal_node_id":"0.0-30.0"},{"result":165,"points":1,"place":2,"phase":0,"sequence":11,"prices":[176,187,179,209,163,180,188,165,154,208],"times":[20090,757,605,730,7782,838,816,2907],"next_num":8,"trial_type":"ticket-choose","trial_index":31,"time_elapsed":980188,"internal_node_id":"0.0-31.0"},{"result":152,"points":3,"place":0,"phase":0,"sequence":12,"prices":[200,180,203,152,175,170,160,154,176,191],"times":[898,491,619,1277],"next_num":4,"trial_type":"ticket-choose","trial_index":32,"time_elapsed":986454,"internal_node_id":"0.0-32.0"},{"result":153,"points":3,"place":0,"phase":0,"sequence":13,"prices":[177,175,186,210,165,179,187,166,153,208],"times":[1040,506,566,614,1557,709,707,1583,1279],"next_num":9,"trial_type":"ticket-choose","trial_index":33,"time_elapsed":998854,"internal_node_id":"0.0-33.0"},{"result":156,"points":2,"place":1,"phase":0,"sequence":14,"prices":[180,156,149,160,168,186,172,198,176,195],"times":[699,1308],"next_num":2,"trial_type":"ticket-choose","trial_index":34,"time_elapsed":1003358,"internal_node_id":"0.0-34.0"},{"result":154,"points":3,"place":0,"phase":0,"sequence":15,"prices":[187,201,165,172,196,174,178,154,172,180],"times":[570,546,837,505,807,776,707,1324],"next_num":8,"trial_type":"ticket-choose","trial_index":35,"time_elapsed":1013127,"internal_node_id":"0.0-35.0"},{"result":159,"points":3,"place":0,"phase":0,"sequence":16,"prices":[183,179,188,165,168,173,205,159,187,191],"times":[2822,364,527,907,722,611,626,866],"next_num":8,"trial_type":"ticket-choose","trial_index":36,"time_elapsed":1024167,"internal_node_id":"0.0-36.0"},{"result":153,"points":3,"place":0,"phase":0,"sequence":17,"prices":[165,175,186,214,177,179,187,166,153,208],"times":[800,535,557,555,843,544,569,889,1132],"next_num":9,"trial_type":"ticket-choose","trial_index":37,"time_elapsed":1034374,"internal_node_id":"0.0-37.0"},{"result":156,"points":3,"place":0,"phase":0,"sequence":18,"prices":[167,174,186,211,178,181,188,168,208,156],"times":[683,567,576,581,1011,844,592,1334,547,790],"next_num":10,"trial_type":"ticket-choose","trial_index":38,"time_elapsed":1045838,"internal_node_id":"0.0-38.0"},{"result":152,"points":3,"place":0,"phase":0,"sequence":19,"prices":[200,173,182,169,207,165,152,202,161,204],"times":[581,571,648,607,845,790,1027],"next_num":7,"trial_type":"ticket-choose","trial_index":39,"time_elapsed":1068956,"internal_node_id":"0.0-39.0"},{"result":158,"points":2,"place":1,"phase":0,"sequence":20,"prices":[177,175,186,209,158,181,188,167,208,154],"times":[629,715,693,768,1107],"next_num":5,"trial_type":"ticket-choose","trial_index":40,"time_elapsed":1075824,"internal_node_id":"0.0-40.0"},{"result":153,"points":3,"place":0,"phase":0,"sequence":21,"prices":[178,175,186,212,167,179,187,169,209,153],"times":[571,590,744,672,769,689,833,1184,545,824],"next_num":10,"trial_type":"ticket-choose","trial_index":41,"time_elapsed":1087123,"internal_node_id":"0.0-41.0"},{"result":153,"points":3,"place":0,"phase":0,"sequence":22,"prices":[176,175,186,210,163,179,187,166,153,208],"times":[1265,550,636,679,883,762,797,1031,1022],"next_num":9,"trial_type":"ticket-choose","trial_index":42,"time_elapsed":1098423,"internal_node_id":"0.0-42.0"},{"result":154,"points":3,"place":0,"phase":0,"sequence":23,"prices":[163,175,187,209,176,180,188,165,154,208],"times":[896,625,571,652,757,699,819,1165,1175],"next_num":9,"trial_type":"ticket-choose","trial_index":43,"time_elapsed":1110089,"internal_node_id":"0.0-43.0"},{"result":184,"points":1,"place":4,"phase":0,"sequence":24,"prices":[193,181,175,181,185,165,224,199,218,184],"times":[867,765,986,1003,576,1093,668,803,787,1055],"next_num":10,"trial_type":"ticket-choose","trial_index":44,"time_elapsed":1123069,"internal_node_id":"0.0-44.0"},{"result":158,"points":2,"place":1,"phase":0,"sequence":25,"prices":[177,175,186,221,158,180,187,166,209,153],"times":[2945,970,805,683,1190],"next_num":5,"trial_type":"ticket-choose","trial_index":45,"time_elapsed":1132619,"internal_node_id":"0.0-45.0"},{"result":153,"points":3,"place":0,"phase":0,"sequence":26,"prices":[163,175,186,214,176,179,187,166,153,208],"times":[774,491,516,568,659,635,504,964,797],"next_num":9,"trial_type":"ticket-choose","trial_index":46,"time_elapsed":1142353,"internal_node_id":"0.0-46.0"},{"result":154,"points":3,"place":0,"phase":0,"sequence":27,"prices":[177,175,187,209,165,180,188,165,154,208],"times":[774,612,521,584,785,733,713,1885,932],"next_num":9,"trial_type":"ticket-choose","trial_index":47,"time_elapsed":1207436,"internal_node_id":"0.0-47.0"},{"result":171,"points":1,"place":3,"phase":0,"sequence":28,"prices":[189,167,180,197,165,168,172,213,178,171],"times":[882,937,1532,710,906,709,767,755,815,1074],"next_num":10,"trial_type":"ticket-choose","trial_index":48,"time_elapsed":1220664,"internal_node_id":"0.0-48.0"},{"result":170,"points":1,"place":2,"phase":0,"sequence":29,"prices":[199,191,188,174,167,193,189,164,176,170],"times":[609,550,1428,610,906,553,784,1090,788,846],"next_num":10,"trial_type":"ticket-choose","trial_index":49,"time_elapsed":1233308,"internal_node_id":"0.0-49.0"},{"result":156,"points":3,"place":0,"phase":0,"sequence":30,"prices":[201,204,179,166,185,165,214,156,202,165],"times":[549,581,694,870,807,1109,824,915],"next_num":8,"trial_type":"ticket-choose","trial_index":50,"time_elapsed":1253085,"internal_node_id":"0.0-50.0"},{"result":158,"points":2,"place":1,"phase":0,"sequence":31,"prices":[177,176,187,225,158,181,187,165,208,153],"times":[1051,609,944,635,1147],"next_num":5,"trial_type":"ticket-choose","trial_index":51,"time_elapsed":1263949,"internal_node_id":"0.0-51.0"},{"result":158,"points":2,"place":1,"phase":0,"sequence":32,"prices":[158,176,187,210,177,181,187,165,208,153],"times":[3335],"next_num":1,"trial_type":"ticket-choose","trial_index":52,"time_elapsed":1269696,"internal_node_id":"0.0-52.0"},{"result":158,"points":2,"place":1,"phase":0,"sequence":33,"prices":[158,175,186,209,177,181,188,167,208,154],"times":[2560],"next_num":1,"trial_type":"ticket-choose","trial_index":53,"time_elapsed":1274430,"internal_node_id":"0.0-53.0"},{"result":156,"points":3,"place":0,"phase":0,"sequence":34,"prices":[178,175,185,215,167,181,186,168,208,156],"times":[619,658,818,903,838,623,798,809,527,733],"next_num":10,"trial_type":"ticket-choose","trial_index":54,"time_elapsed":1285678,"internal_node_id":"0.0-54.0"},{"result":156,"points":3,"place":0,"phase":0,"sequence":35,"prices":[167,175,185,224,178,181,186,168,208,156],"times":[868,699,750,733,657,814,805,1513,585,756],"next_num":10,"trial_type":"ticket-choose","trial_index":55,"time_elapsed":1297903,"internal_node_id":"0.0-55.0"},{"result":158,"points":3,"place":0,"phase":0,"sequence":36,"prices":[214,184,226,192,215,158,199,175,176,208],"times":[1089,1069,581,782,743,1289],"next_num":6,"trial_type":"ticket-choose","trial_index":56,"time_elapsed":1306766,"internal_node_id":"0.0-56.0"},{"result":153,"points":3,"place":0,"phase":0,"sequence":37,"prices":[165,174,186,212,177,181,187,166,153,209],"times":[736,595,690,1529,15106,816,775,877,983],"next_num":9,"trial_type":"ticket-choose","trial_index":57,"time_elapsed":1410936,"internal_node_id":"0.0-57.0"},{"result":148,"points":3,"place":0,"phase":0,"sequence":38,"prices":[171,169,186,165,163,167,220,148,187,165],"times":[878,756,922,853,980,902,908,948],"next_num":8,"trial_type":"ticket-choose","trial_index":58,"time_elapsed":1427443,"internal_node_id":"0.0-58.0"},{"result":150,"points":3,"place":0,"phase":0,"sequence":39,"prices":[190,150,175,161,188,207,157,194,178,199],"times":[905,1098],"next_num":2,"trial_type":"ticket-choose","trial_index":59,"time_elapsed":1431834,"internal_node_id":"0.0-59.0"},{"result":153,"points":3,"place":0,"phase":0,"sequence":40,"prices":[176,186,178,217,163,181,187,166,153,209],"times":[670,569,649,695,847,570,961,884,1414],"next_num":9,"trial_type":"ticket-choose","trial_index":60,"time_elapsed":1443063,"internal_node_id":"0.0-60.0"},{"result":202,"points":0,"place":8,"phase":0,"sequence":41,"prices":[196,171,170,184,187,165,211,169,201,202],"times":[4611,1354,637,623,658,953,600,897,639,934],"next_num":10,"trial_type":"ticket-choose","trial_index":61,"time_elapsed":1459030,"internal_node_id":"0.0-61.0"},{"result":153,"points":3,"place":0,"phase":0,"sequence":42,"prices":[177,174,186,217,165,181,187,166,153,209],"times":[777,725,672,732,1007,506,642,1331,964],"next_num":9,"trial_type":"ticket-choose","trial_index":62,"time_elapsed":1470228,"internal_node_id":"0.0-62.0"},{"result":147,"points":3,"place":0,"phase":0,"sequence":43,"prices":[181,214,169,147,182,193,178,184,176,179],"times":[1794,729,1049,984],"next_num":4,"trial_type":"ticket-choose","trial_index":63,"time_elapsed":1477493,"internal_node_id":"0.0-63.0"},{"result":155,"points":2,"place":1,"phase":0,"sequence":44,"prices":[200,207,155,158,156,168,167,135,178,177],"times":[2305,649,1060],"next_num":3,"trial_type":"ticket-choose","trial_index":64,"time_elapsed":1484029,"internal_node_id":"0.0-64.0"},{"result":157,"points":3,"place":0,"phase":0,"sequence":45,"prices":[201,187,157,184,198,179,188,185,178,170],"times":[829,743,937],"next_num":3,"trial_type":"ticket-choose","trial_index":65,"time_elapsed":1489124,"internal_node_id":"0.0-65.0"},{"result":166,"points":1,"place":2,"phase":0,"sequence":46,"prices":[163,199,196,199,185,195,227,163,177,166],"times":[858,632,628,663,1410,896,1254,1051,732,804],"next_num":10,"trial_type":"ticket-choose","trial_index":66,"time_elapsed":1502190,"internal_node_id":"0.0-66.0"},{"result":167,"points":1,"place":2,"phase":0,"sequence":47,"prices":[165,175,187,209,177,180,188,167,154,208],"times":[849,632,681,810,598,758,850,1059],"next_num":8,"trial_type":"ticket-choose","trial_index":67,"time_elapsed":1511868,"internal_node_id":"0.0-67.0"},{"result":195,"points":0,"place":7,"phase":0,"sequence":48,"prices":[193,174,224,165,187,190,224,161,194,195],"times":[700,970,1017,1744,596,742,867,852,751,1293],"next_num":10,"trial_type":"ticket-choose","trial_index":68,"time_elapsed":1525390,"internal_node_id":"0.0-68.0"},{"result":151,"points":3,"place":0,"phase":0,"sequence":49,"prices":[199,193,169,165,202,182,151,164,176,171],"times":[1031,868,1308,1179,627,686,978],"next_num":7,"trial_type":"ticket-choose","trial_index":69,"time_elapsed":1535903,"internal_node_id":"0.0-69.0"},{"responses":[{"value":3,"offby":2,"category":"$115 - $130","category_index":0},{"value":5,"offby":0,"category":"$131 - $145","category_index":1},{"value":20,"offby":8,"category":"$146 - $160","category_index":2},{"value":40,"offby":18,"category":"$161 - $175","category_index":3},{"value":17,"offby":-17,"category":"$176 - $190","category_index":4},{"value":15,"offby":0,"category":"$191 - $205","category_index":5},{"value":0,"offby":-11,"category":"$206 - $220","category_index":6}],"phase":1,"number":1,"trial_type":"bar-choose","trial_index":70,"time_elapsed":1739007,"internal_node_id":"0.0-70.0"},{"rt":18856,"url":"\/christiane\/tickets\/utils\/testing2.html","trial_type":"point_update","trial_index":71,"time_elapsed":1759151,"internal_node_id":"0.0-71.0"},{"phase":1,"order":[49,2,3,27,44,30,42,35,18,29,14,16,47,9,34,36,33,6,0,26,22,5,15,13,24,21,12,10,39,45,25,23,20,19,4,1,46,8,31,40,17,28,11,48,41,43,38,7,32,37],"trial_type":"store_order","trial_index":72,"time_elapsed":1760157,"internal_node_id":"0.0-72.0"},{"result":161,"points":3,"place":0,"phase":1,"sequence":0,"prices":[200,165,165,173,182,207,161,202,204,180],"times":[1642,1424,1391,774,1054,1015,1151],"next_num":7,"trial_type":"ticket-choose","trial_index":73,"time_elapsed":1772047,"internal_node_id":"0.0-73.0"},{"result":154,"points":3,"place":0,"phase":1,"sequence":1,"prices":[188,200,165,172,198,174,177,154,177,180],"times":[1304,722,1085,826,851,949,854,1110],"next_num":8,"trial_type":"ticket-choose","trial_index":74,"time_elapsed":1783390,"internal_node_id":"0.0-74.0"},{"result":155,"points":2,"place":1,"phase":1,"sequence":2,"prices":[201,207,155,158,156,165,167,135,178,177],"times":[912,770,973],"next_num":3,"trial_type":"ticket-choose","trial_index":75,"time_elapsed":1788542,"internal_node_id":"0.0-75.0"},{"result":179,"points":1,"place":4,"phase":1,"sequence":3,"prices":[201,165,162,166,185,214,165,202,204,179],"times":[823,855,1010,775,769,769,990,834,809,785],"next_num":10,"trial_type":"ticket-choose","trial_index":76,"time_elapsed":1801046,"internal_node_id":"0.0-76.0"},{"result":150,"points":3,"place":0,"phase":1,"sequence":4,"prices":[189,150,175,160,188,207,158,194,178,199],"times":[959,1054],"next_num":2,"trial_type":"ticket-choose","trial_index":77,"time_elapsed":1805511,"internal_node_id":"0.0-77.0"},{"result":155,"points":2,"place":1,"phase":1,"sequence":5,"prices":[181,155,148,161,168,187,172,199,176,194],"times":[783,973],"next_num":2,"trial_type":"ticket-choose","trial_index":78,"time_elapsed":1809494,"internal_node_id":"0.0-78.0"},{"result":153,"points":3,"place":0,"phase":1,"sequence":6,"prices":[174,186,176,217,181,187,163,166,153,209],"times":[679,582,546,841,529,612,893,643,854],"next_num":9,"trial_type":"ticket-choose","trial_index":79,"time_elapsed":1819382,"internal_node_id":"0.0-79.0"},{"result":171,"points":1,"place":3,"phase":1,"sequence":7,"prices":[189,167,180,197,165,168,172,213,178,171],"times":[624,853,584,612,897,663,826,674,796,776],"next_num":10,"trial_type":"ticket-choose","trial_index":80,"time_elapsed":1830591,"internal_node_id":"0.0-80.0"},{"result":165,"points":3,"place":0,"phase":1,"sequence":8,"prices":[185,170,182,201,173,199,171,188,165,168],"times":[569,597,1260,647,1128,677,706,761,972],"next_num":9,"trial_type":"ticket-choose","trial_index":81,"time_elapsed":1841776,"internal_node_id":"0.0-81.0"},{"result":147,"points":3,"place":0,"phase":1,"sequence":9,"prices":[181,215,169,147,182,193,177,184,176,179],"times":[1075,622,1444,981],"next_num":4,"trial_type":"ticket-choose","trial_index":82,"time_elapsed":1852235,"internal_node_id":"0.0-82.0"},{"result":153,"points":3,"place":0,"phase":1,"sequence":10,"prices":[175,186,177,210,179,187,165,166,153,208],"times":[871,887,796,711,593,593,1607,770,904],"next_num":9,"trial_type":"ticket-choose","trial_index":83,"time_elapsed":1875818,"internal_node_id":"0.0-83.0"},{"result":156,"points":3,"place":0,"phase":1,"sequence":11,"prices":[174,186,167,211,181,188,178,168,208,156],"times":[9592,752,897,969,717,611,930,919,662,672],"next_num":10,"trial_type":"ticket-choose","trial_index":84,"time_elapsed":1896809,"internal_node_id":"0.0-84.0"},{"result":143,"points":3,"place":0,"phase":1,"sequence":12,"prices":[222,173,202,197,143,205,198,183,178,186],"times":[1314,944,758,856,1306],"next_num":5,"trial_type":"ticket-choose","trial_index":85,"time_elapsed":1904826,"internal_node_id":"0.0-85.0"},{"result":163,"points":3,"place":0,"phase":1,"sequence":13,"prices":[168,199,196,198,185,195,227,163,177,166],"times":[913,738,755,726,831,789,720,1345],"next_num":8,"trial_type":"ticket-choose","trial_index":86,"time_elapsed":1915258,"internal_node_id":"0.0-86.0"},{"result":184,"points":1,"place":4,"phase":1,"sequence":14,"prices":[193,165,175,181,185,224,180,199,218,184],"times":[781,882,823,721,746,732,696,1083,1070,876],"next_num":10,"trial_type":"ticket-choose","trial_index":87,"time_elapsed":1927882,"internal_node_id":"0.0-87.0"},{"result":165,"points":2,"place":1,"phase":1,"sequence":15,"prices":[174,186,177,217,181,187,165,166,153,209],"times":[1407,678,689,634,826,838,1038],"next_num":7,"trial_type":"ticket-choose","trial_index":88,"time_elapsed":1937325,"internal_node_id":"0.0-88.0"},{"result":158,"points":2,"place":1,"phase":1,"sequence":16,"prices":[175,186,158,209,181,188,177,167,208,154],"times":[521,553,946],"next_num":3,"trial_type":"ticket-choose","trial_index":89,"time_elapsed":1941717,"internal_node_id":"0.0-89.0"},{"result":156,"points":3,"place":0,"phase":1,"sequence":17,"prices":[175,185,178,215,181,186,167,168,208,156],"times":[665,503,697,635,727,852,1454,797,551,683],"next_num":10,"trial_type":"ticket-choose","trial_index":90,"time_elapsed":1953083,"internal_node_id":"0.0-90.0"},{"result":186,"points":1,"place":4,"phase":1,"sequence":18,"prices":[192,165,171,178,188,217,172,195,197,186],"times":[561,1024,718,621,554,620,954,673,695,754],"next_num":10,"trial_type":"ticket-choose","trial_index":91,"time_elapsed":1982972,"internal_node_id":"0.0-91.0"},{"result":176,"points":0,"place":5,"phase":1,"sequence":19,"prices":[191,172,169,175,182,203,170,195,165,176],"times":[1029,606,685,647,545,816,948,787,1882,806],"next_num":10,"trial_type":"ticket-choose","trial_index":92,"time_elapsed":1995692,"internal_node_id":"0.0-92.0"},{"result":165,"points":3,"place":0,"phase":1,"sequence":20,"prices":[193,169,171,187,190,224,174,194,165,188],"times":[702,625,631,750,770,591,700,780,841],"next_num":9,"trial_type":"ticket-choose","trial_index":93,"time_elapsed":2005885,"internal_node_id":"0.0-93.0"},{"result":156,"points":3,"place":0,"phase":1,"sequence":21,"prices":[174,186,178,217,181,188,167,168,208,156],"times":[709,1614,515,619,716,622,1919,786,561,737],"next_num":10,"trial_type":"ticket-choose","trial_index":94,"time_elapsed":2018470,"internal_node_id":"0.0-94.0"},{"result":163,"points":2,"place":1,"phase":1,"sequence":22,"prices":[175,187,176,209,180,188,163,165,154,208],"times":[428,464,478,573,724,815,1927],"next_num":7,"trial_type":"ticket-choose","trial_index":95,"time_elapsed":2027189,"internal_node_id":"0.0-95.0"},{"result":158,"points":2,"place":1,"phase":1,"sequence":23,"prices":[175,186,158,211,180,187,177,166,209,153],"times":[2130,650,912],"next_num":3,"trial_type":"ticket-choose","trial_index":96,"time_elapsed":2033198,"internal_node_id":"0.0-96.0"},{"result":153,"points":3,"place":0,"phase":1,"sequence":24,"prices":[174,186,165,212,181,187,177,167,153,209],"times":[629,505,681,631,568,700,736,900,732],"next_num":9,"trial_type":"ticket-choose","trial_index":97,"time_elapsed":2042799,"internal_node_id":"0.0-97.0"},{"result":158,"points":2,"place":1,"phase":1,"sequence":25,"prices":[176,187,177,225,181,187,158,165,208,153],"times":[865,710,840,833,1374,755,895],"next_num":7,"trial_type":"ticket-choose","trial_index":98,"time_elapsed":2052311,"internal_node_id":"0.0-98.0"},{"result":158,"points":2,"place":1,"phase":1,"sequence":26,"prices":[176,187,158,210,181,187,177,165,208,153],"times":[707,808,930],"next_num":3,"trial_type":"ticket-choose","trial_index":99,"time_elapsed":2057046,"internal_node_id":"0.0-99.0"},{"result":154,"points":3,"place":0,"phase":1,"sequence":27,"prices":[175,187,165,209,180,188,177,166,154,208],"times":[824,606,820,763,1104,602,616,2495,853],"next_num":9,"trial_type":"ticket-choose","trial_index":100,"time_elapsed":2069486,"internal_node_id":"0.0-100.0"},{"result":156,"points":3,"place":0,"phase":1,"sequence":28,"prices":[175,185,167,224,181,186,178,168,208,156],"times":[578,810,721,594,520,572,690,1439,875,688],"next_num":10,"trial_type":"ticket-choose","trial_index":101,"time_elapsed":2080832,"internal_node_id":"0.0-101.0"},{"result":152,"points":3,"place":0,"phase":1,"sequence":29,"prices":[200,181,203,152,175,171,160,154,176,191],"times":[1047,874,678,886],"next_num":4,"trial_type":"ticket-choose","trial_index":102,"time_elapsed":2087063,"internal_node_id":"0.0-102.0"},{"result":159,"points":1,"place":2,"phase":1,"sequence":30,"prices":[180,159,149,175,185,141,163,174,178,207],"times":[887,1278],"next_num":2,"trial_type":"ticket-choose","trial_index":103,"time_elapsed":2091543,"internal_node_id":"0.0-103.0"},{"result":164,"points":3,"place":0,"phase":1,"sequence":31,"prices":[212,192,188,184,167,193,189,164,176,170],"times":[4680,721,715,778,1546,541,825,1079],"next_num":8,"trial_type":"ticket-choose","trial_index":104,"time_elapsed":2106072,"internal_node_id":"0.0-104.0"},{"result":165,"points":3,"place":0,"phase":1,"sequence":32,"prices":[183,182,192,168,173,205,167,187,165,170],"times":[1367,980,864,1106,1627,531,557,723,1370],"next_num":9,"trial_type":"ticket-choose","trial_index":105,"time_elapsed":2118896,"internal_node_id":"0.0-105.0"},{"result":152,"points":3,"place":0,"phase":1,"sequence":33,"prices":[198,193,169,163,202,182,152,164,177,171],"times":[629,2414,720,1058,524,701,1009],"next_num":7,"trial_type":"ticket-choose","trial_index":106,"time_elapsed":2129136,"internal_node_id":"0.0-106.0"},{"result":154,"points":2,"place":1,"phase":1,"sequence":34,"prices":[168,154,172,185,195,144,184,211,177,227],"times":[1185,940],"next_num":2,"trial_type":"ticket-choose","trial_index":107,"time_elapsed":2133385,"internal_node_id":"0.0-107.0"},{"result":158,"points":2,"place":1,"phase":1,"sequence":35,"prices":[175,186,177,209,181,188,158,167,208,154],"times":[609,521,562,611,755,597,860],"next_num":7,"trial_type":"ticket-choose","trial_index":108,"time_elapsed":2141017,"internal_node_id":"0.0-108.0"},{"result":148,"points":3,"place":0,"phase":1,"sequence":36,"prices":[183,163,185,180,166,148,160,186,176,184],"times":[636,747,522,623,1696,972],"next_num":6,"trial_type":"ticket-choose","trial_index":109,"time_elapsed":2149248,"internal_node_id":"0.0-109.0"},{"result":153,"points":3,"place":0,"phase":1,"sequence":37,"prices":[175,186,167,225,179,187,178,169,209,153],"times":[2337,554,919,587,590,570,609,1360,496,671],"next_num":10,"trial_type":"ticket-choose","trial_index":110,"time_elapsed":2161874,"internal_node_id":"0.0-110.0"},{"result":153,"points":3,"place":0,"phase":1,"sequence":38,"prices":[174,186,163,212,181,187,176,166,153,209],"times":[684,638,1162,548,556,705,865,882,1041],"next_num":9,"trial_type":"ticket-choose","trial_index":111,"time_elapsed":2172542,"internal_node_id":"0.0-111.0"},{"result":185,"points":1,"place":4,"phase":1,"sequence":39,"prices":[196,165,170,184,187,211,171,201,202,185],"times":[1074,793,806,1308,632,679,641,891,877,921],"next_num":10,"trial_type":"ticket-choose","trial_index":112,"time_elapsed":2185211,"internal_node_id":"0.0-112.0"},{"result":154,"points":3,"place":0,"phase":1,"sequence":40,"prices":[175,187,163,209,180,188,176,165,154,208],"times":[618,831,1999,586,672,510,790,934,948],"next_num":9,"trial_type":"ticket-choose","trial_index":113,"time_elapsed":2196788,"internal_node_id":"0.0-113.0"},{"result":154,"points":3,"place":0,"phase":1,"sequence":41,"prices":[175,187,177,209,180,188,165,165,154,208],"times":[574,640,574,652,811,685,931,955,795],"next_num":9,"trial_type":"ticket-choose","trial_index":114,"time_elapsed":2207586,"internal_node_id":"0.0-114.0"},{"result":157,"points":3,"place":0,"phase":1,"sequence":42,"prices":[201,187,157,184,198,179,188,185,178,170],"times":[935,744,898],"next_num":3,"trial_type":"ticket-choose","trial_index":115,"time_elapsed":2212675,"internal_node_id":"0.0-115.0"},{"result":158,"points":2,"place":1,"phase":1,"sequence":43,"prices":[175,186,177,221,180,187,158,166,209,153],"times":[552,880,611,615,880,653,1124],"next_num":7,"trial_type":"ticket-choose","trial_index":116,"time_elapsed":2221276,"internal_node_id":"0.0-116.0"},{"result":165,"points":3,"place":0,"phase":1,"sequence":44,"prices":[171,203,175,170,167,220,192,186,165,165],"times":[589,640,649,556,927,681,707,773,1198,716],"next_num":10,"trial_type":"ticket-choose","trial_index":117,"time_elapsed":2233236,"internal_node_id":"0.0-117.0"},{"result":158,"points":3,"place":0,"phase":1,"sequence":45,"prices":[210,184,226,193,215,158,199,175,176,208],"times":[625,749,667,590,855,999],"next_num":6,"trial_type":"ticket-choose","trial_index":118,"time_elapsed":2240773,"internal_node_id":"0.0-118.0"},{"result":153,"points":3,"place":0,"phase":1,"sequence":46,"prices":[175,186,176,210,179,187,163,166,153,208],"times":[838,593,768,556,563,603,1011,616,852],"next_num":9,"trial_type":"ticket-choose","trial_index":119,"time_elapsed":2250828,"internal_node_id":"0.0-119.0"},{"result":153,"points":3,"place":0,"phase":1,"sequence":47,"prices":[175,186,165,214,179,187,177,166,153,208],"times":[1142,417,674,542,525,630,669,617,814],"next_num":9,"trial_type":"ticket-choose","trial_index":120,"time_elapsed":2260445,"internal_node_id":"0.0-120.0"},{"result":153,"points":3,"place":0,"phase":1,"sequence":48,"prices":[175,186,178,212,179,187,167,169,209,153],"times":[556,545,575,639,578,583,1087,564,646,635],"next_num":10,"trial_type":"ticket-choose","trial_index":121,"time_elapsed":2271141,"internal_node_id":"0.0-121.0"},{"result":153,"points":3,"place":0,"phase":1,"sequence":49,"prices":[175,186,163,214,179,187,176,166,153,208],"times":[869,610,616,597,621,733,844,747,740],"next_num":9,"trial_type":"ticket-choose","trial_index":122,"time_elapsed":2281469,"internal_node_id":"0.0-122.0"},{"responses":[{"value":0,"offby":-1,"category":"$115 - $130","category_index":0},{"value":10,"offby":5,"category":"$131 - $145","category_index":1},{"value":20,"offby":8,"category":"$146 - $160","category_index":2},{"value":40,"offby":18,"category":"$161 - $175","category_index":3},{"value":25,"offby":-9,"category":"$176 - $190","category_index":4},{"value":5,"offby":-10,"category":"$191 - $205","category_index":5},{"value":0,"offby":-11,"category":"$206 - $220","category_index":6}],"phase":1,"number":1,"trial_type":"bar-choose","trial_index":123,"time_elapsed":2355946,"internal_node_id":"0.0-123.0"},{"special_comment":"I think the average price increased from sequence to sequence.","trial_type":"special_sequence","trial_index":124,"time_elapsed":2380124,"internal_node_id":"0.0-124.0"},{"during":"Nothing","bonus":316,"trial_type":"final","trial_index":125,"time_elapsed":2408324,"internal_node_id":"0.0-125.0"}],"bonus":316}