{"start_time":"2017-05-24 15:49:49","end_time":"2017-05-24 16:13:38","points_phase0":92,"points_phase1":95,"phase_order":1,"age":29,"gender":"f","tries":2,"during":"Nothing","worker_id":"A37SRHEYTK0GIH","assignment_id":"3HL8HNGX46U21GDB5EF5U74P05H9FA","data":[{"rt":24889,"url":"\/christiane\/tickets\/utils\/consent.html","trial_type":"html","trial_index":0,"time_elapsed":24997,"internal_node_id":"0.0-0.0"},{"age":29,"gender":"f","trial_type":"age","trial_index":1,"time_elapsed":31612,"internal_node_id":"0.0-1.0"},{"worker_id":"A37SRHEYTK0GIH","trial_type":"workerid","trial_index":2,"time_elapsed":48096,"internal_node_id":"0.0-2.0"},{"tries":2,"trial_type":"instructions_check","trial_index":3,"time_elapsed":81634,"internal_node_id":"0.0-3.0"},{"rt":11410,"url":"\/christiane\/tickets\/utils\/start.html","trial_type":"html","trial_index":4,"time_elapsed":94234,"internal_node_id":"0.0-4.0"},{"trial_type":"number-animation","trial_index":5,"time_elapsed":137074,"internal_node_id":"0.0-5.0"},{"phase":0,"sequence":0,"avg":181,"response":180,"trial_type":"training_avg","trial_index":6,"time_elapsed":192379,"internal_node_id":"0.0-6.0"},{"trial_type":"number-animation","trial_index":7,"time_elapsed":244145,"internal_node_id":"0.0-7.0"},{"phase":0,"sequence":1,"avg":188,"response":193,"trial_type":"training_avg","trial_index":8,"time_elapsed":265802,"internal_node_id":"0.0-8.0"},{"trial_type":"number-animation","trial_index":9,"time_elapsed":303046,"internal_node_id":"0.0-9.0"},{"phase":0,"sequence":2,"avg":188,"response":188,"trial_type":"training_avg","trial_index":10,"time_elapsed":312945,"internal_node_id":"0.0-10.0"},{"trial_type":"number-animation","trial_index":11,"time_elapsed":350896,"internal_node_id":"0.0-11.0"},{"phase":0,"sequence":3,"avg":177,"response":177,"trial_type":"training_avg","trial_index":12,"time_elapsed":360598,"internal_node_id":"0.0-12.0"},{"trial_type":"number-animation","trial_index":13,"time_elapsed":400874,"internal_node_id":"0.0-13.0"},{"phase":0,"sequence":4,"avg":182,"response":181,"trial_type":"training_avg","trial_index":14,"time_elapsed":411298,"internal_node_id":"0.0-14.0"},{"responses":[{"value":0,"offby":-1,"category":"$115 - $130","category_index":0},{"value":0,"offby":-5,"category":"$131 - $145","category_index":1},{"value":6,"offby":-6,"category":"$146 - $160","category_index":2},{"value":18,"offby":-4,"category":"$161 - $175","category_index":3},{"value":57,"offby":23,"category":"$176 - $190","category_index":4},{"value":16,"offby":1,"category":"$191 - $205","category_index":5},{"value":3,"offby":-8,"category":"$206 - $220","category_index":6}],"phase":0,"number":0,"trial_type":"bar-choose","trial_index":15,"time_elapsed":471132,"internal_node_id":"0.0-15.0"},{"rt":14957,"url":"\/christiane\/tickets\/utils\/testing.html","trial_type":"html","trial_index":16,"time_elapsed":487198,"internal_node_id":"0.0-16.0"},{"phase":0,"order":[30,36,8,44,7,12,48,34,28,23,49,3,9,4,33,16,11,38,47,0,21,6,14,1,5,27,13,15,39,46,18,43,22,35,37,45,40,25,32,17,19,10,26,42,29,41,2,31,24,20],"trial_type":"store_order","trial_index":17,"time_elapsed":488201,"internal_node_id":"0.0-17.0"},{"result":146,"points":3,"place":0,"phase":0,"sequence":-1,"prices":[184,180,224,165,181,199,185,193,218,146],"times":[5589,1801,1573,3870,765,2190,1034,1033,869,1307],"next_num":10,"trial_type":"ticket-choose","trial_index":18,"time_elapsed":513026,"internal_node_id":"0.0-18.0"},{"rt":16324,"url":"\/christiane\/tickets\/utils\/testing_after.html","trial_type":"html","trial_index":19,"time_elapsed":530459,"internal_node_id":"0.0-19.0"},{"result":158,"points":2,"place":1,"phase":0,"sequence":0,"prices":[158,175,186,211,177,180,187,166,209,153],"times":[7534],"next_num":1,"trial_type":"ticket-choose","trial_index":20,"time_elapsed":541150,"internal_node_id":"0.0-20.0"},{"result":166,"points":1,"place":2,"phase":0,"sequence":1,"prices":[176,175,186,210,163,179,187,166,153,208],"times":[1303,1137,1202,1289,1648,1154,930,2158],"next_num":8,"trial_type":"ticket-choose","trial_index":21,"time_elapsed":555866,"internal_node_id":"0.0-21.0"},{"result":168,"points":1,"place":2,"phase":0,"sequence":2,"prices":[178,174,186,217,167,181,188,168,208,156],"times":[2225,1003,881,618,1230,719,929,1440],"next_num":8,"trial_type":"ticket-choose","trial_index":22,"time_elapsed":568913,"internal_node_id":"0.0-22.0"},{"result":163,"points":3,"place":0,"phase":0,"sequence":3,"prices":[163,199,196,199,185,195,227,163,177,166],"times":[1390,844,929,836,1426,871,781,1423],"next_num":8,"trial_type":"ticket-choose","trial_index":23,"time_elapsed":582730,"internal_node_id":"0.0-23.0"},{"result":163,"points":2,"place":1,"phase":0,"sequence":4,"prices":[171,169,186,165,163,167,220,148,187,165],"times":[6928,1122,1275,1091,1416],"next_num":5,"trial_type":"ticket-choose","trial_index":24,"time_elapsed":597773,"internal_node_id":"0.0-24.0"},{"result":158,"points":2,"place":1,"phase":0,"sequence":5,"prices":[177,176,187,225,158,181,187,165,208,153],"times":[1649,715,619,673,1168],"next_num":5,"trial_type":"ticket-choose","trial_index":25,"time_elapsed":605694,"internal_node_id":"0.0-25.0"},{"result":169,"points":1,"place":2,"phase":0,"sequence":6,"prices":[167,175,186,225,178,179,187,169,209,153],"times":[1673,1005,631,766,672,648,1005,1059],"next_num":8,"trial_type":"ticket-choose","trial_index":26,"time_elapsed":620967,"internal_node_id":"0.0-26.0"},{"result":158,"points":3,"place":0,"phase":0,"sequence":7,"prices":[214,184,226,192,215,158,199,175,176,208],"times":[1596,1032,630,646,1005,1246],"next_num":6,"trial_type":"ticket-choose","trial_index":27,"time_elapsed":630293,"internal_node_id":"0.0-27.0"},{"result":156,"points":2,"place":1,"phase":0,"sequence":8,"prices":[180,156,149,160,168,186,172,198,176,195],"times":[1223,1032],"next_num":2,"trial_type":"ticket-choose","trial_index":28,"time_elapsed":634930,"internal_node_id":"0.0-28.0"},{"result":155,"points":2,"place":1,"phase":0,"sequence":9,"prices":[200,207,155,158,156,168,167,135,178,177],"times":[1083,673,1048],"next_num":3,"trial_type":"ticket-choose","trial_index":29,"time_elapsed":640209,"internal_node_id":"0.0-29.0"},{"result":165,"points":2,"place":1,"phase":0,"sequence":10,"prices":[177,174,186,217,165,181,187,166,153,209],"times":[3683,720,659,720,897],"next_num":5,"trial_type":"ticket-choose","trial_index":30,"time_elapsed":649660,"internal_node_id":"0.0-30.0"},{"result":167,"points":1,"place":2,"phase":0,"sequence":11,"prices":[165,175,187,209,177,180,188,167,154,208],"times":[1881,587,599,676,673,657,558,930],"next_num":8,"trial_type":"ticket-choose","trial_index":31,"time_elapsed":659651,"internal_node_id":"0.0-31.0"},{"result":165,"points":2,"place":1,"phase":0,"sequence":12,"prices":[187,201,165,172,196,174,178,154,172,180],"times":[1852,661,1002],"next_num":3,"trial_type":"ticket-choose","trial_index":32,"time_elapsed":665590,"internal_node_id":"0.0-32.0"},{"result":157,"points":3,"place":0,"phase":0,"sequence":13,"prices":[201,187,157,184,198,179,188,185,178,170],"times":[782,822,886],"next_num":3,"trial_type":"ticket-choose","trial_index":33,"time_elapsed":670522,"internal_node_id":"0.0-33.0"},{"result":157,"points":3,"place":0,"phase":0,"sequence":14,"prices":[191,170,182,165,175,182,203,157,195,200],"times":[776,599,689,932,655,810,811,973],"next_num":8,"trial_type":"ticket-choose","trial_index":34,"time_elapsed":680334,"internal_node_id":"0.0-34.0"},{"result":158,"points":2,"place":1,"phase":0,"sequence":15,"prices":[158,175,186,209,177,181,188,167,208,154],"times":[5813],"next_num":1,"trial_type":"ticket-choose","trial_index":35,"time_elapsed":688212,"internal_node_id":"0.0-35.0"},{"result":166,"points":1,"place":2,"phase":0,"sequence":16,"prices":[163,175,186,214,176,179,187,166,153,208],"times":[1193,611,586,810,854,601,762,1023],"next_num":8,"trial_type":"ticket-choose","trial_index":36,"time_elapsed":697929,"internal_node_id":"0.0-36.0"},{"result":163,"points":2,"place":1,"phase":0,"sequence":17,"prices":[176,186,178,217,163,181,187,166,153,209],"times":[3053,646,716,707,990],"next_num":5,"trial_type":"ticket-choose","trial_index":37,"time_elapsed":706718,"internal_node_id":"0.0-37.0"},{"result":166,"points":1,"place":3,"phase":0,"sequence":18,"prices":[201,204,179,166,185,165,214,156,202,165],"times":[2109,675,722,1047],"next_num":4,"trial_type":"ticket-choose","trial_index":38,"time_elapsed":714294,"internal_node_id":"0.0-38.0"},{"result":167,"points":2,"place":1,"phase":0,"sequence":19,"prices":[178,175,186,212,167,179,187,169,209,153],"times":[818,646,553,645,2282],"next_num":5,"trial_type":"ticket-choose","trial_index":39,"time_elapsed":722440,"internal_node_id":"0.0-39.0"},{"result":163,"points":2,"place":1,"phase":0,"sequence":20,"prices":[176,187,179,209,163,180,188,165,154,208],"times":[5196,603,749,672,1192],"next_num":5,"trial_type":"ticket-choose","trial_index":40,"time_elapsed":734062,"internal_node_id":"0.0-40.0"},{"result":163,"points":1,"place":2,"phase":0,"sequence":21,"prices":[173,163,185,181,166,148,160,185,176,184],"times":[1453,1947],"next_num":2,"trial_type":"ticket-choose","trial_index":41,"time_elapsed":739449,"internal_node_id":"0.0-41.0"},{"result":152,"points":3,"place":0,"phase":0,"sequence":22,"prices":[200,180,203,152,175,170,160,154,176,191],"times":[788,739,520,1038],"next_num":4,"trial_type":"ticket-choose","trial_index":42,"time_elapsed":745057,"internal_node_id":"0.0-42.0"},{"result":161,"points":2,"place":1,"phase":0,"sequence":23,"prices":[185,179,191,165,161,173,199,150,188,168],"times":[835,571,570,1288,943],"next_num":5,"trial_type":"ticket-choose","trial_index":43,"time_elapsed":751901,"internal_node_id":"0.0-43.0"},{"result":165,"points":1,"place":2,"phase":0,"sequence":24,"prices":[199,193,169,165,202,182,151,164,176,171],"times":[833,643,767,1062],"next_num":4,"trial_type":"ticket-choose","trial_index":44,"time_elapsed":757734,"internal_node_id":"0.0-44.0"},{"result":166,"points":1,"place":2,"phase":0,"sequence":25,"prices":[165,175,186,214,177,179,187,166,153,208],"times":[995,1380,572,657,722,614,657,2177],"next_num":8,"trial_type":"ticket-choose","trial_index":45,"time_elapsed":768905,"internal_node_id":"0.0-45.0"},{"result":202,"points":0,"place":8,"phase":0,"sequence":26,"prices":[196,171,170,184,187,165,211,169,201,202],"times":[1300,674,584,586,913,1006,761,1803,751,1796],"next_num":10,"trial_type":"ticket-choose","trial_index":46,"time_elapsed":783293,"internal_node_id":"0.0-46.0"},{"result":163,"points":2,"place":1,"phase":0,"sequence":27,"prices":[163,174,186,212,176,181,187,166,153,209],"times":[875],"next_num":1,"trial_type":"ticket-choose","trial_index":47,"time_elapsed":785993,"internal_node_id":"0.0-47.0"},{"result":165,"points":3,"place":0,"phase":0,"sequence":28,"prices":[193,181,175,181,185,165,224,199,218,184],"times":[1076,537,903,585,615,885],"next_num":6,"trial_type":"ticket-choose","trial_index":48,"time_elapsed":793417,"internal_node_id":"0.0-48.0"},{"result":143,"points":3,"place":0,"phase":0,"sequence":29,"prices":[167,153,172,185,195,143,184,211,177,227],"times":[1358,422,692,584,897,959],"next_num":6,"trial_type":"ticket-choose","trial_index":49,"time_elapsed":801157,"internal_node_id":"0.0-49.0"},{"result":165,"points":2,"place":1,"phase":0,"sequence":30,"prices":[177,175,187,209,165,180,188,165,154,208],"times":[1234,628,587,629,1063],"next_num":5,"trial_type":"ticket-choose","trial_index":50,"time_elapsed":807950,"internal_node_id":"0.0-50.0"},{"result":165,"points":3,"place":0,"phase":0,"sequence":31,"prices":[189,167,180,197,165,168,172,213,178,171],"times":[928,646,595,618,837],"next_num":5,"trial_type":"ticket-choose","trial_index":51,"time_elapsed":814206,"internal_node_id":"0.0-51.0"},{"result":165,"points":3,"place":0,"phase":0,"sequence":32,"prices":[192,172,171,178,188,165,217,168,195,197],"times":[1103,538,541,690,587,1035],"next_num":6,"trial_type":"ticket-choose","trial_index":52,"time_elapsed":821542,"internal_node_id":"0.0-52.0"},{"result":158,"points":2,"place":1,"phase":0,"sequence":33,"prices":[177,175,186,209,158,181,188,167,208,154],"times":[909,733,843,641,947],"next_num":5,"trial_type":"ticket-choose","trial_index":53,"time_elapsed":828458,"internal_node_id":"0.0-53.0"},{"result":164,"points":3,"place":0,"phase":0,"sequence":34,"prices":[199,191,188,174,167,193,189,164,176,170],"times":[673,551,570,612,945,733,793,1021],"next_num":8,"trial_type":"ticket-choose","trial_index":54,"time_elapsed":837786,"internal_node_id":"0.0-54.0"},{"result":168,"points":1,"place":2,"phase":0,"sequence":35,"prices":[178,175,185,215,167,181,186,168,208,156],"times":[1134,558,569,597,1366,630,836,961],"next_num":8,"trial_type":"ticket-choose","trial_index":55,"time_elapsed":847838,"internal_node_id":"0.0-55.0"},{"result":165,"points":2,"place":1,"phase":0,"sequence":36,"prices":[183,179,188,165,168,173,205,159,187,191],"times":[1147,1002,690,947],"next_num":4,"trial_type":"ticket-choose","trial_index":56,"time_elapsed":854108,"internal_node_id":"0.0-56.0"},{"result":165,"points":2,"place":1,"phase":0,"sequence":37,"prices":[177,175,186,210,165,179,187,166,153,208],"times":[1079,668,915,569,853],"next_num":5,"trial_type":"ticket-choose","trial_index":57,"time_elapsed":860826,"internal_node_id":"0.0-57.0"},{"result":163,"points":2,"place":1,"phase":0,"sequence":38,"prices":[163,175,187,209,176,180,188,165,154,208],"times":[954],"next_num":1,"trial_type":"ticket-choose","trial_index":58,"time_elapsed":863554,"internal_node_id":"0.0-58.0"},{"result":159,"points":1,"place":2,"phase":0,"sequence":39,"prices":[181,159,149,175,185,151,163,174,178,207],"times":[1822,912],"next_num":2,"trial_type":"ticket-choose","trial_index":59,"time_elapsed":868234,"internal_node_id":"0.0-59.0"},{"result":147,"points":3,"place":0,"phase":0,"sequence":40,"prices":[181,214,169,147,182,193,178,184,176,179],"times":[906,643,783,957],"next_num":4,"trial_type":"ticket-choose","trial_index":60,"time_elapsed":873934,"internal_node_id":"0.0-60.0"},{"result":168,"points":1,"place":2,"phase":0,"sequence":41,"prices":[167,175,185,224,178,181,186,168,208,156],"times":[787,687,497,583,690,808,690,798],"next_num":8,"trial_type":"ticket-choose","trial_index":61,"time_elapsed":882650,"internal_node_id":"0.0-61.0"},{"result":161,"points":1,"place":2,"phase":0,"sequence":42,"prices":[190,150,175,161,188,207,157,194,178,199],"times":[1089,553,1023,1004],"next_num":4,"trial_type":"ticket-choose","trial_index":62,"time_elapsed":888875,"internal_node_id":"0.0-62.0"},{"result":169,"points":1,"place":3,"phase":0,"sequence":43,"prices":[200,173,182,169,207,165,152,202,161,204],"times":[1017,914,596,828],"next_num":4,"trial_type":"ticket-choose","trial_index":63,"time_elapsed":894666,"internal_node_id":"0.0-63.0"},{"result":186,"points":1,"place":4,"phase":0,"sequence":44,"prices":[220,173,201,197,169,205,198,183,178,186],"times":[806,762,543,691,1167,705,750,761,645,1007],"next_num":10,"trial_type":"ticket-choose","trial_index":64,"time_elapsed":906890,"internal_node_id":"0.0-64.0"},{"result":165,"points":2,"place":1,"phase":0,"sequence":45,"prices":[193,174,224,165,187,190,224,161,194,195],"times":[1990,706,526,779],"next_num":4,"trial_type":"ticket-choose","trial_index":65,"time_elapsed":913190,"internal_node_id":"0.0-65.0"},{"result":168,"points":1,"place":2,"phase":0,"sequence":46,"prices":[167,174,186,211,178,181,188,168,208,156],"times":[728,330,766,658,629,678,613,869],"next_num":8,"trial_type":"ticket-choose","trial_index":66,"time_elapsed":921678,"internal_node_id":"0.0-66.0"},{"result":158,"points":2,"place":1,"phase":0,"sequence":47,"prices":[177,175,186,221,158,180,187,166,209,153],"times":[1076,598,705,794,751],"next_num":5,"trial_type":"ticket-choose","trial_index":67,"time_elapsed":928430,"internal_node_id":"0.0-67.0"},{"result":166,"points":1,"place":2,"phase":0,"sequence":48,"prices":[165,174,186,212,177,181,187,166,153,209],"times":[1091,599,585,568,526,585,600,1022],"next_num":8,"trial_type":"ticket-choose","trial_index":68,"time_elapsed":937159,"internal_node_id":"0.0-68.0"},{"result":158,"points":2,"place":1,"phase":0,"sequence":49,"prices":[158,176,187,210,177,181,187,165,208,153],"times":[1903],"next_num":1,"trial_type":"ticket-choose","trial_index":69,"time_elapsed":941152,"internal_node_id":"0.0-69.0"},{"responses":[{"value":8,"offby":7,"category":"$115 - $130","category_index":0},{"value":10,"offby":5,"category":"$131 - $145","category_index":1},{"value":12,"offby":0,"category":"$146 - $160","category_index":2},{"value":18,"offby":-4,"category":"$161 - $175","category_index":3},{"value":25,"offby":-9,"category":"$176 - $190","category_index":4},{"value":20,"offby":5,"category":"$191 - $205","category_index":5},{"value":7,"offby":-4,"category":"$206 - $220","category_index":6}],"phase":1,"number":1,"trial_type":"bar-choose","trial_index":70,"time_elapsed":987173,"internal_node_id":"0.0-70.0"},{"rt":10989,"url":"\/christiane\/tickets\/utils\/testing2.html","trial_type":"point_update","trial_index":71,"time_elapsed":999424,"internal_node_id":"0.0-71.0"},{"phase":1,"order":[18,15,3,38,31,23,2,46,34,41,11,7,36,43,30,19,12,17,25,5,16,49,47,29,37,6,28,14,24,35,10,39,27,22,45,4,33,9,13,44,48,1,40,26,42,32,0,21,8,20],"trial_type":"store_order","trial_index":72,"time_elapsed":1000430,"internal_node_id":"0.0-72.0"},{"result":165,"points":3,"place":0,"phase":1,"sequence":0,"prices":[191,172,169,175,182,203,170,195,165,176],"times":[1273,3819,1531,1228,918,840,1032,781,1035],"next_num":9,"trial_type":"ticket-choose","trial_index":73,"time_elapsed":1016943,"internal_node_id":"0.0-73.0"},{"result":165,"points":2,"place":1,"phase":1,"sequence":1,"prices":[188,200,165,172,198,174,177,154,177,180],"times":[1087,1398,1050],"next_num":3,"trial_type":"ticket-choose","trial_index":74,"time_elapsed":1022674,"internal_node_id":"0.0-74.0"},{"result":165,"points":2,"place":1,"phase":1,"sequence":2,"prices":[174,186,165,212,181,187,177,167,153,209],"times":[836,765,989],"next_num":3,"trial_type":"ticket-choose","trial_index":75,"time_elapsed":1027442,"internal_node_id":"0.0-75.0"},{"result":159,"points":1,"place":2,"phase":1,"sequence":3,"prices":[180,159,149,175,185,141,163,174,178,207],"times":[700,957],"next_num":2,"trial_type":"ticket-choose","trial_index":76,"time_elapsed":1031031,"internal_node_id":"0.0-76.0"},{"result":166,"points":1,"place":2,"phase":1,"sequence":4,"prices":[175,187,165,209,180,188,177,166,154,208],"times":[1208,642,796,835,674,783,673,886],"next_num":8,"trial_type":"ticket-choose","trial_index":77,"time_elapsed":1043136,"internal_node_id":"0.0-77.0"},{"result":166,"points":1,"place":2,"phase":1,"sequence":5,"prices":[175,186,163,214,179,187,176,166,153,208],"times":[1028,527,823,602,688,614,721,881],"next_num":8,"trial_type":"ticket-choose","trial_index":78,"time_elapsed":1052374,"internal_node_id":"0.0-78.0"},{"result":169,"points":2,"place":1,"phase":1,"sequence":6,"prices":[181,215,169,147,182,193,177,184,176,179],"times":[8934,508,793],"next_num":3,"trial_type":"ticket-choose","trial_index":79,"time_elapsed":1064808,"internal_node_id":"0.0-79.0"},{"result":155,"points":2,"place":1,"phase":1,"sequence":7,"prices":[181,155,148,161,168,187,172,199,176,194],"times":[1494,853],"next_num":2,"trial_type":"ticket-choose","trial_index":80,"time_elapsed":1069159,"internal_node_id":"0.0-80.0"},{"result":185,"points":1,"place":4,"phase":1,"sequence":8,"prices":[196,165,170,184,187,211,171,201,202,185],"times":[773,974,441,505,511,671,704,630,642,993],"next_num":10,"trial_type":"ticket-choose","trial_index":81,"time_elapsed":1079777,"internal_node_id":"0.0-81.0"},{"result":158,"points":2,"place":1,"phase":1,"sequence":9,"prices":[176,187,177,225,181,187,158,165,208,153],"times":[758,557,508,538,779,748,840],"next_num":7,"trial_type":"ticket-choose","trial_index":82,"time_elapsed":1087502,"internal_node_id":"0.0-82.0"},{"result":163,"points":1,"place":2,"phase":1,"sequence":10,"prices":[183,163,185,180,166,148,160,186,176,184],"times":[7918,1107],"next_num":2,"trial_type":"ticket-choose","trial_index":83,"time_elapsed":1098560,"internal_node_id":"0.0-83.0"},{"result":167,"points":2,"place":1,"phase":1,"sequence":11,"prices":[174,186,178,217,181,188,167,168,208,156],"times":[830,673,498,554,733,886,840],"next_num":7,"trial_type":"ticket-choose","trial_index":84,"time_elapsed":1106566,"internal_node_id":"0.0-84.0"},{"result":165,"points":2,"place":1,"phase":1,"sequence":12,"prices":[175,186,177,210,179,187,165,166,153,208],"times":[1026,798,476,510,1083,732,885],"next_num":7,"trial_type":"ticket-choose","trial_index":85,"time_elapsed":1115058,"internal_node_id":"0.0-85.0"},{"result":167,"points":2,"place":1,"phase":1,"sequence":13,"prices":[175,185,178,215,181,186,167,168,208,156],"times":[1339,661,553,568,555,766,1709],"next_num":7,"trial_type":"ticket-choose","trial_index":86,"time_elapsed":1124163,"internal_node_id":"0.0-86.0"},{"result":167,"points":2,"place":1,"phase":1,"sequence":14,"prices":[183,182,192,168,173,205,167,187,165,170],"times":[726,537,963,1093,600,1121,904],"next_num":7,"trial_type":"ticket-choose","trial_index":87,"time_elapsed":1133103,"internal_node_id":"0.0-87.0"},{"result":163,"points":2,"place":1,"phase":1,"sequence":15,"prices":[175,187,176,209,180,188,163,165,154,208],"times":[1865,569,569,586,629,734,912],"next_num":7,"trial_type":"ticket-choose","trial_index":88,"time_elapsed":1141908,"internal_node_id":"0.0-88.0"},{"result":165,"points":2,"place":1,"phase":1,"sequence":16,"prices":[174,186,177,217,181,187,165,166,153,209],"times":[1660,569,494,554,604,582,960],"next_num":7,"trial_type":"ticket-choose","trial_index":89,"time_elapsed":1150264,"internal_node_id":"0.0-89.0"},{"result":163,"points":3,"place":0,"phase":1,"sequence":17,"prices":[168,199,196,198,185,195,227,163,177,166],"times":[1658,497,640,526,687,1184,690,1227],"next_num":8,"trial_type":"ticket-choose","trial_index":90,"time_elapsed":1160960,"internal_node_id":"0.0-90.0"},{"result":152,"points":3,"place":0,"phase":1,"sequence":18,"prices":[200,181,203,152,175,171,160,154,176,191],"times":[1040,600,629,1034],"next_num":4,"trial_type":"ticket-choose","trial_index":91,"time_elapsed":1166610,"internal_node_id":"0.0-91.0"},{"result":168,"points":1,"place":2,"phase":1,"sequence":19,"prices":[174,186,167,211,181,188,178,168,208,156],"times":[910,585,1213,559,1049,477,1083,942],"next_num":8,"trial_type":"ticket-choose","trial_index":92,"time_elapsed":1176500,"internal_node_id":"0.0-92.0"},{"result":158,"points":2,"place":1,"phase":1,"sequence":20,"prices":[175,186,177,221,180,187,158,166,209,153],"times":[771,1155,510,690,596,678,809],"next_num":7,"trial_type":"ticket-choose","trial_index":93,"time_elapsed":1184598,"internal_node_id":"0.0-93.0"},{"result":165,"points":2,"place":1,"phase":1,"sequence":21,"prices":[175,186,165,214,179,187,177,166,153,208],"times":[577,467,763],"next_num":3,"trial_type":"ticket-choose","trial_index":94,"time_elapsed":1188570,"internal_node_id":"0.0-94.0"},{"result":163,"points":2,"place":1,"phase":1,"sequence":22,"prices":[174,186,163,212,181,187,176,166,153,209],"times":[1748,930,886],"next_num":3,"trial_type":"ticket-choose","trial_index":95,"time_elapsed":1194332,"internal_node_id":"0.0-95.0"},{"result":167,"points":2,"place":1,"phase":1,"sequence":23,"prices":[175,185,167,224,181,186,178,168,208,156],"times":[892,512,808],"next_num":3,"trial_type":"ticket-choose","trial_index":96,"time_elapsed":1198591,"internal_node_id":"0.0-96.0"},{"result":167,"points":2,"place":1,"phase":1,"sequence":24,"prices":[175,186,178,212,179,187,167,169,209,153],"times":[712,508,499,555,553,526,959],"next_num":7,"trial_type":"ticket-choose","trial_index":97,"time_elapsed":1205806,"internal_node_id":"0.0-97.0"},{"result":186,"points":1,"place":4,"phase":1,"sequence":25,"prices":[192,165,171,178,188,217,172,195,197,186],"times":[758,435,477,509,544,568,1032,781,976,855],"next_num":10,"trial_type":"ticket-choose","trial_index":98,"time_elapsed":1216486,"internal_node_id":"0.0-98.0"},{"result":163,"points":2,"place":1,"phase":1,"sequence":26,"prices":[175,187,163,209,180,188,176,165,154,208],"times":[696,644,810],"next_num":3,"trial_type":"ticket-choose","trial_index":99,"time_elapsed":1220714,"internal_node_id":"0.0-99.0"},{"result":163,"points":2,"place":1,"phase":1,"sequence":27,"prices":[175,186,176,210,179,187,163,166,153,208],"times":[597,601,584,537,603,613,793],"next_num":7,"trial_type":"ticket-choose","trial_index":100,"time_elapsed":1227931,"internal_node_id":"0.0-100.0"},{"result":167,"points":2,"place":1,"phase":1,"sequence":28,"prices":[189,167,180,197,165,168,172,213,178,171],"times":[1525,837],"next_num":2,"trial_type":"ticket-choose","trial_index":101,"time_elapsed":1232402,"internal_node_id":"0.0-101.0"},{"result":158,"points":3,"place":0,"phase":1,"sequence":29,"prices":[210,184,226,193,215,158,199,175,176,208],"times":[1556,552,542,672,646,1094],"next_num":6,"trial_type":"ticket-choose","trial_index":102,"time_elapsed":1240814,"internal_node_id":"0.0-102.0"},{"result":158,"points":2,"place":1,"phase":1,"sequence":30,"prices":[175,186,158,211,180,187,177,166,209,153],"times":[1045,733,1020],"next_num":3,"trial_type":"ticket-choose","trial_index":103,"time_elapsed":1245794,"internal_node_id":"0.0-103.0"},{"result":178,"points":1,"place":2,"phase":1,"sequence":31,"prices":[201,187,157,184,198,179,188,185,178,170],"times":[851,645,504,869,901,597,914,1142,989],"next_num":9,"trial_type":"ticket-choose","trial_index":104,"time_elapsed":1256699,"internal_node_id":"0.0-104.0"},{"result":158,"points":2,"place":1,"phase":1,"sequence":32,"prices":[175,186,177,209,181,188,158,167,208,154],"times":[967,557,1532,552,766,510,732],"next_num":7,"trial_type":"ticket-choose","trial_index":105,"time_elapsed":1265356,"internal_node_id":"0.0-105.0"},{"result":168,"points":1,"place":2,"phase":1,"sequence":33,"prices":[168,154,172,185,195,144,184,211,177,227],"times":[1300],"next_num":1,"trial_type":"ticket-choose","trial_index":106,"time_elapsed":1268534,"internal_node_id":"0.0-106.0"},{"result":169,"points":1,"place":3,"phase":1,"sequence":34,"prices":[198,193,169,163,202,182,152,164,177,171],"times":[1050,508,942],"next_num":3,"trial_type":"ticket-choose","trial_index":107,"time_elapsed":1273246,"internal_node_id":"0.0-107.0"},{"result":167,"points":2,"place":1,"phase":1,"sequence":35,"prices":[212,192,188,184,167,193,189,164,176,170],"times":[1452,657,782,582,840],"next_num":5,"trial_type":"ticket-choose","trial_index":108,"time_elapsed":1280028,"internal_node_id":"0.0-108.0"},{"result":160,"points":1,"place":2,"phase":1,"sequence":36,"prices":[189,150,175,160,188,207,158,194,178,199],"times":[1160,436,374,810],"next_num":4,"trial_type":"ticket-choose","trial_index":109,"time_elapsed":1285246,"internal_node_id":"0.0-109.0"},{"result":165,"points":2,"place":1,"phase":1,"sequence":37,"prices":[201,165,162,166,185,214,165,202,204,179],"times":[712,883],"next_num":2,"trial_type":"ticket-choose","trial_index":110,"time_elapsed":1288906,"internal_node_id":"0.0-110.0"},{"result":169,"points":2,"place":1,"phase":1,"sequence":38,"prices":[193,169,171,187,190,224,174,194,165,188],"times":[639,803],"next_num":2,"trial_type":"ticket-choose","trial_index":111,"time_elapsed":1292251,"internal_node_id":"0.0-111.0"},{"result":163,"points":2,"place":1,"phase":1,"sequence":39,"prices":[174,186,176,217,181,187,163,166,153,209],"times":[577,559,642,647,586,596,738],"next_num":7,"trial_type":"ticket-choose","trial_index":112,"time_elapsed":1299435,"internal_node_id":"0.0-112.0"},{"result":158,"points":2,"place":1,"phase":1,"sequence":40,"prices":[175,186,158,209,181,188,177,167,208,154],"times":[759,2144,795],"next_num":3,"trial_type":"ticket-choose","trial_index":113,"time_elapsed":1305354,"internal_node_id":"0.0-113.0"},{"result":165,"points":2,"place":1,"phase":1,"sequence":41,"prices":[175,187,177,209,180,188,165,165,154,208],"times":[927,613,704,631,642,675,959],"next_num":7,"trial_type":"ticket-choose","trial_index":114,"time_elapsed":1313400,"internal_node_id":"0.0-114.0"},{"result":165,"points":2,"place":1,"phase":1,"sequence":42,"prices":[200,165,165,173,182,207,161,202,204,180],"times":[942,854],"next_num":2,"trial_type":"ticket-choose","trial_index":115,"time_elapsed":1317103,"internal_node_id":"0.0-115.0"},{"result":143,"points":3,"place":0,"phase":1,"sequence":43,"prices":[222,173,202,197,143,205,198,183,178,186],"times":[865,552,601,706,837],"next_num":5,"trial_type":"ticket-choose","trial_index":116,"time_elapsed":1323150,"internal_node_id":"0.0-116.0"},{"result":165,"points":3,"place":0,"phase":1,"sequence":44,"prices":[185,170,182,201,173,199,171,188,165,168],"times":[1075,613,603,715,630,602,823,736,851],"next_num":9,"trial_type":"ticket-choose","trial_index":117,"time_elapsed":1333221,"internal_node_id":"0.0-117.0"},{"result":155,"points":2,"place":1,"phase":1,"sequence":45,"prices":[201,207,155,158,156,165,167,135,178,177],"times":[1109,1397,1035],"next_num":3,"trial_type":"ticket-choose","trial_index":118,"time_elapsed":1338974,"internal_node_id":"0.0-118.0"},{"result":167,"points":2,"place":1,"phase":1,"sequence":46,"prices":[175,186,167,225,179,187,178,169,209,153],"times":[594,736,779],"next_num":3,"trial_type":"ticket-choose","trial_index":119,"time_elapsed":1343174,"internal_node_id":"0.0-119.0"},{"result":167,"points":1,"place":2,"phase":1,"sequence":47,"prices":[171,203,175,170,167,220,192,186,165,165],"times":[687,657,928,647,706],"next_num":5,"trial_type":"ticket-choose","trial_index":120,"time_elapsed":1349322,"internal_node_id":"0.0-120.0"},{"result":165,"points":3,"place":0,"phase":1,"sequence":48,"prices":[193,165,175,181,185,224,180,199,218,184],"times":[498,731],"next_num":2,"trial_type":"ticket-choose","trial_index":121,"time_elapsed":1352562,"internal_node_id":"0.0-121.0"},{"result":158,"points":2,"place":1,"phase":1,"sequence":49,"prices":[176,187,158,210,181,187,177,165,208,153],"times":[610,737,749],"next_num":3,"trial_type":"ticket-choose","trial_index":122,"time_elapsed":1357258,"internal_node_id":"0.0-122.0"},{"responses":[{"value":5,"offby":4,"category":"$115 - $130","category_index":0},{"value":11,"offby":6,"category":"$131 - $145","category_index":1},{"value":15,"offby":3,"category":"$146 - $160","category_index":2},{"value":20,"offby":-2,"category":"$161 - $175","category_index":3},{"value":30,"offby":-4,"category":"$176 - $190","category_index":4},{"value":13,"offby":-2,"category":"$191 - $205","category_index":5},{"value":6,"offby":-5,"category":"$206 - $220","category_index":6}],"phase":1,"number":1,"trial_type":"bar-choose","trial_index":123,"time_elapsed":1392842,"internal_node_id":"0.0-123.0"},{"special_comment":"I knew that anything about 170 wouldn't be the lowest.","trial_type":"special_sequence","trial_index":124,"time_elapsed":1410149,"internal_node_id":"0.0-124.0"},{"during":"Nothing","bonus":248,"trial_type":"final","trial_index":125,"time_elapsed":1427235,"internal_node_id":"0.0-125.0"}],"bonus":248}