{"start_time":"2017-05-24 12:57:25","end_time":"2017-05-24 13:29:15","points_phase0":111,"points_phase1":122,"phase_order":0,"age":30,"gender":"f","tries":2,"during":"Nothing","worker_id":"A3843S9LWPDN2K","assignment_id":"3CPLWGV3MPSEP8QS32YI2CDY2VM9NY","data":[{"rt":127668,"url":"\/christiane\/tickets\/utils\/consent.html","trial_type":"html","trial_index":0,"time_elapsed":127794,"internal_node_id":"0.0-0.0"},{"age":30,"gender":"f","trial_type":"age","trial_index":1,"time_elapsed":135795,"internal_node_id":"0.0-1.0"},{"worker_id":"A3843S9LWPDN2K","trial_type":"workerid","trial_index":2,"time_elapsed":145000,"internal_node_id":"0.0-2.0"},{"tries":2,"trial_type":"instructions_check","trial_index":3,"time_elapsed":244224,"internal_node_id":"0.0-3.0"},{"rt":9877,"url":"\/christiane\/tickets\/utils\/start.html","trial_type":"html","trial_index":4,"time_elapsed":255327,"internal_node_id":"0.0-4.0"},{"trial_type":"number-animation","trial_index":5,"time_elapsed":290895,"internal_node_id":"0.0-5.0"},{"phase":0,"sequence":0,"avg":181,"response":170,"trial_type":"training_avg","trial_index":6,"time_elapsed":310431,"internal_node_id":"0.0-6.0"},{"trial_type":"number-animation","trial_index":7,"time_elapsed":330320,"internal_node_id":"0.0-7.0"},{"phase":0,"sequence":1,"avg":188,"response":175,"trial_type":"training_avg","trial_index":8,"time_elapsed":341031,"internal_node_id":"0.0-8.0"},{"trial_type":"number-animation","trial_index":9,"time_elapsed":359959,"internal_node_id":"0.0-9.0"},{"phase":0,"sequence":2,"avg":188,"response":185,"trial_type":"training_avg","trial_index":10,"time_elapsed":368856,"internal_node_id":"0.0-10.0"},{"trial_type":"number-animation","trial_index":11,"time_elapsed":393422,"internal_node_id":"0.0-11.0"},{"phase":0,"sequence":3,"avg":177,"response":185,"trial_type":"training_avg","trial_index":12,"time_elapsed":402144,"internal_node_id":"0.0-12.0"},{"trial_type":"number-animation","trial_index":13,"time_elapsed":429079,"internal_node_id":"0.0-13.0"},{"phase":0,"sequence":4,"avg":182,"response":180,"trial_type":"training_avg","trial_index":14,"time_elapsed":439104,"internal_node_id":"0.0-14.0"},{"responses":[{"value":0,"offby":-1,"category":"$115 - $130","category_index":0},{"value":10,"offby":5,"category":"$131 - $145","category_index":1},{"value":10,"offby":-2,"category":"$146 - $160","category_index":2},{"value":15,"offby":-7,"category":"$161 - $175","category_index":3},{"value":15,"offby":-19,"category":"$176 - $190","category_index":4},{"value":15,"offby":0,"category":"$191 - $205","category_index":5},{"value":35,"offby":24,"category":"$206 - $220","category_index":6}],"phase":0,"number":0,"trial_type":"bar-choose","trial_index":15,"time_elapsed":547564,"internal_node_id":"0.0-15.0"},{"rt":20554,"url":"\/christiane\/tickets\/utils\/testing.html","trial_type":"html","trial_index":16,"time_elapsed":569319,"internal_node_id":"0.0-16.0"},{"phase":0,"order":[31,37,17,7,36,44,1,19,20,34,18,33,41,14,32,35,4,27,42,6,40,0,39,13,23,15,47,22,16,5,12,9,28,10,8,21,2,46,29,26,43,30,25,49,3,48,11,45,24,38],"trial_type":"store_order","trial_index":17,"time_elapsed":570321,"internal_node_id":"0.0-17.0"},{"result":146,"points":3,"place":0,"phase":0,"sequence":-1,"prices":[184,180,224,165,181,199,185,193,218,146],"times":[2584,1653,1382,2973,1367,843,724,757,747,1965],"next_num":10,"trial_type":"ticket-choose","trial_index":18,"time_elapsed":600585,"internal_node_id":"0.0-18.0"},{"rt":46616,"url":"\/christiane\/tickets\/utils\/testing_after.html","trial_type":"html","trial_index":19,"time_elapsed":648297,"internal_node_id":"0.0-19.0"},{"result":171,"points":1,"place":4,"phase":0,"sequence":0,"prices":[171,203,175,170,167,220,192,186,165,165],"times":[2204],"next_num":1,"trial_type":"ticket-choose","trial_index":20,"time_elapsed":654401,"internal_node_id":"0.0-20.0"},{"result":152,"points":3,"place":0,"phase":0,"sequence":1,"prices":[198,193,169,163,202,182,152,164,177,171],"times":[1338,1066,1292,1309,765,742,1382],"next_num":7,"trial_type":"ticket-choose","trial_index":21,"time_elapsed":666969,"internal_node_id":"0.0-21.0"},{"result":163,"points":2,"place":1,"phase":0,"sequence":2,"prices":[174,186,176,217,181,187,163,166,153,209],"times":[1131,647,804,646,751,630,1469],"next_num":7,"trial_type":"ticket-choose","trial_index":22,"time_elapsed":679777,"internal_node_id":"0.0-22.0"},{"result":166,"points":1,"place":2,"phase":0,"sequence":3,"prices":[175,187,165,209,180,188,177,166,154,208],"times":[1349,637,845,686,675,1157,894,1434],"next_num":8,"trial_type":"ticket-choose","trial_index":23,"time_elapsed":692519,"internal_node_id":"0.0-23.0"},{"result":154,"points":3,"place":0,"phase":0,"sequence":4,"prices":[188,200,165,172,198,174,177,154,177,180],"times":[1186,757,896,683,638,893,950,988],"next_num":8,"trial_type":"ticket-choose","trial_index":24,"time_elapsed":708423,"internal_node_id":"0.0-24.0"},{"result":159,"points":1,"place":2,"phase":0,"sequence":5,"prices":[180,159,149,175,185,141,163,174,178,207],"times":[1258,1262],"next_num":2,"trial_type":"ticket-choose","trial_index":25,"time_elapsed":714240,"internal_node_id":"0.0-25.0"},{"result":156,"points":3,"place":0,"phase":0,"sequence":6,"prices":[175,185,167,224,181,186,178,168,208,156],"times":[1114,709,1029,651,711,614,606,1837,668,1765],"next_num":10,"trial_type":"ticket-choose","trial_index":26,"time_elapsed":731719,"internal_node_id":"0.0-26.0"},{"result":158,"points":2,"place":1,"phase":0,"sequence":7,"prices":[175,186,158,209,181,188,177,167,208,154],"times":[1195,573,1221],"next_num":3,"trial_type":"ticket-choose","trial_index":27,"time_elapsed":737849,"internal_node_id":"0.0-27.0"},{"result":158,"points":2,"place":1,"phase":0,"sequence":8,"prices":[176,187,158,210,181,187,177,165,208,153],"times":[1082,588,2149],"next_num":3,"trial_type":"ticket-choose","trial_index":28,"time_elapsed":749776,"internal_node_id":"0.0-28.0"},{"result":155,"points":2,"place":1,"phase":0,"sequence":9,"prices":[181,155,148,161,168,187,172,199,176,194],"times":[1204,2662],"next_num":2,"trial_type":"ticket-choose","trial_index":29,"time_elapsed":756426,"internal_node_id":"0.0-29.0"},{"result":153,"points":3,"place":0,"phase":0,"sequence":10,"prices":[175,186,158,211,180,187,177,166,209,153],"times":[1491,867,1093,586,605,687,860,1677,597,1550],"next_num":10,"trial_type":"ticket-choose","trial_index":30,"time_elapsed":771328,"internal_node_id":"0.0-30.0"},{"result":165,"points":3,"place":0,"phase":0,"sequence":11,"prices":[183,182,192,168,173,205,167,187,165,170],"times":[1065,558,639,579,661,725,853,645,1381],"next_num":9,"trial_type":"ticket-choose","trial_index":31,"time_elapsed":786225,"internal_node_id":"0.0-31.0"},{"result":155,"points":2,"place":1,"phase":0,"sequence":12,"prices":[201,207,155,158,156,165,167,135,178,177],"times":[1453,611,1606],"next_num":3,"trial_type":"ticket-choose","trial_index":32,"time_elapsed":792952,"internal_node_id":"0.0-32.0"},{"result":153,"points":3,"place":0,"phase":0,"sequence":13,"prices":[174,186,163,212,181,187,176,166,153,209],"times":[1022,539,829,596,815,658,615,2446,1167],"next_num":9,"trial_type":"ticket-choose","trial_index":33,"time_elapsed":808111,"internal_node_id":"0.0-33.0"},{"result":165,"points":3,"place":0,"phase":0,"sequence":14,"prices":[193,169,171,187,190,224,174,194,165,188],"times":[1250,501,517,525,557,605,774,715,1398],"next_num":9,"trial_type":"ticket-choose","trial_index":34,"time_elapsed":819535,"internal_node_id":"0.0-34.0"},{"result":154,"points":2,"place":1,"phase":0,"sequence":15,"prices":[168,154,172,185,195,144,184,211,177,227],"times":[1141,1068],"next_num":2,"trial_type":"ticket-choose","trial_index":35,"time_elapsed":824192,"internal_node_id":"0.0-35.0"},{"result":156,"points":3,"place":0,"phase":0,"sequence":16,"prices":[175,185,178,215,181,186,167,168,208,156],"times":[763,550,557,557,701,628,1709,1197,709,1062],"next_num":10,"trial_type":"ticket-choose","trial_index":36,"time_elapsed":838584,"internal_node_id":"0.0-36.0"},{"result":186,"points":1,"place":4,"phase":0,"sequence":17,"prices":[192,165,171,178,188,217,172,195,197,186],"times":[1541,502,495,494,588,687,647,678,595,1997],"next_num":10,"trial_type":"ticket-choose","trial_index":37,"time_elapsed":851116,"internal_node_id":"0.0-37.0"},{"result":143,"points":3,"place":0,"phase":0,"sequence":18,"prices":[222,173,202,197,143,205,198,183,178,186],"times":[767,1219,579,702,1079],"next_num":5,"trial_type":"ticket-choose","trial_index":38,"time_elapsed":860592,"internal_node_id":"0.0-38.0"},{"result":166,"points":1,"place":2,"phase":0,"sequence":19,"prices":[175,186,165,214,179,187,177,166,153,208],"times":[841,509,575,547,582,757,623,1107],"next_num":8,"trial_type":"ticket-choose","trial_index":39,"time_elapsed":869935,"internal_node_id":"0.0-39.0"},{"result":150,"points":3,"place":0,"phase":0,"sequence":20,"prices":[189,150,175,160,188,207,158,194,178,199],"times":[836,1102],"next_num":2,"trial_type":"ticket-choose","trial_index":40,"time_elapsed":874208,"internal_node_id":"0.0-40.0"},{"result":156,"points":3,"place":0,"phase":0,"sequence":21,"prices":[174,186,167,211,181,188,178,168,208,156],"times":[828,653,977,571,607,589,711,844,655,933],"next_num":10,"trial_type":"ticket-choose","trial_index":41,"time_elapsed":886711,"internal_node_id":"0.0-41.0"},{"result":171,"points":1,"place":3,"phase":0,"sequence":22,"prices":[189,167,180,197,165,168,172,213,178,171],"times":[1579,493,534,581,1782,766,637,630,717,1149],"next_num":10,"trial_type":"ticket-choose","trial_index":42,"time_elapsed":902167,"internal_node_id":"0.0-42.0"},{"result":165,"points":1,"place":2,"phase":0,"sequence":23,"prices":[175,187,163,209,180,188,176,165,154,208],"times":[1285,588,1006,549,567,693,653,1046],"next_num":8,"trial_type":"ticket-choose","trial_index":43,"time_elapsed":913024,"internal_node_id":"0.0-43.0"},{"result":158,"points":2,"place":1,"phase":0,"sequence":24,"prices":[176,187,177,225,181,187,158,165,208,153],"times":[1205,870,701,966,644,599,1108],"next_num":7,"trial_type":"ticket-choose","trial_index":44,"time_elapsed":923039,"internal_node_id":"0.0-44.0"},{"result":163,"points":2,"place":1,"phase":0,"sequence":25,"prices":[175,186,176,210,179,187,163,166,153,208],"times":[4509,5843,565,646,688,539,1045],"next_num":7,"trial_type":"ticket-choose","trial_index":45,"time_elapsed":940559,"internal_node_id":"0.0-45.0"},{"result":152,"points":3,"place":0,"phase":0,"sequence":26,"prices":[200,181,203,152,175,171,160,154,176,191],"times":[2251,532,518,957],"next_num":4,"trial_type":"ticket-choose","trial_index":46,"time_elapsed":954231,"internal_node_id":"0.0-46.0"},{"result":158,"points":2,"place":1,"phase":0,"sequence":27,"prices":[175,186,177,209,181,188,158,167,208,154],"times":[1389,669,558,630,619,598,983],"next_num":7,"trial_type":"ticket-choose","trial_index":47,"time_elapsed":963288,"internal_node_id":"0.0-47.0"},{"result":154,"points":3,"place":0,"phase":0,"sequence":28,"prices":[175,187,176,209,180,188,163,165,154,208],"times":[786,486,518,573,598,725,1741,933,2141],"next_num":9,"trial_type":"ticket-choose","trial_index":48,"time_elapsed":976415,"internal_node_id":"0.0-48.0"},{"result":167,"points":2,"place":1,"phase":0,"sequence":29,"prices":[175,186,178,212,179,187,167,169,209,153],"times":[1220,573,502,653,902,759,1381],"next_num":7,"trial_type":"ticket-choose","trial_index":49,"time_elapsed":986064,"internal_node_id":"0.0-49.0"},{"result":166,"points":1,"place":2,"phase":0,"sequence":30,"prices":[175,186,163,214,179,187,176,166,153,208],"times":[852,589,1341,597,620,799,958,1359],"next_num":8,"trial_type":"ticket-choose","trial_index":50,"time_elapsed":997248,"internal_node_id":"0.0-50.0"},{"result":153,"points":3,"place":0,"phase":0,"sequence":31,"prices":[175,186,177,210,179,187,165,166,153,208],"times":[978,1439,619,598,550,615,691,1061,1221],"next_num":9,"trial_type":"ticket-choose","trial_index":51,"time_elapsed":1010375,"internal_node_id":"0.0-51.0"},{"result":185,"points":1,"place":4,"phase":0,"sequence":32,"prices":[196,165,170,184,187,211,171,201,202,185],"times":[1068,558,566,606,587,622,725,655,635,1446],"next_num":10,"trial_type":"ticket-choose","trial_index":52,"time_elapsed":1021914,"internal_node_id":"0.0-52.0"},{"result":154,"points":3,"place":0,"phase":0,"sequence":33,"prices":[175,187,177,209,180,188,165,165,154,208],"times":[1079,1502,758,742,662,645,887,1117,966],"next_num":9,"trial_type":"ticket-choose","trial_index":53,"time_elapsed":1034848,"internal_node_id":"0.0-53.0"},{"result":167,"points":1,"place":2,"phase":0,"sequence":34,"prices":[174,186,165,212,181,187,177,167,153,209],"times":[1084,535,693,662,661,1223,795,1103],"next_num":8,"trial_type":"ticket-choose","trial_index":54,"time_elapsed":1045543,"internal_node_id":"0.0-54.0"},{"result":158,"points":2,"place":1,"phase":0,"sequence":35,"prices":[175,186,177,221,180,187,158,166,209,153],"times":[1187,557,574,925,558,614,1166],"next_num":7,"trial_type":"ticket-choose","trial_index":55,"time_elapsed":1055360,"internal_node_id":"0.0-55.0"},{"result":153,"points":3,"place":0,"phase":0,"sequence":36,"prices":[175,186,167,225,179,187,178,169,209,153],"times":[5481,557,584,555,581,694,584,1628,876,1150],"next_num":10,"trial_type":"ticket-choose","trial_index":56,"time_elapsed":1076456,"internal_node_id":"0.0-56.0"},{"result":158,"points":3,"place":0,"phase":0,"sequence":37,"prices":[210,184,226,193,215,158,199,175,176,208],"times":[1239,741,1293,1856,691,1109],"next_num":6,"trial_type":"ticket-choose","trial_index":57,"time_elapsed":1087808,"internal_node_id":"0.0-57.0"},{"result":165,"points":3,"place":0,"phase":0,"sequence":38,"prices":[185,170,182,201,173,199,171,188,165,168],"times":[983,636,630,645,936,748,1325,621,1000],"next_num":9,"trial_type":"ticket-choose","trial_index":58,"time_elapsed":1099839,"internal_node_id":"0.0-58.0"},{"result":180,"points":1,"place":4,"phase":0,"sequence":39,"prices":[200,165,165,173,182,207,161,202,204,180],"times":[1250,1198,2342,646,710,2077,3453,893,637,1229],"next_num":10,"trial_type":"ticket-choose","trial_index":59,"time_elapsed":1118496,"internal_node_id":"0.0-59.0"},{"result":157,"points":3,"place":0,"phase":0,"sequence":40,"prices":[201,187,157,184,198,179,188,185,178,170],"times":[1403,597,1382],"next_num":3,"trial_type":"ticket-choose","trial_index":60,"time_elapsed":1124896,"internal_node_id":"0.0-60.0"},{"result":165,"points":3,"place":0,"phase":0,"sequence":41,"prices":[191,172,169,175,182,203,170,195,165,176],"times":[875,597,821,621,669,693,629,711,1284],"next_num":9,"trial_type":"ticket-choose","trial_index":61,"time_elapsed":1136799,"internal_node_id":"0.0-61.0"},{"result":179,"points":1,"place":4,"phase":0,"sequence":42,"prices":[201,165,162,166,185,214,165,202,204,179],"times":[782,1093,1109,663,661,806,1702,637,637,1117],"next_num":10,"trial_type":"ticket-choose","trial_index":62,"time_elapsed":1150442,"internal_node_id":"0.0-62.0"},{"result":148,"points":3,"place":0,"phase":0,"sequence":43,"prices":[183,163,185,180,166,148,160,186,176,184],"times":[3655,1087,661,633,915,1510],"next_num":6,"trial_type":"ticket-choose","trial_index":63,"time_elapsed":1162847,"internal_node_id":"0.0-63.0"},{"result":167,"points":2,"place":1,"phase":0,"sequence":44,"prices":[174,186,178,217,181,188,167,168,208,156],"times":[1247,657,646,646,784,628,1191],"next_num":7,"trial_type":"ticket-choose","trial_index":64,"time_elapsed":1172272,"internal_node_id":"0.0-64.0"},{"result":147,"points":3,"place":0,"phase":0,"sequence":45,"prices":[181,215,169,147,182,193,177,184,176,179],"times":[1047,578,630,1047],"next_num":4,"trial_type":"ticket-choose","trial_index":65,"time_elapsed":1178792,"internal_node_id":"0.0-65.0"},{"result":165,"points":2,"place":1,"phase":0,"sequence":46,"prices":[174,186,177,217,181,187,165,166,153,209],"times":[809,534,501,711,620,893,1781],"next_num":7,"trial_type":"ticket-choose","trial_index":66,"time_elapsed":1188433,"internal_node_id":"0.0-66.0"},{"result":164,"points":3,"place":0,"phase":0,"sequence":47,"prices":[212,192,188,184,167,193,189,164,176,170],"times":[759,758,638,600,1010,589,613,1023],"next_num":8,"trial_type":"ticket-choose","trial_index":67,"time_elapsed":1198631,"internal_node_id":"0.0-67.0"},{"result":184,"points":1,"place":4,"phase":0,"sequence":48,"prices":[193,165,175,181,185,224,180,199,218,184],"times":[1524,709,600,651,630,702,720,683,694,1133],"next_num":10,"trial_type":"ticket-choose","trial_index":68,"time_elapsed":1212623,"internal_node_id":"0.0-68.0"},{"result":163,"points":3,"place":0,"phase":0,"sequence":49,"prices":[168,199,196,198,185,195,227,163,177,166],"times":[979,624,677,643,717,1021,660,1231],"next_num":8,"trial_type":"ticket-choose","trial_index":69,"time_elapsed":1224688,"internal_node_id":"0.0-69.0"},{"responses":[{"value":7,"offby":6,"category":"$115 - $130","category_index":0},{"value":7,"offby":2,"category":"$131 - $145","category_index":1},{"value":13,"offby":1,"category":"$146 - $160","category_index":2},{"value":8,"offby":-14,"category":"$161 - $175","category_index":3},{"value":17,"offby":-17,"category":"$176 - $190","category_index":4},{"value":21,"offby":6,"category":"$191 - $205","category_index":5},{"value":27,"offby":16,"category":"$206 - $220","category_index":6}],"phase":1,"number":1,"trial_type":"bar-choose","trial_index":70,"time_elapsed":1292482,"internal_node_id":"0.0-70.0"},{"rt":36199,"url":"\/christiane\/tickets\/utils\/testing2.html","trial_type":"point_update","trial_index":71,"time_elapsed":1330013,"internal_node_id":"0.0-71.0"},{"phase":1,"order":[47,42,15,18,5,25,14,40,49,27,32,11,41,31,44,37,20,30,2,0,26,38,16,10,24,45,21,22,46,6,28,12,9,33,1,35,34,29,8,4,19,43,3,39,48,7,13,23,17,36],"trial_type":"store_order","trial_index":72,"time_elapsed":1331015,"internal_node_id":"0.0-72.0"},{"result":152,"points":3,"place":0,"phase":1,"sequence":0,"prices":[200,180,203,152,175,170,160,154,176,191],"times":[1789,527,605,1206],"next_num":4,"trial_type":"ticket-choose","trial_index":73,"time_elapsed":1338000,"internal_node_id":"0.0-73.0"},{"result":169,"points":3,"place":0,"phase":1,"sequence":1,"prices":[220,173,201,197,169,205,198,183,178,186],"times":[1520,621,773,543,888],"next_num":5,"trial_type":"ticket-choose","trial_index":74,"time_elapsed":1345113,"internal_node_id":"0.0-74.0"},{"result":163,"points":2,"place":1,"phase":1,"sequence":2,"prices":[176,175,186,210,163,179,187,166,153,208],"times":[769,429,448,546,1415],"next_num":5,"trial_type":"ticket-choose","trial_index":75,"time_elapsed":1351761,"internal_node_id":"0.0-75.0"},{"result":158,"points":2,"place":1,"phase":1,"sequence":3,"prices":[158,175,186,211,177,180,187,166,209,153],"times":[1160],"next_num":1,"trial_type":"ticket-choose","trial_index":76,"time_elapsed":1354904,"internal_node_id":"0.0-76.0"},{"result":153,"points":3,"place":0,"phase":1,"sequence":4,"prices":[178,175,186,212,167,179,187,169,209,153],"times":[760,464,619,734,774,564,557,854,551,932],"next_num":10,"trial_type":"ticket-choose","trial_index":77,"time_elapsed":1365544,"internal_node_id":"0.0-77.0"},{"result":166,"points":1,"place":3,"phase":1,"sequence":5,"prices":[201,204,179,166,185,165,214,156,202,165],"times":[841,483,530,1341],"next_num":4,"trial_type":"ticket-choose","trial_index":78,"time_elapsed":1371288,"internal_node_id":"0.0-78.0"},{"result":153,"points":3,"place":0,"phase":1,"sequence":6,"prices":[163,174,186,212,176,181,187,166,153,209],"times":[1144,541,526,574,501,549,568,1595,831],"next_num":9,"trial_type":"ticket-choose","trial_index":79,"time_elapsed":1381752,"internal_node_id":"0.0-79.0"},{"result":150,"points":3,"place":0,"phase":1,"sequence":7,"prices":[190,150,175,161,188,207,157,194,178,199],"times":[1003,1053],"next_num":2,"trial_type":"ticket-choose","trial_index":80,"time_elapsed":1386015,"internal_node_id":"0.0-80.0"},{"result":148,"points":3,"place":0,"phase":1,"sequence":8,"prices":[173,163,185,181,166,148,160,185,176,184],"times":[717,459,533,576,832,980],"next_num":6,"trial_type":"ticket-choose","trial_index":81,"time_elapsed":1393352,"internal_node_id":"0.0-81.0"},{"result":165,"points":3,"place":0,"phase":1,"sequence":9,"prices":[192,172,171,178,188,165,217,168,195,197],"times":[1114,496,588,630,677,1278],"next_num":6,"trial_type":"ticket-choose","trial_index":82,"time_elapsed":1401177,"internal_node_id":"0.0-82.0"},{"result":161,"points":3,"place":0,"phase":1,"sequence":10,"prices":[193,174,224,165,187,190,224,161,194,195],"times":[972,470,582,1007,513,638,870,934],"next_num":8,"trial_type":"ticket-choose","trial_index":83,"time_elapsed":1410849,"internal_node_id":"0.0-83.0"},{"result":165,"points":2,"place":1,"phase":1,"sequence":11,"prices":[177,174,186,217,165,181,187,166,153,209],"times":[1099,518,543,621,979],"next_num":5,"trial_type":"ticket-choose","trial_index":84,"time_elapsed":1417448,"internal_node_id":"0.0-84.0"},{"result":155,"points":2,"place":1,"phase":1,"sequence":12,"prices":[200,207,155,158,156,168,167,135,178,177],"times":[4286,494,1005],"next_num":3,"trial_type":"ticket-choose","trial_index":85,"time_elapsed":1425631,"internal_node_id":"0.0-85.0"},{"result":148,"points":3,"place":0,"phase":1,"sequence":13,"prices":[171,169,186,165,163,167,220,148,187,165],"times":[762,553,545,877,1204,766,583,1036],"next_num":8,"trial_type":"ticket-choose","trial_index":86,"time_elapsed":1435256,"internal_node_id":"0.0-86.0"},{"result":149,"points":3,"place":0,"phase":1,"sequence":14,"prices":[181,159,149,175,185,151,163,174,178,207],"times":[1424,749,1022],"next_num":3,"trial_type":"ticket-choose","trial_index":87,"time_elapsed":1443896,"internal_node_id":"0.0-87.0"},{"result":151,"points":3,"place":0,"phase":1,"sequence":15,"prices":[199,193,169,165,202,182,151,164,176,171],"times":[1304,611,597,1446,542,661,972],"next_num":7,"trial_type":"ticket-choose","trial_index":88,"time_elapsed":1453584,"internal_node_id":"0.0-88.0"},{"result":153,"points":3,"place":0,"phase":1,"sequence":16,"prices":[158,176,187,210,177,181,187,165,208,153],"times":[1529,509,598,565,525,612,551,565,669,901],"next_num":10,"trial_type":"ticket-choose","trial_index":89,"time_elapsed":1468578,"internal_node_id":"0.0-89.0"},{"result":165,"points":2,"place":1,"phase":1,"sequence":17,"prices":[191,170,182,165,175,182,203,157,195,200],"times":[4765,597,591,1076],"next_num":4,"trial_type":"ticket-choose","trial_index":90,"time_elapsed":1478320,"internal_node_id":"0.0-90.0"},{"result":169,"points":1,"place":2,"phase":1,"sequence":18,"prices":[167,175,186,225,178,179,187,169,209,153],"times":[1414,639,613,638,525,756,620,1317],"next_num":8,"trial_type":"ticket-choose","trial_index":91,"time_elapsed":1489770,"internal_node_id":"0.0-91.0"},{"result":168,"points":1,"place":2,"phase":1,"sequence":19,"prices":[167,174,186,211,178,181,188,168,208,156],"times":[4008,624,607,620,548,662,750,1157],"next_num":8,"trial_type":"ticket-choose","trial_index":92,"time_elapsed":1502359,"internal_node_id":"0.0-92.0"},{"result":165,"points":1,"place":2,"phase":1,"sequence":20,"prices":[200,173,182,169,207,165,152,202,161,204],"times":[789,1029,598,863,574,1133],"next_num":6,"trial_type":"ticket-choose","trial_index":93,"time_elapsed":1510400,"internal_node_id":"0.0-93.0"},{"result":163,"points":3,"place":0,"phase":1,"sequence":21,"prices":[163,199,196,199,185,195,227,163,177,166],"times":[1628,757,597,614,919,566,637,880],"next_num":8,"trial_type":"ticket-choose","trial_index":94,"time_elapsed":1520744,"internal_node_id":"0.0-94.0"},{"result":163,"points":2,"place":1,"phase":1,"sequence":22,"prices":[176,187,179,209,163,180,188,165,154,208],"times":[1011,567,797,573,1069],"next_num":5,"trial_type":"ticket-choose","trial_index":95,"time_elapsed":1527832,"internal_node_id":"0.0-95.0"},{"result":165,"points":2,"place":1,"phase":1,"sequence":23,"prices":[177,175,187,209,165,180,188,165,154,208],"times":[1145,1077,558,597,1094],"next_num":5,"trial_type":"ticket-choose","trial_index":96,"time_elapsed":1535215,"internal_node_id":"0.0-96.0"},{"result":165,"points":3,"place":0,"phase":1,"sequence":24,"prices":[193,181,175,181,185,165,224,199,218,184],"times":[776,628,653,543,597,1621],"next_num":6,"trial_type":"ticket-choose","trial_index":97,"time_elapsed":1543257,"internal_node_id":"0.0-97.0"},{"result":167,"points":2,"place":1,"phase":1,"sequence":25,"prices":[199,191,188,174,167,193,189,164,176,170],"times":[1139,509,518,750,1052],"next_num":5,"trial_type":"ticket-choose","trial_index":98,"time_elapsed":1550056,"internal_node_id":"0.0-98.0"},{"result":158,"points":2,"place":1,"phase":1,"sequence":26,"prices":[177,175,186,221,158,180,187,166,209,153],"times":[638,632,668,678,1079],"next_num":5,"trial_type":"ticket-choose","trial_index":99,"time_elapsed":1556568,"internal_node_id":"0.0-99.0"},{"result":158,"points":2,"place":1,"phase":1,"sequence":27,"prices":[177,175,186,209,158,181,188,167,208,154],"times":[2483,534,552,675,894],"next_num":5,"trial_type":"ticket-choose","trial_index":100,"time_elapsed":1564959,"internal_node_id":"0.0-100.0"},{"result":158,"points":3,"place":0,"phase":1,"sequence":28,"prices":[214,184,226,192,215,158,199,175,176,208],"times":[1025,589,565,663,1155,901],"next_num":6,"trial_type":"ticket-choose","trial_index":101,"time_elapsed":1572984,"internal_node_id":"0.0-101.0"},{"result":166,"points":1,"place":2,"phase":1,"sequence":29,"prices":[165,175,186,214,177,179,187,166,153,208],"times":[1090,572,584,598,1300,966,647,1046],"next_num":8,"trial_type":"ticket-choose","trial_index":102,"time_elapsed":1583407,"internal_node_id":"0.0-102.0"},{"result":165,"points":3,"place":0,"phase":1,"sequence":30,"prices":[196,171,170,184,187,165,211,169,201,202],"times":[929,727,747,629,569,1058],"next_num":6,"trial_type":"ticket-choose","trial_index":103,"time_elapsed":1591312,"internal_node_id":"0.0-103.0"},{"result":153,"points":3,"place":0,"phase":1,"sequence":31,"prices":[163,175,186,214,176,179,187,166,153,208],"times":[4107,1013,580,660,574,550,573,575,1031],"next_num":9,"trial_type":"ticket-choose","trial_index":104,"time_elapsed":1605415,"internal_node_id":"0.0-104.0"},{"result":153,"points":3,"place":0,"phase":1,"sequence":32,"prices":[177,175,186,210,165,179,187,166,153,208],"times":[1806,525,549,598,2093,534,644,1862,870],"next_num":9,"trial_type":"ticket-choose","trial_index":105,"time_elapsed":1619008,"internal_node_id":"0.0-105.0"},{"result":159,"points":3,"place":0,"phase":1,"sequence":33,"prices":[183,179,188,165,168,173,205,159,187,191],"times":[1148,557,528,851,934,581,667,1029],"next_num":8,"trial_type":"ticket-choose","trial_index":106,"time_elapsed":1629048,"internal_node_id":"0.0-106.0"},{"result":156,"points":3,"place":0,"phase":1,"sequence":34,"prices":[167,175,185,224,178,181,186,168,208,156],"times":[3360,611,686,605,750,1229,582,1376,580,1054],"next_num":10,"trial_type":"ticket-choose","trial_index":107,"time_elapsed":1644824,"internal_node_id":"0.0-107.0"},{"result":153,"points":2,"place":1,"phase":1,"sequence":35,"prices":[167,153,172,185,195,143,184,211,177,227],"times":[1050,1214],"next_num":2,"trial_type":"ticket-choose","trial_index":108,"time_elapsed":1649888,"internal_node_id":"0.0-108.0"},{"result":156,"points":2,"place":1,"phase":1,"sequence":36,"prices":[180,156,149,160,168,186,172,198,176,195],"times":[1355,1110],"next_num":2,"trial_type":"ticket-choose","trial_index":109,"time_elapsed":1654824,"internal_node_id":"0.0-109.0"},{"result":150,"points":3,"place":0,"phase":1,"sequence":37,"prices":[185,179,191,165,161,173,199,150,188,168],"times":[1043,531,757,853,628,599,565,1349],"next_num":8,"trial_type":"ticket-choose","trial_index":110,"time_elapsed":1665192,"internal_node_id":"0.0-110.0"},{"result":166,"points":1,"place":2,"phase":1,"sequence":38,"prices":[165,174,186,212,177,181,187,166,153,209],"times":[1471,1325,565,525,541,989,547,1110],"next_num":8,"trial_type":"ticket-choose","trial_index":111,"time_elapsed":1675928,"internal_node_id":"0.0-111.0"},{"result":156,"points":3,"place":0,"phase":1,"sequence":39,"prices":[178,175,185,215,167,181,186,168,208,156],"times":[1436,2058,565,654,597,629,766,1399,653,1014],"next_num":10,"trial_type":"ticket-choose","trial_index":112,"time_elapsed":1691824,"internal_node_id":"0.0-112.0"},{"result":154,"points":3,"place":0,"phase":1,"sequence":40,"prices":[158,175,186,209,177,181,188,167,208,154],"times":[2407,511,589,606,597,622,718,1301,845,1214],"next_num":10,"trial_type":"ticket-choose","trial_index":113,"time_elapsed":1706320,"internal_node_id":"0.0-113.0"},{"result":157,"points":3,"place":0,"phase":1,"sequence":41,"prices":[201,187,157,184,198,179,188,185,178,170],"times":[912,565,1029],"next_num":3,"trial_type":"ticket-choose","trial_index":114,"time_elapsed":1711607,"internal_node_id":"0.0-114.0"},{"result":167,"points":2,"place":1,"phase":1,"sequence":42,"prices":[178,174,186,217,167,181,188,168,208,156],"times":[810,524,575,581,1094],"next_num":5,"trial_type":"ticket-choose","trial_index":115,"time_elapsed":1718152,"internal_node_id":"0.0-115.0"},{"result":171,"points":1,"place":3,"phase":1,"sequence":43,"prices":[189,167,180,197,165,168,172,213,178,171],"times":[872,3829,605,813,598,781,608,604,670,1046],"next_num":10,"trial_type":"ticket-choose","trial_index":116,"time_elapsed":1732808,"internal_node_id":"0.0-116.0"},{"result":147,"points":3,"place":0,"phase":1,"sequence":44,"prices":[181,214,169,147,182,193,178,184,176,179],"times":[979,613,759,1068],"next_num":4,"trial_type":"ticket-choose","trial_index":117,"time_elapsed":1739137,"internal_node_id":"0.0-117.0"},{"result":154,"points":3,"place":0,"phase":1,"sequence":45,"prices":[165,175,187,209,177,180,188,167,154,208],"times":[979,732,572,653,663,644,671,1359,981],"next_num":9,"trial_type":"ticket-choose","trial_index":118,"time_elapsed":1750704,"internal_node_id":"0.0-118.0"},{"result":154,"points":3,"place":0,"phase":1,"sequence":46,"prices":[163,175,187,209,176,180,188,165,154,208],"times":[915,583,582,604,568,788,550,1157,974],"next_num":9,"trial_type":"ticket-choose","trial_index":119,"time_elapsed":1761487,"internal_node_id":"0.0-119.0"},{"result":158,"points":2,"place":1,"phase":1,"sequence":47,"prices":[177,176,187,225,158,181,187,165,208,153],"times":[1107,621,652,621,1094],"next_num":5,"trial_type":"ticket-choose","trial_index":120,"time_elapsed":1768771,"internal_node_id":"0.0-120.0"},{"result":153,"points":3,"place":0,"phase":1,"sequence":48,"prices":[176,186,178,217,163,181,187,166,153,209],"times":[1093,558,584,668,1398,614,647,1077,975],"next_num":9,"trial_type":"ticket-choose","trial_index":121,"time_elapsed":1780503,"internal_node_id":"0.0-121.0"},{"result":154,"points":3,"place":0,"phase":1,"sequence":49,"prices":[187,201,165,172,196,174,178,154,172,180],"times":[1240,798,1382,702,643,686,623,1012],"next_num":8,"trial_type":"ticket-choose","trial_index":122,"time_elapsed":1791648,"internal_node_id":"0.0-122.0"},{"responses":[{"value":1,"offby":0,"category":"$115 - $130","category_index":0},{"value":10,"offby":5,"category":"$131 - $145","category_index":1},{"value":15,"offby":3,"category":"$146 - $160","category_index":2},{"value":15,"offby":-7,"category":"$161 - $175","category_index":3},{"value":10,"offby":-24,"category":"$176 - $190","category_index":4},{"value":20,"offby":5,"category":"$191 - $205","category_index":5},{"value":29,"offby":18,"category":"$206 - $220","category_index":6}],"phase":1,"number":1,"trial_type":"bar-choose","trial_index":123,"time_elapsed":1865213,"internal_node_id":"0.0-123.0"},{"special_comment":"No, nothing.","trial_type":"special_sequence","trial_index":124,"time_elapsed":1873408,"internal_node_id":"0.0-124.0"},{"during":"Nothing","bonus":312,"trial_type":"final","trial_index":125,"time_elapsed":1907518,"internal_node_id":"0.0-125.0"}],"bonus":312}