{"start_time":"2017-05-24 15:51:43","end_time":"2017-05-24 16:30:31","points_phase0":112,"points_phase1":114,"phase_order":0,"age":27,"gender":"m","tries":1,"during":"Nothing","worker_id":"A38VOZIC9QGEGU","assignment_id":"37FMASSAYDK5Z0UY46ZMOAC74XCBID","data":[{"rt":856607,"url":"\/christiane\/tickets\/utils\/consent.html","trial_type":"html","trial_index":0,"time_elapsed":856764,"internal_node_id":"0.0-0.0"},{"age":27,"gender":"m","trial_type":"age","trial_index":1,"time_elapsed":863690,"internal_node_id":"0.0-1.0"},{"worker_id":"A38VOZIC9QGEGU","trial_type":"workerid","trial_index":2,"time_elapsed":874043,"internal_node_id":"0.0-2.0"},{"tries":1,"trial_type":"instructions_check","trial_index":3,"time_elapsed":949550,"internal_node_id":"0.0-3.0"},{"rt":9732,"url":"\/christiane\/tickets\/utils\/start.html","trial_type":"html","trial_index":4,"time_elapsed":960439,"internal_node_id":"0.0-4.0"},{"trial_type":"number-animation","trial_index":5,"time_elapsed":978449,"internal_node_id":"0.0-5.0"},{"phase":0,"sequence":0,"avg":181,"response":180,"trial_type":"training_avg","trial_index":6,"time_elapsed":988607,"internal_node_id":"0.0-6.0"},{"trial_type":"number-animation","trial_index":7,"time_elapsed":1000392,"internal_node_id":"0.0-7.0"},{"phase":0,"sequence":1,"avg":188,"response":185,"trial_type":"training_avg","trial_index":8,"time_elapsed":1011110,"internal_node_id":"0.0-8.0"},{"trial_type":"number-animation","trial_index":9,"time_elapsed":1023455,"internal_node_id":"0.0-9.0"},{"phase":0,"sequence":2,"avg":188,"response":185,"trial_type":"training_avg","trial_index":10,"time_elapsed":1032523,"internal_node_id":"0.0-10.0"},{"trial_type":"number-animation","trial_index":11,"time_elapsed":1042705,"internal_node_id":"0.0-11.0"},{"phase":0,"sequence":3,"avg":177,"response":173,"trial_type":"training_avg","trial_index":12,"time_elapsed":1052263,"internal_node_id":"0.0-12.0"},{"trial_type":"number-animation","trial_index":13,"time_elapsed":1065437,"internal_node_id":"0.0-13.0"},{"phase":0,"sequence":4,"avg":182,"response":177,"trial_type":"training_avg","trial_index":14,"time_elapsed":1075675,"internal_node_id":"0.0-14.0"},{"responses":[{"value":0,"offby":-1,"category":"$115 - $130","category_index":0},{"value":0,"offby":-5,"category":"$131 - $145","category_index":1},{"value":5,"offby":-7,"category":"$146 - $160","category_index":2},{"value":25,"offby":3,"category":"$161 - $175","category_index":3},{"value":55,"offby":21,"category":"$176 - $190","category_index":4},{"value":10,"offby":-5,"category":"$191 - $205","category_index":5},{"value":5,"offby":-6,"category":"$206 - $220","category_index":6}],"phase":0,"number":0,"trial_type":"bar-choose","trial_index":15,"time_elapsed":1144620,"internal_node_id":"0.0-15.0"},{"rt":14577,"url":"\/christiane\/tickets\/utils\/testing.html","trial_type":"html","trial_index":16,"time_elapsed":1160349,"internal_node_id":"0.0-16.0"},{"phase":0,"order":[28,16,18,4,25,47,11,46,44,41,12,3,8,45,5,36,1,15,7,34,2,35,24,23,17,26,6,30,31,27,32,10,0,43,39,13,48,22,20,9,14,33,42,19,40,21,37,29,49,38],"trial_type":"store_order","trial_index":17,"time_elapsed":1161350,"internal_node_id":"0.0-17.0"},{"result":165,"points":2,"place":1,"phase":0,"sequence":-1,"prices":[184,180,224,165,181,199,185,193,218,146],"times":[2126,1114,629,1297],"next_num":4,"trial_type":"ticket-choose","trial_index":18,"time_elapsed":1169756,"internal_node_id":"0.0-18.0"},{"rt":26363,"url":"\/christiane\/tickets\/utils\/testing_after.html","trial_type":"html","trial_index":19,"time_elapsed":1197251,"internal_node_id":"0.0-19.0"},{"result":165,"points":3,"place":0,"phase":0,"sequence":0,"prices":[196,165,170,184,187,211,171,201,202,185],"times":[1340,1104],"next_num":2,"trial_type":"ticket-choose","trial_index":20,"time_elapsed":1203039,"internal_node_id":"0.0-20.0"},{"result":163,"points":2,"place":1,"phase":0,"sequence":1,"prices":[175,187,176,209,180,188,163,165,154,208],"times":[1143,549,979,614,811,533,998],"next_num":7,"trial_type":"ticket-choose","trial_index":21,"time_elapsed":1212782,"internal_node_id":"0.0-21.0"},{"result":158,"points":2,"place":1,"phase":0,"sequence":2,"prices":[175,186,158,211,180,187,177,166,209,153],"times":[2504,607,869],"next_num":3,"trial_type":"ticket-choose","trial_index":22,"time_elapsed":1219203,"internal_node_id":"0.0-22.0"},{"result":167,"points":2,"place":1,"phase":0,"sequence":3,"prices":[175,185,178,215,181,186,167,168,208,156],"times":[1045,577,553,586,599,714,1187],"next_num":7,"trial_type":"ticket-choose","trial_index":23,"time_elapsed":1227702,"internal_node_id":"0.0-23.0"},{"result":165,"points":2,"place":1,"phase":0,"sequence":4,"prices":[201,165,162,166,185,214,165,202,204,179],"times":[1263,931],"next_num":2,"trial_type":"ticket-choose","trial_index":24,"time_elapsed":1232053,"internal_node_id":"0.0-24.0"},{"result":152,"points":3,"place":0,"phase":0,"sequence":5,"prices":[200,181,203,152,175,171,160,154,176,191],"times":[1011,618,647,885],"next_num":4,"trial_type":"ticket-choose","trial_index":25,"time_elapsed":1238670,"internal_node_id":"0.0-25.0"},{"result":165,"points":2,"place":1,"phase":0,"sequence":6,"prices":[174,186,177,217,181,187,165,166,153,209],"times":[883,618,607,660,585,668,873],"next_num":7,"trial_type":"ticket-choose","trial_index":26,"time_elapsed":1246671,"internal_node_id":"0.0-26.0"},{"result":158,"points":3,"place":0,"phase":0,"sequence":7,"prices":[210,184,226,193,215,158,199,175,176,208],"times":[1130,598,647,618,630,1038],"next_num":6,"trial_type":"ticket-choose","trial_index":27,"time_elapsed":1254518,"internal_node_id":"0.0-27.0"},{"result":159,"points":1,"place":2,"phase":0,"sequence":8,"prices":[180,159,149,175,185,141,163,174,178,207],"times":[1748,996],"next_num":2,"trial_type":"ticket-choose","trial_index":28,"time_elapsed":1259734,"internal_node_id":"0.0-28.0"},{"result":155,"points":2,"place":1,"phase":0,"sequence":9,"prices":[201,207,155,158,156,165,167,135,178,177],"times":[914,545,881],"next_num":3,"trial_type":"ticket-choose","trial_index":29,"time_elapsed":1264520,"internal_node_id":"0.0-29.0"},{"result":163,"points":2,"place":1,"phase":0,"sequence":10,"prices":[175,186,163,214,179,187,176,166,153,208],"times":[576,622,1099],"next_num":3,"trial_type":"ticket-choose","trial_index":30,"time_elapsed":1269085,"internal_node_id":"0.0-30.0"},{"result":167,"points":2,"place":1,"phase":0,"sequence":11,"prices":[174,186,178,217,181,188,167,168,208,156],"times":[509,634,598,571,616,734,919],"next_num":7,"trial_type":"ticket-choose","trial_index":31,"time_elapsed":1277136,"internal_node_id":"0.0-31.0"},{"result":165,"points":2,"place":1,"phase":0,"sequence":12,"prices":[174,186,165,212,181,187,177,167,153,209],"times":[715,585,917],"next_num":3,"trial_type":"ticket-choose","trial_index":32,"time_elapsed":1281584,"internal_node_id":"0.0-32.0"},{"result":167,"points":2,"place":1,"phase":0,"sequence":13,"prices":[212,192,188,184,167,193,189,164,176,170],"times":[1361,599,549,755,950],"next_num":5,"trial_type":"ticket-choose","trial_index":33,"time_elapsed":1288352,"internal_node_id":"0.0-33.0"},{"result":167,"points":2,"place":1,"phase":0,"sequence":14,"prices":[175,186,178,212,179,187,167,169,209,153],"times":[532,598,521,566,524,533,2208],"next_num":7,"trial_type":"ticket-choose","trial_index":34,"time_elapsed":1296968,"internal_node_id":"0.0-34.0"},{"result":165,"points":2,"place":1,"phase":0,"sequence":15,"prices":[188,200,165,172,198,174,177,154,177,180],"times":[4232,607,1026],"next_num":3,"trial_type":"ticket-choose","trial_index":35,"time_elapsed":1317199,"internal_node_id":"0.0-35.0"},{"result":167,"points":2,"place":1,"phase":0,"sequence":16,"prices":[175,185,167,224,181,186,178,168,208,156],"times":[2236,579,938],"next_num":3,"trial_type":"ticket-choose","trial_index":36,"time_elapsed":1323341,"internal_node_id":"0.0-36.0"},{"result":163,"points":2,"place":1,"phase":0,"sequence":17,"prices":[175,186,176,210,179,187,163,166,153,208],"times":[933,579,551,589,537,561,996],"next_num":7,"trial_type":"ticket-choose","trial_index":37,"time_elapsed":1331202,"internal_node_id":"0.0-37.0"},{"result":154,"points":3,"place":0,"phase":0,"sequence":18,"prices":[175,187,165,209,180,188,177,166,154,208],"times":[946,590,445,2086,548,518,792,531,881],"next_num":9,"trial_type":"ticket-choose","trial_index":38,"time_elapsed":1342004,"internal_node_id":"0.0-38.0"},{"result":161,"points":1,"place":2,"phase":0,"sequence":19,"prices":[181,155,148,161,168,187,172,199,176,194],"times":[744,515,447,1054],"next_num":4,"trial_type":"ticket-choose","trial_index":39,"time_elapsed":1347186,"internal_node_id":"0.0-39.0"},{"result":153,"points":3,"place":0,"phase":0,"sequence":20,"prices":[175,186,167,225,179,187,178,169,209,153],"times":[574,583,1152,602,515,611,680,1889,732,658],"next_num":10,"trial_type":"ticket-choose","trial_index":40,"time_elapsed":1359351,"internal_node_id":"0.0-40.0"},{"result":154,"points":2,"place":1,"phase":0,"sequence":21,"prices":[168,154,172,185,195,144,184,211,177,227],"times":[3261,964],"next_num":2,"trial_type":"ticket-choose","trial_index":41,"time_elapsed":1365921,"internal_node_id":"0.0-41.0"},{"result":184,"points":1,"place":4,"phase":0,"sequence":22,"prices":[193,165,175,181,185,224,180,199,218,184],"times":[710,664,528,581,598,678,631,652,689,857],"next_num":10,"trial_type":"ticket-choose","trial_index":42,"time_elapsed":1376567,"internal_node_id":"0.0-42.0"},{"result":158,"points":2,"place":1,"phase":0,"sequence":23,"prices":[176,187,177,225,181,187,158,165,208,153],"times":[1196,595,514,586,589,633,900],"next_num":7,"trial_type":"ticket-choose","trial_index":43,"time_elapsed":1384755,"internal_node_id":"0.0-43.0"},{"result":153,"points":3,"place":0,"phase":0,"sequence":24,"prices":[174,186,176,217,181,187,163,166,153,209],"times":[1222,716,568,564,547,502,1246,1185,715],"next_num":9,"trial_type":"ticket-choose","trial_index":44,"time_elapsed":1397586,"internal_node_id":"0.0-44.0"},{"result":161,"points":3,"place":0,"phase":0,"sequence":25,"prices":[200,165,165,173,182,207,161,202,204,180],"times":[1729,1479,416,580,647,583,883],"next_num":7,"trial_type":"ticket-choose","trial_index":45,"time_elapsed":1407036,"internal_node_id":"0.0-45.0"},{"result":153,"points":3,"place":0,"phase":0,"sequence":26,"prices":[175,186,165,214,179,187,177,166,153,208],"times":[1308,520,762,581,555,567,561,939,865],"next_num":9,"trial_type":"ticket-choose","trial_index":46,"time_elapsed":1417453,"internal_node_id":"0.0-46.0"},{"result":165,"points":3,"place":0,"phase":0,"sequence":27,"prices":[191,172,169,175,182,203,170,195,165,176],"times":[735,582,884,565,616,614,601,640,1573],"next_num":9,"trial_type":"ticket-choose","trial_index":47,"time_elapsed":1427891,"internal_node_id":"0.0-47.0"},{"result":165,"points":3,"place":0,"phase":0,"sequence":28,"prices":[171,203,175,170,167,220,192,186,165,165],"times":[1433,947,663,646,3127,944,1104,731,1197],"next_num":9,"trial_type":"ticket-choose","trial_index":48,"time_elapsed":1442404,"internal_node_id":"0.0-48.0"},{"result":186,"points":1,"place":4,"phase":0,"sequence":29,"prices":[192,165,171,178,188,217,172,195,197,186],"times":[2554,1249,1233,974,618,605,664,664,650,866],"next_num":10,"trial_type":"ticket-choose","trial_index":49,"time_elapsed":1457067,"internal_node_id":"0.0-49.0"},{"result":165,"points":3,"place":0,"phase":0,"sequence":30,"prices":[193,169,171,187,190,224,174,194,165,188],"times":[937,743,548,599,615,639,598,554,948],"next_num":9,"trial_type":"ticket-choose","trial_index":50,"time_elapsed":1467044,"internal_node_id":"0.0-50.0"},{"result":165,"points":2,"place":1,"phase":0,"sequence":31,"prices":[175,187,177,209,180,188,165,165,154,208],"times":[931,498,499,612,832,552,832],"next_num":7,"trial_type":"ticket-choose","trial_index":51,"time_elapsed":1474845,"internal_node_id":"0.0-51.0"},{"result":156,"points":3,"place":0,"phase":0,"sequence":32,"prices":[174,186,167,211,181,188,178,168,208,156],"times":[855,498,1984,569,610,584,630,1063,648,665],"next_num":10,"trial_type":"ticket-choose","trial_index":52,"time_elapsed":1486755,"internal_node_id":"0.0-52.0"},{"result":157,"points":3,"place":0,"phase":0,"sequence":33,"prices":[201,187,157,184,198,179,188,185,178,170],"times":[1165,506,834],"next_num":3,"trial_type":"ticket-choose","trial_index":53,"time_elapsed":1491423,"internal_node_id":"0.0-53.0"},{"result":167,"points":2,"place":1,"phase":0,"sequence":34,"prices":[189,167,180,197,165,168,172,213,178,171],"times":[557,817],"next_num":2,"trial_type":"ticket-choose","trial_index":54,"time_elapsed":1494919,"internal_node_id":"0.0-54.0"},{"result":163,"points":2,"place":1,"phase":0,"sequence":35,"prices":[175,187,163,209,180,188,176,165,154,208],"times":[866,1299,862],"next_num":3,"trial_type":"ticket-choose","trial_index":55,"time_elapsed":1500394,"internal_node_id":"0.0-55.0"},{"result":179,"points":1,"place":4,"phase":0,"sequence":36,"prices":[181,215,169,147,182,193,177,184,176,179],"times":[1712,598,1101,500,795,585,577,643,648,556],"next_num":10,"trial_type":"ticket-choose","trial_index":56,"time_elapsed":1511689,"internal_node_id":"0.0-56.0"},{"result":158,"points":2,"place":1,"phase":0,"sequence":37,"prices":[175,186,177,209,181,188,158,167,208,154],"times":[797,699,647,617,724,639,1057],"next_num":7,"trial_type":"ticket-choose","trial_index":57,"time_elapsed":1520054,"internal_node_id":"0.0-57.0"},{"result":158,"points":2,"place":1,"phase":0,"sequence":38,"prices":[176,187,158,210,181,187,177,165,208,153],"times":[4356,678,1001],"next_num":3,"trial_type":"ticket-choose","trial_index":58,"time_elapsed":1528402,"internal_node_id":"0.0-58.0"},{"result":153,"points":3,"place":0,"phase":0,"sequence":39,"prices":[175,186,177,210,179,187,165,166,153,208],"times":[970,614,530,583,623,623,1115,554,974],"next_num":9,"trial_type":"ticket-choose","trial_index":59,"time_elapsed":1538809,"internal_node_id":"0.0-59.0"},{"result":153,"points":3,"place":0,"phase":0,"sequence":40,"prices":[174,186,163,212,181,187,176,166,153,209],"times":[819,531,497,475,582,470,640,932,770],"next_num":9,"trial_type":"ticket-choose","trial_index":60,"time_elapsed":1548388,"internal_node_id":"0.0-60.0"},{"result":168,"points":1,"place":2,"phase":0,"sequence":41,"prices":[183,182,192,168,173,205,167,187,165,170],"times":[1726,547,550,798],"next_num":4,"trial_type":"ticket-choose","trial_index":61,"time_elapsed":1554503,"internal_node_id":"0.0-61.0"},{"result":143,"points":3,"place":0,"phase":0,"sequence":42,"prices":[222,173,202,197,143,205,198,183,178,186],"times":[802,546,648,587,898],"next_num":5,"trial_type":"ticket-choose","trial_index":62,"time_elapsed":1561154,"internal_node_id":"0.0-62.0"},{"result":167,"points":1,"place":2,"phase":0,"sequence":43,"prices":[175,186,158,209,181,188,177,167,208,154],"times":[676,663,498,700,549,598,599,985],"next_num":8,"trial_type":"ticket-choose","trial_index":63,"time_elapsed":1569668,"internal_node_id":"0.0-63.0"},{"result":158,"points":2,"place":1,"phase":0,"sequence":44,"prices":[189,150,175,160,188,207,158,194,178,199],"times":[761,503,604,1027,722,615,1181],"next_num":7,"trial_type":"ticket-choose","trial_index":64,"time_elapsed":1578186,"internal_node_id":"0.0-64.0"},{"result":158,"points":2,"place":1,"phase":0,"sequence":45,"prices":[175,186,177,221,180,187,158,166,209,153],"times":[1014,565,590,597,564,599,1091],"next_num":7,"trial_type":"ticket-choose","trial_index":65,"time_elapsed":1586385,"internal_node_id":"0.0-65.0"},{"result":163,"points":2,"place":1,"phase":0,"sequence":46,"prices":[198,193,169,163,202,182,152,164,177,171],"times":[1258,570,459,924],"next_num":4,"trial_type":"ticket-choose","trial_index":66,"time_elapsed":1593387,"internal_node_id":"0.0-66.0"},{"result":165,"points":3,"place":0,"phase":0,"sequence":47,"prices":[185,170,182,201,173,199,171,188,165,168],"times":[1417,832,497,572,616,632,600,611,1030],"next_num":9,"trial_type":"ticket-choose","trial_index":67,"time_elapsed":1603789,"internal_node_id":"0.0-67.0"},{"result":148,"points":3,"place":0,"phase":0,"sequence":48,"prices":[183,163,185,180,166,148,160,186,176,184],"times":[2175,918,714,549,864,952],"next_num":6,"trial_type":"ticket-choose","trial_index":68,"time_elapsed":1613086,"internal_node_id":"0.0-68.0"},{"result":163,"points":3,"place":0,"phase":0,"sequence":49,"prices":[168,199,196,198,185,195,227,163,177,166],"times":[1046,520,492,587,547,616,646,1099],"next_num":8,"trial_type":"ticket-choose","trial_index":69,"time_elapsed":1622802,"internal_node_id":"0.0-69.0"},{"responses":[{"value":1,"offby":0,"category":"$115 - $130","category_index":0},{"value":5,"offby":0,"category":"$131 - $145","category_index":1},{"value":9,"offby":-3,"category":"$146 - $160","category_index":2},{"value":20,"offby":-2,"category":"$161 - $175","category_index":3},{"value":35,"offby":1,"category":"$176 - $190","category_index":4},{"value":25,"offby":10,"category":"$191 - $205","category_index":5},{"value":5,"offby":-6,"category":"$206 - $220","category_index":6}],"phase":1,"number":1,"trial_type":"bar-choose","trial_index":70,"time_elapsed":1773057,"internal_node_id":"0.0-70.0"},{"rt":36933,"url":"\/christiane\/tickets\/utils\/testing2.html","trial_type":"point_update","trial_index":71,"time_elapsed":1811275,"internal_node_id":"0.0-71.0"},{"phase":1,"order":[46,41,6,39,9,25,11,23,19,29,47,49,26,20,44,32,15,10,14,30,17,12,36,3,42,38,31,5,22,13,7,0,4,40,1,28,16,37,45,2,21,43,18,33,48,34,24,27,35,8],"trial_type":"store_order","trial_index":72,"time_elapsed":1812285,"internal_node_id":"0.0-72.0"},{"result":158,"points":3,"place":0,"phase":1,"sequence":0,"prices":[214,184,226,192,215,158,199,175,176,208],"times":[806,987,665,647,598,930],"next_num":6,"trial_type":"ticket-choose","trial_index":73,"time_elapsed":1820071,"internal_node_id":"0.0-73.0"},{"result":155,"points":2,"place":1,"phase":1,"sequence":1,"prices":[200,207,155,158,156,168,167,135,178,177],"times":[764,513,883],"next_num":3,"trial_type":"ticket-choose","trial_index":74,"time_elapsed":1824356,"internal_node_id":"0.0-74.0"},{"result":153,"points":3,"place":0,"phase":1,"sequence":2,"prices":[165,175,186,214,177,179,187,166,153,208],"times":[528,515,537,647,564,563,648,985,817],"next_num":9,"trial_type":"ticket-choose","trial_index":75,"time_elapsed":1833623,"internal_node_id":"0.0-75.0"},{"result":165,"points":3,"place":0,"phase":1,"sequence":3,"prices":[189,167,180,197,165,168,172,213,178,171],"times":[3118,903,520,565,1361],"next_num":5,"trial_type":"ticket-choose","trial_index":76,"time_elapsed":1842954,"internal_node_id":"0.0-76.0"},{"result":165,"points":2,"place":1,"phase":1,"sequence":4,"prices":[177,175,186,210,165,179,187,166,153,208],"times":[2311,548,582,566,1029],"next_num":5,"trial_type":"ticket-choose","trial_index":77,"time_elapsed":1850625,"internal_node_id":"0.0-77.0"},{"result":165,"points":2,"place":1,"phase":1,"sequence":5,"prices":[201,204,179,166,185,165,214,156,202,165],"times":[528,514,493,499,2234,1059],"next_num":6,"trial_type":"ticket-choose","trial_index":78,"time_elapsed":1858858,"internal_node_id":"0.0-78.0"},{"result":165,"points":2,"place":1,"phase":1,"sequence":6,"prices":[177,174,186,217,165,181,187,166,153,209],"times":[986,575,537,613,897],"next_num":5,"trial_type":"ticket-choose","trial_index":79,"time_elapsed":1865022,"internal_node_id":"0.0-79.0"},{"result":158,"points":2,"place":1,"phase":1,"sequence":7,"prices":[177,176,187,225,158,181,187,165,208,153],"times":[464,543,682,782,1147],"next_num":5,"trial_type":"ticket-choose","trial_index":80,"time_elapsed":1871237,"internal_node_id":"0.0-80.0"},{"result":154,"points":3,"place":0,"phase":1,"sequence":8,"prices":[158,175,186,209,177,181,188,167,208,154],"times":[1390,449,1861,609,566,591,579,1076,682,701],"next_num":10,"trial_type":"ticket-choose","trial_index":81,"time_elapsed":1883921,"internal_node_id":"0.0-81.0"},{"result":165,"points":1,"place":2,"phase":1,"sequence":9,"prices":[185,179,191,165,161,173,199,150,188,168],"times":[1953,1197,564,1120],"next_num":4,"trial_type":"ticket-choose","trial_index":82,"time_elapsed":1893974,"internal_node_id":"0.0-82.0"},{"result":152,"points":3,"place":0,"phase":1,"sequence":10,"prices":[200,180,203,152,175,170,160,154,176,191],"times":[902,552,600,835],"next_num":4,"trial_type":"ticket-choose","trial_index":83,"time_elapsed":1899749,"internal_node_id":"0.0-83.0"},{"result":163,"points":1,"place":2,"phase":1,"sequence":11,"prices":[173,163,185,181,166,148,160,185,176,184],"times":[1227,879],"next_num":2,"trial_type":"ticket-choose","trial_index":84,"time_elapsed":1903881,"internal_node_id":"0.0-84.0"},{"result":165,"points":1,"place":2,"phase":1,"sequence":12,"prices":[200,173,182,169,207,165,152,202,161,204],"times":[702,580,762,521,581,1813],"next_num":6,"trial_type":"ticket-choose","trial_index":85,"time_elapsed":1911715,"internal_node_id":"0.0-85.0"},{"result":165,"points":1,"place":2,"phase":1,"sequence":13,"prices":[158,176,187,210,177,181,187,165,208,153],"times":[489,547,524,612,565,558,536,967],"next_num":8,"trial_type":"ticket-choose","trial_index":86,"time_elapsed":1919969,"internal_node_id":"0.0-86.0"},{"result":159,"points":1,"place":2,"phase":1,"sequence":14,"prices":[181,159,149,175,185,151,163,174,178,207],"times":[678,877],"next_num":2,"trial_type":"ticket-choose","trial_index":87,"time_elapsed":1923591,"internal_node_id":"0.0-87.0"},{"result":161,"points":3,"place":0,"phase":1,"sequence":15,"prices":[193,174,224,165,187,190,224,161,194,195],"times":[593,515,534,812,463,521,582,1017],"next_num":8,"trial_type":"ticket-choose","trial_index":88,"time_elapsed":1931908,"internal_node_id":"0.0-88.0"},{"result":163,"points":2,"place":1,"phase":1,"sequence":16,"prices":[176,175,186,210,163,179,187,166,153,208],"times":[1349,463,768,592,886],"next_num":5,"trial_type":"ticket-choose","trial_index":89,"time_elapsed":1938565,"internal_node_id":"0.0-89.0"},{"result":154,"points":3,"place":0,"phase":1,"sequence":17,"prices":[177,175,187,209,165,180,188,165,154,208],"times":[1424,569,551,584,739,510,579,1367,752],"next_num":9,"trial_type":"ticket-choose","trial_index":90,"time_elapsed":1949021,"internal_node_id":"0.0-90.0"},{"result":153,"points":3,"place":0,"phase":1,"sequence":18,"prices":[163,174,186,212,176,181,187,166,153,209],"times":[1583,472,541,555,617,582,579,612,950],"next_num":9,"trial_type":"ticket-choose","trial_index":91,"time_elapsed":1960484,"internal_node_id":"0.0-91.0"},{"result":165,"points":2,"place":1,"phase":1,"sequence":19,"prices":[191,170,182,165,175,182,203,157,195,200],"times":[4381,490,615,1016],"next_num":4,"trial_type":"ticket-choose","trial_index":92,"time_elapsed":1970034,"internal_node_id":"0.0-92.0"},{"result":153,"points":3,"place":0,"phase":1,"sequence":20,"prices":[176,186,178,217,163,181,187,166,153,209],"times":[7819,528,499,565,793,487,582,798,944],"next_num":9,"trial_type":"ticket-choose","trial_index":93,"time_elapsed":1986704,"internal_node_id":"0.0-93.0"},{"result":153,"points":3,"place":0,"phase":1,"sequence":21,"prices":[163,175,186,214,176,179,187,166,153,208],"times":[1857,492,557,648,696,726,733,867,818],"next_num":9,"trial_type":"ticket-choose","trial_index":94,"time_elapsed":1997692,"internal_node_id":"0.0-94.0"},{"result":154,"points":3,"place":0,"phase":1,"sequence":22,"prices":[187,201,165,172,196,174,178,154,172,180],"times":[1868,580,356,403,472,608,530,777],"next_num":8,"trial_type":"ticket-choose","trial_index":95,"time_elapsed":2006966,"internal_node_id":"0.0-95.0"},{"result":156,"points":3,"place":0,"phase":1,"sequence":23,"prices":[178,174,186,217,167,181,188,168,208,156],"times":[8428,436,499,468,1051,543,645,598,686,561],"next_num":10,"trial_type":"ticket-choose","trial_index":96,"time_elapsed":2024671,"internal_node_id":"0.0-96.0"},{"result":186,"points":1,"place":4,"phase":1,"sequence":24,"prices":[220,173,201,197,169,205,198,183,178,186],"times":[1016,210,280,566,963,579,623,577,590,585],"next_num":11,"trial_type":"ticket-choose","trial_index":97,"time_elapsed":2034850,"internal_node_id":"0.0-97.0"},{"result":163,"points":3,"place":0,"phase":1,"sequence":25,"prices":[163,199,196,199,185,195,227,163,177,166],"times":[992,280,294,457,525,566,735,891],"next_num":8,"trial_type":"ticket-choose","trial_index":98,"time_elapsed":2042956,"internal_node_id":"0.0-98.0"},{"result":163,"points":2,"place":1,"phase":1,"sequence":26,"prices":[171,169,186,165,163,167,220,148,187,165],"times":[2222,283,243,1221,760],"next_num":5,"trial_type":"ticket-choose","trial_index":99,"time_elapsed":2050203,"internal_node_id":"0.0-99.0"},{"result":153,"points":3,"place":0,"phase":1,"sequence":27,"prices":[178,175,186,212,167,179,187,169,209,153],"times":[547,532,634,579,808,652,637,1052,752,534],"next_num":10,"trial_type":"ticket-choose","trial_index":100,"time_elapsed":2060833,"internal_node_id":"0.0-100.0"},{"result":158,"points":2,"place":1,"phase":1,"sequence":28,"prices":[177,175,186,209,158,181,188,167,208,154],"times":[1081,380,333,576,1400],"next_num":5,"trial_type":"ticket-choose","trial_index":101,"time_elapsed":2067209,"internal_node_id":"0.0-101.0"},{"result":154,"points":3,"place":0,"phase":1,"sequence":29,"prices":[163,175,187,209,176,180,188,165,154,208],"times":[546,418,497,680,575,521,515,724,1137],"next_num":9,"trial_type":"ticket-choose","trial_index":102,"time_elapsed":2076306,"internal_node_id":"0.0-102.0"},{"result":154,"points":3,"place":0,"phase":1,"sequence":30,"prices":[165,175,187,209,177,180,188,167,154,208],"times":[2460,371,469,549,509,626,572,902,953],"next_num":9,"trial_type":"ticket-choose","trial_index":103,"time_elapsed":2087388,"internal_node_id":"0.0-103.0"},{"result":156,"points":3,"place":0,"phase":1,"sequence":31,"prices":[167,174,186,211,178,181,188,168,208,156],"times":[2212,456,493,493,478,472,565,1119,597,548],"next_num":10,"trial_type":"ticket-choose","trial_index":104,"time_elapsed":2098446,"internal_node_id":"0.0-104.0"},{"result":156,"points":3,"place":0,"phase":1,"sequence":32,"prices":[178,175,185,215,167,181,186,168,208,156],"times":[1589,343,241,640,481,577,675,520,683,523],"next_num":10,"trial_type":"ticket-choose","trial_index":105,"time_elapsed":2108688,"internal_node_id":"0.0-105.0"},{"result":157,"points":2,"place":1,"phase":1,"sequence":33,"prices":[190,150,175,161,188,207,157,194,178,199],"times":[1169,428,447,483,568,763,1123],"next_num":7,"trial_type":"ticket-choose","trial_index":106,"time_elapsed":2116871,"internal_node_id":"0.0-106.0"},{"result":156,"points":3,"place":0,"phase":1,"sequence":34,"prices":[167,175,185,224,178,181,186,168,208,156],"times":[1718,363,524,592,630,531,574,898,718,501],"next_num":10,"trial_type":"ticket-choose","trial_index":107,"time_elapsed":2127857,"internal_node_id":"0.0-107.0"},{"result":165,"points":3,"place":0,"phase":1,"sequence":35,"prices":[196,171,170,184,187,165,211,169,201,202],"times":[583,740,684,510,486,875],"next_num":6,"trial_type":"ticket-choose","trial_index":108,"time_elapsed":2134622,"internal_node_id":"0.0-108.0"},{"result":163,"points":2,"place":1,"phase":1,"sequence":36,"prices":[176,187,179,209,163,180,188,165,154,208],"times":[528,518,574,574,1320],"next_num":5,"trial_type":"ticket-choose","trial_index":109,"time_elapsed":2140739,"internal_node_id":"0.0-109.0"},{"result":151,"points":3,"place":0,"phase":1,"sequence":37,"prices":[199,193,169,165,202,182,151,164,176,171],"times":[961,457,380,1063,514,620,1068],"next_num":7,"trial_type":"ticket-choose","trial_index":110,"time_elapsed":2148754,"internal_node_id":"0.0-110.0"},{"result":164,"points":3,"place":0,"phase":1,"sequence":38,"prices":[199,191,188,174,167,193,189,164,176,170],"times":[1068,456,585,627,535,953,595,1517],"next_num":8,"trial_type":"ticket-choose","trial_index":111,"time_elapsed":2158250,"internal_node_id":"0.0-111.0"},{"result":153,"points":3,"place":0,"phase":1,"sequence":39,"prices":[167,175,186,225,178,179,187,169,209,153],"times":[1020,464,523,626,575,540,536,800,593,920],"next_num":10,"trial_type":"ticket-choose","trial_index":112,"time_elapsed":2168391,"internal_node_id":"0.0-112.0"},{"result":158,"points":2,"place":1,"phase":1,"sequence":40,"prices":[177,175,186,221,158,180,187,166,209,153],"times":[1104,332,422,516,1047],"next_num":5,"trial_type":"ticket-choose","trial_index":113,"time_elapsed":2174355,"internal_node_id":"0.0-113.0"},{"result":170,"points":2,"place":1,"phase":1,"sequence":41,"prices":[201,187,157,184,198,179,188,185,178,170],"times":[598,463,472,660,595,669,588,583,581,732],"next_num":10,"trial_type":"ticket-choose","trial_index":114,"time_elapsed":2184267,"internal_node_id":"0.0-114.0"},{"result":153,"points":3,"place":0,"phase":1,"sequence":42,"prices":[158,175,186,211,177,180,187,166,209,153],"times":[1154,513,601,568,592,574,578,886,625,588],"next_num":10,"trial_type":"ticket-choose","trial_index":115,"time_elapsed":2194535,"internal_node_id":"0.0-115.0"},{"result":159,"points":3,"place":0,"phase":1,"sequence":43,"prices":[183,179,188,165,168,173,205,159,187,191],"times":[753,382,486,788,551,707,622,1013],"next_num":8,"trial_type":"ticket-choose","trial_index":116,"time_elapsed":2203049,"internal_node_id":"0.0-116.0"},{"result":179,"points":1,"place":4,"phase":1,"sequence":44,"prices":[181,214,169,147,182,193,178,184,176,179],"times":[611,1170,436,457,746,612,654,731,845,654],"next_num":10,"trial_type":"ticket-choose","trial_index":117,"time_elapsed":2213539,"internal_node_id":"0.0-117.0"},{"result":156,"points":2,"place":1,"phase":1,"sequence":45,"prices":[180,156,149,160,168,186,172,198,176,195],"times":[482,828],"next_num":2,"trial_type":"ticket-choose","trial_index":118,"time_elapsed":2216772,"internal_node_id":"0.0-118.0"},{"result":184,"points":1,"place":4,"phase":1,"sequence":46,"prices":[193,181,175,181,185,165,224,199,218,184],"times":[516,569,650,557,585,1305,620,617,672,760],"next_num":10,"trial_type":"ticket-choose","trial_index":119,"time_elapsed":2227324,"internal_node_id":"0.0-119.0"},{"result":197,"points":0,"place":8,"phase":1,"sequence":47,"prices":[192,172,171,178,188,165,217,168,195,197],"times":[622,532,537,523,554,1046,520,734,630,859],"next_num":10,"trial_type":"ticket-choose","trial_index":120,"time_elapsed":2238032,"internal_node_id":"0.0-120.0"},{"result":227,"points":0,"place":9,"phase":1,"sequence":48,"prices":[167,153,172,185,195,143,184,211,177,227],"times":[1076,501,601,482,543,552,717,586,577,1071],"next_num":11,"trial_type":"ticket-choose","trial_index":121,"time_elapsed":2248452,"internal_node_id":"0.0-121.0"},{"result":153,"points":3,"place":0,"phase":1,"sequence":49,"prices":[165,174,186,212,177,181,187,166,153,209],"times":[1653,573,640,743,627,668,652,971,860],"next_num":9,"trial_type":"ticket-choose","trial_index":122,"time_elapsed":2259482,"internal_node_id":"0.0-122.0"},{"responses":[{"value":5,"offby":4,"category":"$115 - $130","category_index":0},{"value":10,"offby":5,"category":"$131 - $145","category_index":1},{"value":15,"offby":3,"category":"$146 - $160","category_index":2},{"value":25,"offby":3,"category":"$161 - $175","category_index":3},{"value":30,"offby":-4,"category":"$176 - $190","category_index":4},{"value":10,"offby":-5,"category":"$191 - $205","category_index":5},{"value":5,"offby":-6,"category":"$206 - $220","category_index":6}],"phase":1,"number":1,"trial_type":"bar-choose","trial_index":123,"time_elapsed":2282969,"internal_node_id":"0.0-123.0"},{"special_comment":"I noticed a lot of the cheapest ones were at the end, but it wasn't always true.","trial_type":"special_sequence","trial_index":124,"time_elapsed":2300499,"internal_node_id":"0.0-124.0"},{"during":"Nothing","bonus":300,"trial_type":"final","trial_index":125,"time_elapsed":2324168,"internal_node_id":"0.0-125.0"}],"bonus":300}