{"start_time":"2017-05-24 15:06:23","end_time":"2017-05-24 15:53:45","points_phase0":113,"points_phase1":90,"phase_order":0,"age":31,"gender":"m","tries":1,"during":"Nothing","worker_id":"A3DFJV1RD653DQ","assignment_id":"3YDGXNSEO0NSPVXCG5D837CNR89489","data":[{"rt":297047,"url":"\/christiane\/tickets\/utils\/consent.html","trial_type":"html","trial_index":0,"time_elapsed":297135,"internal_node_id":"0.0-0.0"},{"age":31,"gender":"m","trial_type":"age","trial_index":1,"time_elapsed":301680,"internal_node_id":"0.0-1.0"},{"worker_id":"A3DFJV1RD653DQ","trial_type":"workerid","trial_index":2,"time_elapsed":306659,"internal_node_id":"0.0-2.0"},{"tries":1,"trial_type":"instructions_check","trial_index":3,"time_elapsed":341543,"internal_node_id":"0.0-3.0"},{"rt":12925,"url":"\/christiane\/tickets\/utils\/start.html","trial_type":"html","trial_index":4,"time_elapsed":355596,"internal_node_id":"0.0-4.0"},{"trial_type":"number-animation","trial_index":5,"time_elapsed":372813,"internal_node_id":"0.0-5.0"},{"phase":0,"sequence":0,"avg":181,"response":179,"trial_type":"training_avg","trial_index":6,"time_elapsed":386791,"internal_node_id":"0.0-6.0"},{"trial_type":"number-animation","trial_index":7,"time_elapsed":399250,"internal_node_id":"0.0-7.0"},{"phase":0,"sequence":1,"avg":188,"response":183,"trial_type":"training_avg","trial_index":8,"time_elapsed":406742,"internal_node_id":"0.0-8.0"},{"trial_type":"number-animation","trial_index":9,"time_elapsed":416999,"internal_node_id":"0.0-9.0"},{"phase":0,"sequence":2,"avg":188,"response":179,"trial_type":"training_avg","trial_index":10,"time_elapsed":422438,"internal_node_id":"0.0-10.0"},{"trial_type":"number-animation","trial_index":11,"time_elapsed":430751,"internal_node_id":"0.0-11.0"},{"phase":0,"sequence":3,"avg":177,"response":180,"trial_type":"training_avg","trial_index":12,"time_elapsed":438387,"internal_node_id":"0.0-12.0"},{"trial_type":"number-animation","trial_index":13,"time_elapsed":446623,"internal_node_id":"0.0-13.0"},{"phase":0,"sequence":4,"avg":182,"response":189,"trial_type":"training_avg","trial_index":14,"time_elapsed":453284,"internal_node_id":"0.0-14.0"},{"responses":[{"value":4,"offby":3,"category":"$115 - $130","category_index":0},{"value":5,"offby":0,"category":"$131 - $145","category_index":1},{"value":10,"offby":-2,"category":"$146 - $160","category_index":2},{"value":18,"offby":-4,"category":"$161 - $175","category_index":3},{"value":43,"offby":9,"category":"$176 - $190","category_index":4},{"value":12,"offby":-3,"category":"$191 - $205","category_index":5},{"value":8,"offby":-3,"category":"$206 - $220","category_index":6}],"phase":0,"number":0,"trial_type":"bar-choose","trial_index":15,"time_elapsed":1648208,"internal_node_id":"0.0-15.0"},{"rt":21332,"url":"\/christiane\/tickets\/utils\/testing.html","trial_type":"html","trial_index":16,"time_elapsed":1670669,"internal_node_id":"0.0-16.0"},{"phase":0,"order":[27,5,11,33,21,29,39,16,46,49,31,19,38,13,12,1,0,37,6,43,9,23,25,36,15,41,47,2,14,28,35,18,30,8,42,7,22,4,20,10,3,24,17,45,44,26,34,48,40,32],"trial_type":"store_order","trial_index":17,"time_elapsed":1671674,"internal_node_id":"0.0-17.0"},{"result":165,"points":2,"place":1,"phase":0,"sequence":-1,"prices":[184,180,224,165,181,199,185,193,218,146],"times":[2840,2469,1143,2811],"next_num":4,"trial_type":"ticket-choose","trial_index":18,"time_elapsed":1684113,"internal_node_id":"0.0-18.0"},{"rt":12874,"url":"\/christiane\/tickets\/utils\/testing_after.html","trial_type":"html","trial_index":19,"time_elapsed":1698114,"internal_node_id":"0.0-19.0"},{"result":165,"points":3,"place":0,"phase":0,"sequence":0,"prices":[192,165,171,178,188,217,172,195,197,186],"times":[2630,2212],"next_num":2,"trial_type":"ticket-choose","trial_index":20,"time_elapsed":1706515,"internal_node_id":"0.0-20.0"},{"result":153,"points":3,"place":0,"phase":0,"sequence":1,"prices":[175,186,178,212,179,187,167,169,209,153],"times":[1911,625,603,640,629,658,1196,1328,1096,1378],"next_num":10,"trial_type":"ticket-choose","trial_index":21,"time_elapsed":1721280,"internal_node_id":"0.0-21.0"},{"result":165,"points":2,"place":1,"phase":0,"sequence":2,"prices":[174,186,177,217,181,187,165,166,153,209],"times":[1170,877,1042,763,646,664,1315],"next_num":7,"trial_type":"ticket-choose","trial_index":22,"time_elapsed":1731223,"internal_node_id":"0.0-22.0"},{"result":165,"points":3,"place":0,"phase":0,"sequence":3,"prices":[183,182,192,168,173,205,167,187,165,170],"times":[917,514,78766,1312,747,630,1759,708,1172],"next_num":9,"trial_type":"ticket-choose","trial_index":23,"time_elapsed":1821584,"internal_node_id":"0.0-23.0"},{"result":158,"points":2,"place":1,"phase":0,"sequence":4,"prices":[175,186,177,221,180,187,158,166,209,153],"times":[561,580,445,509,543,475,1050],"next_num":7,"trial_type":"ticket-choose","trial_index":24,"time_elapsed":1829028,"internal_node_id":"0.0-24.0"},{"result":171,"points":1,"place":3,"phase":0,"sequence":5,"prices":[185,170,182,201,173,199,171,188,165,168],"times":[674,1140,470,534,755,533,1291],"next_num":7,"trial_type":"ticket-choose","trial_index":25,"time_elapsed":1837690,"internal_node_id":"0.0-25.0"},{"result":167,"points":2,"place":1,"phase":0,"sequence":6,"prices":[189,167,180,197,165,168,172,213,178,171],"times":[510,1343],"next_num":2,"trial_type":"ticket-choose","trial_index":26,"time_elapsed":1841705,"internal_node_id":"0.0-26.0"},{"result":163,"points":2,"place":1,"phase":0,"sequence":7,"prices":[175,187,176,209,180,188,163,165,154,208],"times":[612,483,539,505,512,479,1246],"next_num":7,"trial_type":"ticket-choose","trial_index":27,"time_elapsed":1849363,"internal_node_id":"0.0-27.0"},{"result":158,"points":3,"place":0,"phase":0,"sequence":8,"prices":[210,184,226,193,215,158,199,175,176,208],"times":[524,540,490,476,416,1150],"next_num":6,"trial_type":"ticket-choose","trial_index":28,"time_elapsed":1856020,"internal_node_id":"0.0-28.0"},{"result":163,"points":1,"place":2,"phase":0,"sequence":9,"prices":[183,163,185,180,166,148,160,186,176,184],"times":[385,1368],"next_num":2,"trial_type":"ticket-choose","trial_index":29,"time_elapsed":1859899,"internal_node_id":"0.0-29.0"},{"result":165,"points":3,"place":0,"phase":0,"sequence":10,"prices":[171,203,175,170,167,220,192,186,165,165],"times":[570,563,605,494,839,462,545,697,1208,2249],"next_num":10,"trial_type":"ticket-choose","trial_index":30,"time_elapsed":1872617,"internal_node_id":"0.0-30.0"},{"result":167,"points":1,"place":2,"phase":0,"sequence":11,"prices":[175,186,158,209,181,188,177,167,208,154],"times":[18478,566,343,442,717,647,632,955],"next_num":8,"trial_type":"ticket-choose","trial_index":31,"time_elapsed":1898784,"internal_node_id":"0.0-31.0"},{"result":163,"points":3,"place":0,"phase":0,"sequence":12,"prices":[168,199,196,198,185,195,227,163,177,166],"times":[1702,491,535,548,531,673,1055,1203],"next_num":8,"trial_type":"ticket-choose","trial_index":32,"time_elapsed":1909035,"internal_node_id":"0.0-32.0"},{"result":163,"points":2,"place":1,"phase":0,"sequence":13,"prices":[175,187,163,209,180,188,176,165,154,208],"times":[689,530,1208],"next_num":3,"trial_type":"ticket-choose","trial_index":33,"time_elapsed":1913816,"internal_node_id":"0.0-33.0"},{"result":163,"points":2,"place":1,"phase":0,"sequence":14,"prices":[175,186,163,214,179,187,176,166,153,208],"times":[461,504,1268],"next_num":3,"trial_type":"ticket-choose","trial_index":34,"time_elapsed":1918420,"internal_node_id":"0.0-34.0"},{"result":156,"points":3,"place":0,"phase":0,"sequence":15,"prices":[175,185,167,224,181,186,178,168,208,156],"times":[552,510,901,486,512,510,672,848,599,1389],"next_num":10,"trial_type":"ticket-choose","trial_index":35,"time_elapsed":1929328,"internal_node_id":"0.0-35.0"},{"result":167,"points":2,"place":1,"phase":0,"sequence":16,"prices":[174,186,167,211,181,188,178,168,208,156],"times":[660,545,1855],"next_num":3,"trial_type":"ticket-choose","trial_index":36,"time_elapsed":1934771,"internal_node_id":"0.0-36.0"},{"result":163,"points":2,"place":1,"phase":0,"sequence":17,"prices":[198,193,169,163,202,182,152,164,177,171],"times":[561,538,650,1455],"next_num":4,"trial_type":"ticket-choose","trial_index":37,"time_elapsed":1940666,"internal_node_id":"0.0-37.0"},{"result":165,"points":2,"place":1,"phase":0,"sequence":18,"prices":[175,186,165,214,179,187,177,166,153,208],"times":[495,540,1710],"next_num":3,"trial_type":"ticket-choose","trial_index":38,"time_elapsed":1945818,"internal_node_id":"0.0-38.0"},{"result":157,"points":3,"place":0,"phase":0,"sequence":19,"prices":[201,187,157,184,198,179,188,185,178,170],"times":[612,509,1221],"next_num":3,"trial_type":"ticket-choose","trial_index":39,"time_elapsed":1950489,"internal_node_id":"0.0-39.0"},{"result":165,"points":2,"place":1,"phase":0,"sequence":20,"prices":[175,186,177,210,179,187,165,166,153,208],"times":[509,520,518,526,466,555,1332],"next_num":7,"trial_type":"ticket-choose","trial_index":40,"time_elapsed":1958068,"internal_node_id":"0.0-40.0"},{"result":158,"points":2,"place":1,"phase":0,"sequence":21,"prices":[176,187,177,225,181,187,158,165,208,153],"times":[456,396,314,359,427,505,1306],"next_num":7,"trial_type":"ticket-choose","trial_index":41,"time_elapsed":1965066,"internal_node_id":"0.0-41.0"},{"result":165,"points":2,"place":1,"phase":0,"sequence":22,"prices":[201,165,162,166,185,214,165,202,204,179],"times":[412,1456],"next_num":2,"trial_type":"ticket-choose","trial_index":42,"time_elapsed":1969136,"internal_node_id":"0.0-42.0"},{"result":154,"points":3,"place":0,"phase":0,"sequence":23,"prices":[188,200,165,172,198,174,177,154,177,180],"times":[2382,553,1370,519,484,744,537,1318],"next_num":8,"trial_type":"ticket-choose","trial_index":43,"time_elapsed":1980327,"internal_node_id":"0.0-43.0"},{"result":153,"points":3,"place":0,"phase":0,"sequence":24,"prices":[175,186,176,210,179,187,163,166,153,208],"times":[591,514,407,459,378,389,372,587,1477],"next_num":9,"trial_type":"ticket-choose","trial_index":44,"time_elapsed":1989280,"internal_node_id":"0.0-44.0"},{"result":158,"points":1,"place":3,"phase":0,"sequence":25,"prices":[201,207,155,158,156,165,167,135,178,177],"times":[570,525,378,1166],"next_num":4,"trial_type":"ticket-choose","trial_index":45,"time_elapsed":1994684,"internal_node_id":"0.0-45.0"},{"result":152,"points":3,"place":0,"phase":0,"sequence":26,"prices":[200,181,203,152,175,171,160,154,176,191],"times":[464,492,467,1289],"next_num":4,"trial_type":"ticket-choose","trial_index":46,"time_elapsed":1999991,"internal_node_id":"0.0-46.0"},{"result":153,"points":3,"place":0,"phase":0,"sequence":27,"prices":[175,186,167,225,179,187,178,169,209,153],"times":[1130,502,338,326,488,345,388,1081,616,1174],"next_num":10,"trial_type":"ticket-choose","trial_index":47,"time_elapsed":2010233,"internal_node_id":"0.0-47.0"},{"result":163,"points":2,"place":1,"phase":0,"sequence":28,"prices":[174,186,163,212,181,187,176,166,153,209],"times":[434,613,1749],"next_num":3,"trial_type":"ticket-choose","trial_index":48,"time_elapsed":2015650,"internal_node_id":"0.0-48.0"},{"result":185,"points":1,"place":4,"phase":0,"sequence":29,"prices":[196,165,170,184,187,211,171,201,202,185],"times":[1201,1156,354,427,470,496,557,500,562,1733],"next_num":10,"trial_type":"ticket-choose","trial_index":49,"time_elapsed":2026938,"internal_node_id":"0.0-49.0"},{"result":154,"points":2,"place":1,"phase":0,"sequence":30,"prices":[168,154,172,185,195,144,184,211,177,227],"times":[774,1163],"next_num":2,"trial_type":"ticket-choose","trial_index":50,"time_elapsed":2031073,"internal_node_id":"0.0-50.0"},{"result":153,"points":3,"place":0,"phase":0,"sequence":31,"prices":[175,186,158,211,180,187,177,166,209,153],"times":[484,462,353,479,511,535,499,1481,677,1291],"next_num":10,"trial_type":"ticket-choose","trial_index":51,"time_elapsed":2041770,"internal_node_id":"0.0-51.0"},{"result":176,"points":0,"place":5,"phase":0,"sequence":32,"prices":[191,172,169,175,182,203,170,195,165,176],"times":[763,679,877,451,434,350,542,515,517,848],"next_num":10,"trial_type":"ticket-choose","trial_index":52,"time_elapsed":2051957,"internal_node_id":"0.0-52.0"},{"result":153,"points":3,"place":0,"phase":0,"sequence":33,"prices":[174,186,165,212,181,187,177,167,153,209],"times":[633,460,482,483,603,516,507,1079,653],"next_num":9,"trial_type":"ticket-choose","trial_index":53,"time_elapsed":2061094,"internal_node_id":"0.0-53.0"},{"result":143,"points":3,"place":0,"phase":0,"sequence":34,"prices":[222,173,202,197,143,205,198,183,178,186],"times":[888,521,547,583,1296],"next_num":5,"trial_type":"ticket-choose","trial_index":54,"time_elapsed":2067841,"internal_node_id":"0.0-54.0"},{"result":154,"points":3,"place":0,"phase":0,"sequence":35,"prices":[175,187,165,209,180,188,177,166,154,208],"times":[590,511,713,328,397,473,530,620,1285],"next_num":9,"trial_type":"ticket-choose","trial_index":55,"time_elapsed":2077260,"internal_node_id":"0.0-55.0"},{"result":154,"points":3,"place":0,"phase":0,"sequence":36,"prices":[175,186,177,209,181,188,158,167,208,154],"times":[598,795,514,415,421,410,357,778,745,1099],"next_num":10,"trial_type":"ticket-choose","trial_index":56,"time_elapsed":2087464,"internal_node_id":"0.0-56.0"},{"result":156,"points":3,"place":0,"phase":0,"sequence":37,"prices":[175,185,178,215,181,186,167,168,208,156],"times":[866,472,359,335,489,418,356,308,561,1680],"next_num":10,"trial_type":"ticket-choose","trial_index":57,"time_elapsed":2097388,"internal_node_id":"0.0-57.0"},{"result":165,"points":1,"place":2,"phase":0,"sequence":38,"prices":[176,187,158,210,181,187,177,165,208,153],"times":[650,416,271,411,226,493,494,1961],"next_num":8,"trial_type":"ticket-choose","trial_index":58,"time_elapsed":2105744,"internal_node_id":"0.0-58.0"},{"result":165,"points":2,"place":1,"phase":0,"sequence":39,"prices":[175,187,177,209,180,188,165,165,154,208],"times":[608,452,482,456,472,498,1111],"next_num":7,"trial_type":"ticket-choose","trial_index":59,"time_elapsed":2112989,"internal_node_id":"0.0-59.0"},{"result":156,"points":3,"place":0,"phase":0,"sequence":40,"prices":[174,186,178,217,181,188,167,168,208,156],"times":[757,463,492,520,485,474,688,1987,632,560],"next_num":10,"trial_type":"ticket-choose","trial_index":60,"time_elapsed":2123828,"internal_node_id":"0.0-60.0"},{"result":184,"points":1,"place":4,"phase":0,"sequence":41,"prices":[193,165,175,181,185,224,180,199,218,184],"times":[1749,515,478,487,533,625,601,618,714,1063],"next_num":10,"trial_type":"ticket-choose","trial_index":61,"time_elapsed":2135001,"internal_node_id":"0.0-61.0"},{"result":153,"points":3,"place":0,"phase":0,"sequence":42,"prices":[174,186,176,217,181,187,163,166,153,209],"times":[690,514,490,555,527,513,467,698,1932],"next_num":9,"trial_type":"ticket-choose","trial_index":62,"time_elapsed":2145081,"internal_node_id":"0.0-62.0"},{"result":164,"points":3,"place":0,"phase":0,"sequence":43,"prices":[212,192,188,184,167,193,189,164,176,170],"times":[785,716,439,493,465,566,528,1030],"next_num":8,"trial_type":"ticket-choose","trial_index":63,"time_elapsed":2153550,"internal_node_id":"0.0-63.0"},{"result":159,"points":1,"place":2,"phase":0,"sequence":44,"prices":[180,159,149,175,185,141,163,174,178,207],"times":[502,1219],"next_num":2,"trial_type":"ticket-choose","trial_index":64,"time_elapsed":2157467,"internal_node_id":"0.0-64.0"},{"result":161,"points":3,"place":0,"phase":0,"sequence":45,"prices":[200,165,165,173,182,207,161,202,204,180],"times":[505,324,394,468,461,472,1003],"next_num":7,"trial_type":"ticket-choose","trial_index":65,"time_elapsed":2164241,"internal_node_id":"0.0-65.0"},{"result":148,"points":3,"place":0,"phase":0,"sequence":46,"prices":[181,155,148,161,168,187,172,199,176,194],"times":[722,351,889],"next_num":3,"trial_type":"ticket-choose","trial_index":66,"time_elapsed":2168695,"internal_node_id":"0.0-66.0"},{"result":179,"points":1,"place":4,"phase":0,"sequence":47,"prices":[181,215,169,147,182,193,177,184,176,179],"times":[672,603,377,524,845,416,454,574,516,455],"next_num":11,"trial_type":"ticket-choose","trial_index":67,"time_elapsed":2178763,"internal_node_id":"0.0-67.0"},{"result":158,"points":2,"place":1,"phase":0,"sequence":48,"prices":[189,150,175,160,188,207,158,194,178,199],"times":[570,303,618,500,450,569,902],"next_num":7,"trial_type":"ticket-choose","trial_index":68,"time_elapsed":2185943,"internal_node_id":"0.0-68.0"},{"result":165,"points":3,"place":0,"phase":0,"sequence":49,"prices":[193,169,171,187,190,224,174,194,165,188],"times":[708,384,488,474,450,766,558,518,1495],"next_num":9,"trial_type":"ticket-choose","trial_index":69,"time_elapsed":2195425,"internal_node_id":"0.0-69.0"},{"responses":[{"value":0,"offby":-1,"category":"$115 - $130","category_index":0},{"value":4,"offby":-1,"category":"$131 - $145","category_index":1},{"value":5,"offby":-7,"category":"$146 - $160","category_index":2},{"value":22,"offby":0,"category":"$161 - $175","category_index":3},{"value":42,"offby":8,"category":"$176 - $190","category_index":4},{"value":17,"offby":2,"category":"$191 - $205","category_index":5},{"value":10,"offby":-1,"category":"$206 - $220","category_index":6}],"phase":1,"number":1,"trial_type":"bar-choose","trial_index":70,"time_elapsed":2227480,"internal_node_id":"0.0-70.0"},{"rt":21591,"url":"\/christiane\/tickets\/utils\/testing2.html","trial_type":"point_update","trial_index":71,"time_elapsed":2250389,"internal_node_id":"0.0-71.0"},{"phase":1,"order":[0,43,15,46,40,12,3,31,36,37,20,19,39,23,7,26,11,13,25,35,29,49,5,17,22,28,45,32,24,2,6,8,38,16,47,34,42,41,27,1,4,10,44,18,14,33,21,9,30,48],"trial_type":"store_order","trial_index":72,"time_elapsed":2251408,"internal_node_id":"0.0-72.0"},{"result":167,"points":2,"place":1,"phase":1,"sequence":0,"prices":[167,174,186,211,178,181,188,168,208,156],"times":[2348],"next_num":1,"trial_type":"ticket-choose","trial_index":73,"time_elapsed":2255666,"internal_node_id":"0.0-73.0"},{"result":170,"points":2,"place":1,"phase":1,"sequence":1,"prices":[201,187,157,184,198,179,188,185,178,170],"times":[740,517,431,451,287,318,309,581,777,1559],"next_num":10,"trial_type":"ticket-choose","trial_index":74,"time_elapsed":2265523,"internal_node_id":"0.0-74.0"},{"result":166,"points":1,"place":2,"phase":1,"sequence":2,"prices":[176,175,186,210,163,179,187,166,153,208],"times":[618,399,504,507,555,497,573,1084],"next_num":8,"trial_type":"ticket-choose","trial_index":75,"time_elapsed":2273531,"internal_node_id":"0.0-75.0"},{"result":158,"points":3,"place":0,"phase":1,"sequence":3,"prices":[214,184,226,192,215,158,199,175,176,208],"times":[549,479,530,536,583,1028],"next_num":6,"trial_type":"ticket-choose","trial_index":76,"time_elapsed":2280229,"internal_node_id":"0.0-76.0"},{"result":161,"points":1,"place":2,"phase":1,"sequence":4,"prices":[190,150,175,161,188,207,157,194,178,199],"times":[469,427,654,1019],"next_num":4,"trial_type":"ticket-choose","trial_index":77,"time_elapsed":2285339,"internal_node_id":"0.0-77.0"},{"result":166,"points":1,"place":2,"phase":1,"sequence":5,"prices":[163,175,186,214,176,179,187,166,153,208],"times":[519,497,539,518,622,508,505,1121],"next_num":8,"trial_type":"ticket-choose","trial_index":78,"time_elapsed":2293474,"internal_node_id":"0.0-78.0"},{"result":167,"points":2,"place":1,"phase":1,"sequence":6,"prices":[178,174,186,217,167,181,188,168,208,156],"times":[620,465,523,546,1242],"next_num":5,"trial_type":"ticket-choose","trial_index":79,"time_elapsed":2299693,"internal_node_id":"0.0-79.0"},{"result":165,"points":1,"place":2,"phase":1,"sequence":7,"prices":[171,169,186,165,163,167,220,148,187,165],"times":[4787,328,460,1240],"next_num":4,"trial_type":"ticket-choose","trial_index":80,"time_elapsed":2309012,"internal_node_id":"0.0-80.0"},{"result":154,"points":3,"place":0,"phase":1,"sequence":8,"prices":[187,201,165,172,196,174,178,154,172,180],"times":[469,519,286,409,438,963,503,1260],"next_num":8,"trial_type":"ticket-choose","trial_index":81,"time_elapsed":2317278,"internal_node_id":"0.0-81.0"},{"result":165,"points":1,"place":2,"phase":1,"sequence":9,"prices":[199,193,169,165,202,182,151,164,176,171],"times":[486,304,496,1940],"next_num":4,"trial_type":"ticket-choose","trial_index":82,"time_elapsed":2323182,"internal_node_id":"0.0-82.0"},{"result":165,"points":1,"place":2,"phase":1,"sequence":10,"prices":[158,176,187,210,177,181,187,165,208,153],"times":[718,530,457,564,402,591,541,2142],"next_num":8,"trial_type":"ticket-choose","trial_index":83,"time_elapsed":2332884,"internal_node_id":"0.0-83.0"},{"result":158,"points":2,"place":1,"phase":1,"sequence":11,"prices":[158,175,186,209,177,181,188,167,208,154],"times":[1853],"next_num":1,"trial_type":"ticket-choose","trial_index":84,"time_elapsed":2336619,"internal_node_id":"0.0-84.0"},{"result":167,"points":2,"place":1,"phase":1,"sequence":12,"prices":[189,167,180,197,165,168,172,213,178,171],"times":[570,1440],"next_num":2,"trial_type":"ticket-choose","trial_index":85,"time_elapsed":2340769,"internal_node_id":"0.0-85.0"},{"result":158,"points":2,"place":1,"phase":1,"sequence":13,"prices":[177,176,187,225,158,181,187,165,208,153],"times":[620,537,536,691,1115],"next_num":5,"trial_type":"ticket-choose","trial_index":86,"time_elapsed":2346993,"internal_node_id":"0.0-86.0"},{"result":167,"points":1,"place":2,"phase":1,"sequence":14,"prices":[165,175,187,209,177,180,188,167,154,208],"times":[547,521,482,542,513,1194,825,1275],"next_num":8,"trial_type":"ticket-choose","trial_index":87,"time_elapsed":2356221,"internal_node_id":"0.0-87.0"},{"result":169,"points":1,"place":3,"phase":1,"sequence":15,"prices":[200,173,182,169,207,165,152,202,161,204],"times":[520,561,521,1399],"next_num":4,"trial_type":"ticket-choose","trial_index":88,"time_elapsed":2361785,"internal_node_id":"0.0-88.0"},{"result":166,"points":1,"place":2,"phase":1,"sequence":16,"prices":[177,174,186,217,165,181,187,166,153,209],"times":[531,508,499,555,1014,523,506,3210],"next_num":8,"trial_type":"ticket-choose","trial_index":89,"time_elapsed":2372644,"internal_node_id":"0.0-89.0"},{"result":165,"points":1,"place":2,"phase":1,"sequence":17,"prices":[163,175,187,209,176,180,188,165,154,208],"times":[689,512,430,527,631,598,682,1078],"next_num":8,"trial_type":"ticket-choose","trial_index":90,"time_elapsed":2381177,"internal_node_id":"0.0-90.0"},{"result":165,"points":2,"place":1,"phase":1,"sequence":18,"prices":[201,204,179,166,185,165,214,156,202,165],"times":[514,658,457,396,648,58160],"next_num":6,"trial_type":"ticket-choose","trial_index":91,"time_elapsed":2445936,"internal_node_id":"0.0-91.0"},{"result":153,"points":2,"place":1,"phase":1,"sequence":19,"prices":[167,153,172,185,195,143,184,211,177,227],"times":[322,874],"next_num":2,"trial_type":"ticket-choose","trial_index":92,"time_elapsed":2449178,"internal_node_id":"0.0-92.0"},{"result":161,"points":2,"place":1,"phase":1,"sequence":20,"prices":[185,179,191,165,161,173,199,150,188,168],"times":[515,471,531,991,1006],"next_num":5,"trial_type":"ticket-choose","trial_index":93,"time_elapsed":2455477,"internal_node_id":"0.0-93.0"},{"result":148,"points":3,"place":0,"phase":1,"sequence":21,"prices":[173,163,185,181,166,148,160,185,176,184],"times":[668,923,477,495,982,1214],"next_num":6,"trial_type":"ticket-choose","trial_index":94,"time_elapsed":2463125,"internal_node_id":"0.0-94.0"},{"result":153,"points":3,"place":0,"phase":1,"sequence":22,"prices":[178,175,186,212,167,179,187,169,209,153],"times":[527,383,331,344,320,376,684,1118,528,939],"next_num":10,"trial_type":"ticket-choose","trial_index":95,"time_elapsed":2472381,"internal_node_id":"0.0-95.0"},{"result":153,"points":3,"place":0,"phase":1,"sequence":23,"prices":[176,186,178,217,163,181,187,166,153,209],"times":[403,424,407,432,344,459,448,547,1062],"next_num":9,"trial_type":"ticket-choose","trial_index":96,"time_elapsed":2480537,"internal_node_id":"0.0-96.0"},{"result":158,"points":2,"place":1,"phase":1,"sequence":24,"prices":[177,175,186,209,158,181,188,167,208,154],"times":[30561,733,493,511,1065],"next_num":5,"trial_type":"ticket-choose","trial_index":97,"time_elapsed":2516603,"internal_node_id":"0.0-97.0"},{"result":202,"points":0,"place":8,"phase":1,"sequence":25,"prices":[196,171,170,184,187,165,211,169,201,202],"times":[657,502,864,592,515,621,566,1896,521,919],"next_num":10,"trial_type":"ticket-choose","trial_index":98,"time_elapsed":2527949,"internal_node_id":"0.0-98.0"},{"result":170,"points":1,"place":2,"phase":1,"sequence":26,"prices":[199,191,188,174,167,193,189,164,176,170],"times":[596,461,382,369,542,549,569,623,559,1309],"next_num":10,"trial_type":"ticket-choose","trial_index":99,"time_elapsed":2537684,"internal_node_id":"0.0-99.0"},{"result":195,"points":0,"place":7,"phase":1,"sequence":27,"prices":[193,174,224,165,187,190,224,161,194,195],"times":[690,697,830,447,462,516,650,575,631,1096],"next_num":10,"trial_type":"ticket-choose","trial_index":100,"time_elapsed":2547948,"internal_node_id":"0.0-100.0"},{"result":184,"points":1,"place":4,"phase":1,"sequence":28,"prices":[193,181,175,181,185,165,224,199,218,184],"times":[648,533,484,501,833,516,558,550,620,1273],"next_num":10,"trial_type":"ticket-choose","trial_index":101,"time_elapsed":2558376,"internal_node_id":"0.0-101.0"},{"result":169,"points":1,"place":2,"phase":1,"sequence":29,"prices":[167,175,186,225,178,179,187,169,209,153],"times":[778,644,547,906,1038,856,791,2648],"next_num":8,"trial_type":"ticket-choose","trial_index":102,"time_elapsed":2569928,"internal_node_id":"0.0-102.0"},{"result":166,"points":1,"place":2,"phase":1,"sequence":30,"prices":[165,175,186,214,177,179,187,166,153,208],"times":[864,515,486,520,713,476,456,1155],"next_num":8,"trial_type":"ticket-choose","trial_index":103,"time_elapsed":2578471,"internal_node_id":"0.0-103.0"},{"result":165,"points":2,"place":1,"phase":1,"sequence":31,"prices":[165,174,186,212,177,181,187,166,153,209],"times":[1490],"next_num":1,"trial_type":"ticket-choose","trial_index":104,"time_elapsed":2581811,"internal_node_id":"0.0-104.0"},{"result":163,"points":3,"place":0,"phase":1,"sequence":32,"prices":[163,199,196,199,185,195,227,163,177,166],"times":[1645],"next_num":1,"trial_type":"ticket-choose","trial_index":105,"time_elapsed":2585375,"internal_node_id":"0.0-105.0"},{"result":163,"points":2,"place":1,"phase":1,"sequence":33,"prices":[176,187,179,209,163,180,188,165,154,208],"times":[679,504,697,500,1250],"next_num":5,"trial_type":"ticket-choose","trial_index":106,"time_elapsed":2591780,"internal_node_id":"0.0-106.0"},{"result":152,"points":3,"place":0,"phase":1,"sequence":34,"prices":[200,180,203,152,175,170,160,154,176,191],"times":[484,507,588,1382],"next_num":4,"trial_type":"ticket-choose","trial_index":107,"time_elapsed":2597361,"internal_node_id":"0.0-107.0"},{"result":156,"points":2,"place":1,"phase":1,"sequence":35,"prices":[180,156,149,160,168,186,172,198,176,195],"times":[1157,1091],"next_num":2,"trial_type":"ticket-choose","trial_index":108,"time_elapsed":2601660,"internal_node_id":"0.0-108.0"},{"result":169,"points":3,"place":0,"phase":1,"sequence":36,"prices":[220,173,201,197,169,205,198,183,178,186],"times":[547,462,500,618,1179],"next_num":5,"trial_type":"ticket-choose","trial_index":109,"time_elapsed":2607737,"internal_node_id":"0.0-109.0"},{"result":155,"points":2,"place":1,"phase":1,"sequence":37,"prices":[200,207,155,158,156,168,167,135,178,177],"times":[595,481,1248],"next_num":3,"trial_type":"ticket-choose","trial_index":110,"time_elapsed":2612610,"internal_node_id":"0.0-110.0"},{"result":165,"points":3,"place":0,"phase":1,"sequence":38,"prices":[192,172,171,178,188,165,217,168,195,197],"times":[844,814,892,538,541,1828],"next_num":6,"trial_type":"ticket-choose","trial_index":111,"time_elapsed":2621727,"internal_node_id":"0.0-111.0"},{"result":167,"points":2,"place":1,"phase":1,"sequence":39,"prices":[167,175,185,224,178,181,186,168,208,156],"times":[63381],"next_num":1,"trial_type":"ticket-choose","trial_index":112,"time_elapsed":2686966,"internal_node_id":"0.0-112.0"},{"result":167,"points":2,"place":1,"phase":1,"sequence":40,"prices":[178,175,185,215,167,181,186,168,208,156],"times":[657,512,423,515,1040],"next_num":5,"trial_type":"ticket-choose","trial_index":113,"time_elapsed":2692939,"internal_node_id":"0.0-113.0"},{"result":165,"points":2,"place":1,"phase":1,"sequence":41,"prices":[177,175,187,209,165,180,188,165,154,208],"times":[665,443,471,791,1264],"next_num":5,"trial_type":"ticket-choose","trial_index":114,"time_elapsed":2699324,"internal_node_id":"0.0-114.0"},{"result":159,"points":1,"place":2,"phase":1,"sequence":42,"prices":[181,159,149,175,185,151,163,174,178,207],"times":[654,1077],"next_num":2,"trial_type":"ticket-choose","trial_index":115,"time_elapsed":2703188,"internal_node_id":"0.0-115.0"},{"result":158,"points":2,"place":1,"phase":1,"sequence":43,"prices":[158,175,186,211,177,180,187,166,209,153],"times":[1217],"next_num":1,"trial_type":"ticket-choose","trial_index":116,"time_elapsed":2706279,"internal_node_id":"0.0-116.0"},{"result":163,"points":2,"place":1,"phase":1,"sequence":44,"prices":[163,174,186,212,176,181,187,166,153,209],"times":[1319],"next_num":1,"trial_type":"ticket-choose","trial_index":117,"time_elapsed":2709557,"internal_node_id":"0.0-117.0"},{"result":165,"points":2,"place":1,"phase":1,"sequence":45,"prices":[183,179,188,165,168,173,205,159,187,191],"times":[723,529,425,1248],"next_num":4,"trial_type":"ticket-choose","trial_index":118,"time_elapsed":2715181,"internal_node_id":"0.0-118.0"},{"result":158,"points":2,"place":1,"phase":1,"sequence":46,"prices":[177,175,186,221,158,180,187,166,209,153],"times":[635,517,1101,616,1841],"next_num":5,"trial_type":"ticket-choose","trial_index":119,"time_elapsed":2722633,"internal_node_id":"0.0-119.0"},{"result":165,"points":2,"place":1,"phase":1,"sequence":47,"prices":[177,175,186,210,165,179,187,166,153,208],"times":[764,485,591,500,1427],"next_num":5,"trial_type":"ticket-choose","trial_index":120,"time_elapsed":2729404,"internal_node_id":"0.0-120.0"},{"result":165,"points":2,"place":1,"phase":1,"sequence":48,"prices":[191,170,182,165,175,182,203,157,195,200],"times":[670,322,723,1492],"next_num":4,"trial_type":"ticket-choose","trial_index":121,"time_elapsed":2735379,"internal_node_id":"0.0-121.0"},{"result":169,"points":2,"place":1,"phase":1,"sequence":49,"prices":[181,214,169,147,182,193,178,184,176,179],"times":[559,396,1266],"next_num":3,"trial_type":"ticket-choose","trial_index":122,"time_elapsed":2740245,"internal_node_id":"0.0-122.0"},{"responses":[{"value":0,"offby":-1,"category":"$115 - $130","category_index":0},{"value":0,"offby":-5,"category":"$131 - $145","category_index":1},{"value":7,"offby":-5,"category":"$146 - $160","category_index":2},{"value":23,"offby":1,"category":"$161 - $175","category_index":3},{"value":32,"offby":-2,"category":"$176 - $190","category_index":4},{"value":22,"offby":7,"category":"$191 - $205","category_index":5},{"value":16,"offby":5,"category":"$206 - $220","category_index":6}],"phase":1,"number":1,"trial_type":"bar-choose","trial_index":123,"time_elapsed":2770905,"internal_node_id":"0.0-123.0"},{"special_comment":"second sequence avg was higher ","trial_type":"special_sequence","trial_index":124,"time_elapsed":2805105,"internal_node_id":"0.0-124.0"},{"during":"Nothing","bonus":272,"trial_type":"final","trial_index":125,"time_elapsed":2835596,"internal_node_id":"0.0-125.0"}],"bonus":272}