{"start_time":"2017-05-24 08:55:28","end_time":"2017-05-24 09:12:46","points_phase0":107,"points_phase1":97,"phase_order":0,"age":35,"gender":"f","tries":1,"during":"Talking with a friend","worker_id":"A3E3RCR51Z8EVP","assignment_id":"3X87C8JFV74HXKZJS0QQN1DTZTHQSU","data":[{"rt":8785,"url":"\/christiane\/tickets\/utils\/consent.html","trial_type":"html","trial_index":0,"time_elapsed":9138,"internal_node_id":"0.0-0.0"},{"age":35,"gender":"f","trial_type":"age","trial_index":1,"time_elapsed":14906,"internal_node_id":"0.0-1.0"},{"worker_id":"A3E3RCR51Z8EVP","trial_type":"workerid","trial_index":2,"time_elapsed":21272,"internal_node_id":"0.0-2.0"},{"tries":1,"trial_type":"instructions_check","trial_index":3,"time_elapsed":48016,"internal_node_id":"0.0-3.0"},{"rt":7285,"url":"\/christiane\/tickets\/utils\/start.html","trial_type":"html","trial_index":4,"time_elapsed":56424,"internal_node_id":"0.0-4.0"},{"trial_type":"number-animation","trial_index":5,"time_elapsed":69484,"internal_node_id":"0.0-5.0"},{"phase":0,"sequence":0,"avg":181,"response":173,"trial_type":"training_avg","trial_index":6,"time_elapsed":79752,"internal_node_id":"0.0-6.0"},{"trial_type":"number-animation","trial_index":7,"time_elapsed":89953,"internal_node_id":"0.0-7.0"},{"phase":0,"sequence":1,"avg":188,"response":195,"trial_type":"training_avg","trial_index":8,"time_elapsed":103209,"internal_node_id":"0.0-8.0"},{"trial_type":"number-animation","trial_index":9,"time_elapsed":113304,"internal_node_id":"0.0-9.0"},{"phase":0,"sequence":2,"avg":188,"response":188,"trial_type":"training_avg","trial_index":10,"time_elapsed":122000,"internal_node_id":"0.0-10.0"},{"trial_type":"number-animation","trial_index":11,"time_elapsed":131635,"internal_node_id":"0.0-11.0"},{"phase":0,"sequence":3,"avg":177,"response":173,"trial_type":"training_avg","trial_index":12,"time_elapsed":137507,"internal_node_id":"0.0-12.0"},{"trial_type":"number-animation","trial_index":13,"time_elapsed":147043,"internal_node_id":"0.0-13.0"},{"phase":0,"sequence":4,"avg":182,"response":165,"trial_type":"training_avg","trial_index":14,"time_elapsed":152474,"internal_node_id":"0.0-14.0"},{"responses":[{"value":0,"offby":-1,"category":"$115 - $130","category_index":0},{"value":5,"offby":0,"category":"$131 - $145","category_index":1},{"value":10,"offby":-2,"category":"$146 - $160","category_index":2},{"value":20,"offby":-2,"category":"$161 - $175","category_index":3},{"value":50,"offby":16,"category":"$176 - $190","category_index":4},{"value":15,"offby":0,"category":"$191 - $205","category_index":5},{"value":0,"offby":-11,"category":"$206 - $220","category_index":6}],"phase":0,"number":0,"trial_type":"bar-choose","trial_index":15,"time_elapsed":204033,"internal_node_id":"0.0-15.0"},{"rt":14889,"url":"\/christiane\/tickets\/utils\/testing.html","trial_type":"html","trial_index":16,"time_elapsed":220043,"internal_node_id":"0.0-16.0"},{"phase":0,"order":[19,7,0,26,33,30,20,41,49,8,1,15,35,11,39,9,46,10,37,23,36,18,31,47,42,5,22,48,32,28,4,24,40,13,14,17,34,21,3,38,2,43,25,12,45,29,27,16,44,6],"trial_type":"store_order","trial_index":17,"time_elapsed":221044,"internal_node_id":"0.0-17.0"},{"result":165,"points":2,"place":1,"phase":0,"sequence":-1,"prices":[184,180,224,165,181,199,185,193,218,146],"times":[3453,2186,1188,3399],"next_num":4,"trial_type":"ticket-choose","trial_index":18,"time_elapsed":234531,"internal_node_id":"0.0-18.0"},{"rt":13673,"url":"\/christiane\/tickets\/utils\/testing_after.html","trial_type":"html","trial_index":19,"time_elapsed":249332,"internal_node_id":"0.0-19.0"},{"result":158,"points":2,"place":1,"phase":0,"sequence":0,"prices":[175,186,158,209,181,188,177,167,208,154],"times":[1587,817,2371],"next_num":3,"trial_type":"ticket-choose","trial_index":20,"time_elapsed":257271,"internal_node_id":"0.0-20.0"},{"result":166,"points":1,"place":2,"phase":0,"sequence":1,"prices":[175,187,165,209,180,188,177,166,154,208],"times":[1037,587,1267,616,719,558,544,1451],"next_num":8,"trial_type":"ticket-choose","trial_index":21,"time_elapsed":267678,"internal_node_id":"0.0-21.0"},{"result":168,"points":1,"place":2,"phase":0,"sequence":2,"prices":[174,186,167,211,181,188,178,168,208,156],"times":[594,801,1820,648,615,615,904,1388],"next_num":8,"trial_type":"ticket-choose","trial_index":22,"time_elapsed":278627,"internal_node_id":"0.0-22.0"},{"result":165,"points":2,"place":1,"phase":0,"sequence":3,"prices":[200,165,165,173,182,207,161,202,204,180],"times":[789,1525],"next_num":2,"trial_type":"ticket-choose","trial_index":23,"time_elapsed":283235,"internal_node_id":"0.0-23.0"},{"result":168,"points":1,"place":2,"phase":0,"sequence":4,"prices":[183,182,192,168,173,205,167,187,165,170],"times":[824,679,675,1233],"next_num":4,"trial_type":"ticket-choose","trial_index":24,"time_elapsed":289359,"internal_node_id":"0.0-24.0"},{"result":165,"points":3,"place":0,"phase":0,"sequence":5,"prices":[191,172,169,175,182,203,170,195,165,176],"times":[576,729,677,601,780,755,924,768,1344],"next_num":9,"trial_type":"ticket-choose","trial_index":25,"time_elapsed":300851,"internal_node_id":"0.0-25.0"},{"result":158,"points":2,"place":1,"phase":0,"sequence":6,"prices":[176,187,158,210,181,187,177,165,208,153],"times":[968,1022,1781],"next_num":3,"trial_type":"ticket-choose","trial_index":26,"time_elapsed":306947,"internal_node_id":"0.0-26.0"},{"result":155,"points":2,"place":1,"phase":0,"sequence":7,"prices":[201,207,155,158,156,165,167,135,178,177],"times":[660,631,1114],"next_num":3,"trial_type":"ticket-choose","trial_index":27,"time_elapsed":311774,"internal_node_id":"0.0-27.0"},{"result":148,"points":3,"place":0,"phase":0,"sequence":8,"prices":[183,163,185,180,166,148,160,186,176,184],"times":[536,622,542,526,1467,1161],"next_num":6,"trial_type":"ticket-choose","trial_index":28,"time_elapsed":319854,"internal_node_id":"0.0-28.0"},{"result":167,"points":1,"place":2,"phase":0,"sequence":9,"prices":[174,186,165,212,181,187,177,167,153,209],"times":[676,587,665,577,518,727,990,1580],"next_num":8,"trial_type":"ticket-choose","trial_index":29,"time_elapsed":329662,"internal_node_id":"0.0-29.0"},{"result":156,"points":3,"place":0,"phase":0,"sequence":10,"prices":[175,185,167,224,181,186,178,168,208,156],"times":[584,2666,1881,583,797,757,644,1619,599,757],"next_num":10,"trial_type":"ticket-choose","trial_index":30,"time_elapsed":344519,"internal_node_id":"0.0-30.0"},{"result":163,"points":2,"place":1,"phase":0,"sequence":11,"prices":[175,186,176,210,179,187,163,166,153,208],"times":[629,640,540,530,520,583,1139],"next_num":7,"trial_type":"ticket-choose","trial_index":31,"time_elapsed":352346,"internal_node_id":"0.0-31.0"},{"result":154,"points":2,"place":1,"phase":0,"sequence":12,"prices":[168,154,172,185,195,144,184,211,177,227],"times":[457,1315],"next_num":2,"trial_type":"ticket-choose","trial_index":32,"time_elapsed":356258,"internal_node_id":"0.0-32.0"},{"result":165,"points":2,"place":1,"phase":0,"sequence":13,"prices":[174,186,177,217,181,187,165,166,153,209],"times":[767,763,569,501,577,549,1156],"next_num":7,"trial_type":"ticket-choose","trial_index":33,"time_elapsed":364322,"internal_node_id":"0.0-33.0"},{"result":171,"points":1,"place":3,"phase":0,"sequence":14,"prices":[189,167,180,197,165,168,172,213,178,171],"times":[659,1505,845,1060,417,1453,522,806,630,657],"next_num":10,"trial_type":"ticket-choose","trial_index":34,"time_elapsed":376798,"internal_node_id":"0.0-34.0"},{"result":165,"points":2,"place":1,"phase":0,"sequence":15,"prices":[175,186,177,210,179,187,165,166,153,208],"times":[886,598,536,585,505,813,1199],"next_num":7,"trial_type":"ticket-choose","trial_index":35,"time_elapsed":385130,"internal_node_id":"0.0-35.0"},{"result":158,"points":3,"place":0,"phase":0,"sequence":16,"prices":[210,184,226,193,215,158,199,175,176,208],"times":[611,453,535,586,648,1020],"next_num":6,"trial_type":"ticket-choose","trial_index":36,"time_elapsed":392042,"internal_node_id":"0.0-36.0"},{"result":165,"points":2,"place":1,"phase":0,"sequence":17,"prices":[175,187,177,209,180,188,165,165,154,208],"times":[1053,819,531,462,569,774,1303],"next_num":7,"trial_type":"ticket-choose","trial_index":37,"time_elapsed":401054,"internal_node_id":"0.0-37.0"},{"result":163,"points":2,"place":1,"phase":0,"sequence":18,"prices":[198,193,169,163,202,182,152,164,177,171],"times":[551,429,1178,1386],"next_num":4,"trial_type":"ticket-choose","trial_index":38,"time_elapsed":407226,"internal_node_id":"0.0-38.0"},{"result":158,"points":2,"place":1,"phase":0,"sequence":19,"prices":[176,187,177,225,181,187,158,165,208,153],"times":[541,664,607,555,708,546,1287],"next_num":7,"trial_type":"ticket-choose","trial_index":39,"time_elapsed":415442,"internal_node_id":"0.0-39.0"},{"result":154,"points":3,"place":0,"phase":0,"sequence":20,"prices":[188,200,165,172,198,174,177,154,177,180],"times":[741,3673,968,525,586,604,750,1102],"next_num":8,"trial_type":"ticket-choose","trial_index":40,"time_elapsed":427946,"internal_node_id":"0.0-40.0"},{"result":158,"points":2,"place":1,"phase":0,"sequence":21,"prices":[175,186,158,211,180,187,177,166,209,153],"times":[701,2285,1408],"next_num":3,"trial_type":"ticket-choose","trial_index":41,"time_elapsed":434758,"internal_node_id":"0.0-41.0"},{"result":165,"points":3,"place":0,"phase":0,"sequence":22,"prices":[171,203,175,170,167,220,192,186,165,165],"times":[555,507,504,479,591,537,914,980,896],"next_num":9,"trial_type":"ticket-choose","trial_index":42,"time_elapsed":444309,"internal_node_id":"0.0-42.0"},{"result":152,"points":3,"place":0,"phase":0,"sequence":23,"prices":[200,181,203,152,175,171,160,154,176,191],"times":[659,519,570,1202],"next_num":4,"trial_type":"ticket-choose","trial_index":43,"time_elapsed":449831,"internal_node_id":"0.0-43.0"},{"result":143,"points":3,"place":0,"phase":0,"sequence":24,"prices":[222,173,202,197,143,205,198,183,178,186],"times":[573,620,597,531,1379],"next_num":5,"trial_type":"ticket-choose","trial_index":44,"time_elapsed":456587,"internal_node_id":"0.0-44.0"},{"result":153,"points":3,"place":0,"phase":0,"sequence":25,"prices":[175,186,178,212,179,187,167,169,209,153],"times":[646,552,683,602,566,765,741,2424,730,709],"next_num":10,"trial_type":"ticket-choose","trial_index":45,"time_elapsed":468928,"internal_node_id":"0.0-45.0"},{"result":158,"points":2,"place":1,"phase":0,"sequence":26,"prices":[175,186,177,209,181,188,158,167,208,154],"times":[604,656,561,473,552,442,1204],"next_num":7,"trial_type":"ticket-choose","trial_index":46,"time_elapsed":476763,"internal_node_id":"0.0-46.0"},{"result":184,"points":0,"place":7,"phase":0,"sequence":27,"prices":[181,215,169,147,182,193,177,184,176,179],"times":[585,425,405,489,874,507,540,979],"next_num":8,"trial_type":"ticket-choose","trial_index":47,"time_elapsed":485135,"internal_node_id":"0.0-47.0"},{"result":165,"points":3,"place":0,"phase":0,"sequence":28,"prices":[193,169,171,187,190,224,174,194,165,188],"times":[550,423,574,448,627,610,690,955,1060],"next_num":9,"trial_type":"ticket-choose","trial_index":48,"time_elapsed":494594,"internal_node_id":"0.0-48.0"},{"result":185,"points":1,"place":4,"phase":0,"sequence":29,"prices":[196,165,170,184,187,211,171,201,202,185],"times":[541,375,660,553,554,626,866,675,588,865],"next_num":10,"trial_type":"ticket-choose","trial_index":49,"time_elapsed":504791,"internal_node_id":"0.0-49.0"},{"result":167,"points":2,"place":1,"phase":0,"sequence":30,"prices":[175,185,178,215,181,186,167,168,208,156],"times":[630,744,594,694,616,546,1168],"next_num":7,"trial_type":"ticket-choose","trial_index":50,"time_elapsed":512977,"internal_node_id":"0.0-50.0"},{"result":165,"points":3,"place":0,"phase":0,"sequence":31,"prices":[193,165,175,181,185,224,180,199,218,184],"times":[646,1217],"next_num":2,"trial_type":"ticket-choose","trial_index":51,"time_elapsed":517058,"internal_node_id":"0.0-51.0"},{"result":150,"points":3,"place":0,"phase":0,"sequence":32,"prices":[189,150,175,160,188,207,158,194,178,199],"times":[640,1254],"next_num":2,"trial_type":"ticket-choose","trial_index":52,"time_elapsed":521278,"internal_node_id":"0.0-52.0"},{"result":163,"points":2,"place":1,"phase":0,"sequence":33,"prices":[175,187,163,209,180,188,176,165,154,208],"times":[814,814,1545],"next_num":3,"trial_type":"ticket-choose","trial_index":53,"time_elapsed":526869,"internal_node_id":"0.0-53.0"},{"result":163,"points":2,"place":1,"phase":0,"sequence":34,"prices":[174,186,163,212,181,187,176,166,153,209],"times":[1393,462,2047],"next_num":3,"trial_type":"ticket-choose","trial_index":54,"time_elapsed":533125,"internal_node_id":"0.0-54.0"},{"result":163,"points":2,"place":1,"phase":0,"sequence":35,"prices":[174,186,176,217,181,187,163,166,153,209],"times":[553,527,516,544,479,560,1333],"next_num":7,"trial_type":"ticket-choose","trial_index":55,"time_elapsed":540821,"internal_node_id":"0.0-55.0"},{"result":155,"points":2,"place":1,"phase":0,"sequence":36,"prices":[181,155,148,161,168,187,172,199,176,194],"times":[574,1350],"next_num":2,"trial_type":"ticket-choose","trial_index":56,"time_elapsed":544877,"internal_node_id":"0.0-56.0"},{"result":158,"points":2,"place":1,"phase":0,"sequence":37,"prices":[175,186,177,221,180,187,158,166,209,153],"times":[482,557,462,483,628,490,1303],"next_num":7,"trial_type":"ticket-choose","trial_index":57,"time_elapsed":552593,"internal_node_id":"0.0-57.0"},{"result":156,"points":3,"place":0,"phase":0,"sequence":38,"prices":[174,186,178,217,181,188,167,168,208,156],"times":[653,586,522,550,528,493,2189,877,951,730],"next_num":10,"trial_type":"ticket-choose","trial_index":58,"time_elapsed":564518,"internal_node_id":"0.0-58.0"},{"result":163,"points":3,"place":0,"phase":0,"sequence":39,"prices":[168,199,196,198,185,195,227,163,177,166],"times":[672,1008,541,364,552,446,599,1318],"next_num":8,"trial_type":"ticket-choose","trial_index":59,"time_elapsed":573506,"internal_node_id":"0.0-59.0"},{"result":169,"points":1,"place":2,"phase":0,"sequence":40,"prices":[175,186,167,225,179,187,178,169,209,153],"times":[708,537,510,542,600,609,785,2363],"next_num":8,"trial_type":"ticket-choose","trial_index":60,"time_elapsed":583658,"internal_node_id":"0.0-60.0"},{"result":157,"points":3,"place":0,"phase":0,"sequence":41,"prices":[201,187,157,184,198,179,188,185,178,170],"times":[530,594,1345],"next_num":3,"trial_type":"ticket-choose","trial_index":61,"time_elapsed":588483,"internal_node_id":"0.0-61.0"},{"result":165,"points":2,"place":1,"phase":0,"sequence":42,"prices":[201,165,162,166,185,214,165,202,204,179],"times":[573,643,527,735,541,507,1485],"next_num":7,"trial_type":"ticket-choose","trial_index":62,"time_elapsed":596898,"internal_node_id":"0.0-62.0"},{"result":163,"points":2,"place":1,"phase":0,"sequence":43,"prices":[175,186,163,214,179,187,176,166,153,208],"times":[871,469,1345],"next_num":3,"trial_type":"ticket-choose","trial_index":63,"time_elapsed":601910,"internal_node_id":"0.0-63.0"},{"result":167,"points":2,"place":1,"phase":0,"sequence":44,"prices":[212,192,188,184,167,193,189,164,176,170],"times":[502,459,672,506,1135],"next_num":5,"trial_type":"ticket-choose","trial_index":64,"time_elapsed":607954,"internal_node_id":"0.0-64.0"},{"result":165,"points":3,"place":0,"phase":0,"sequence":45,"prices":[185,170,182,201,173,199,171,188,165,168],"times":[565,516,751,525,614,569,544,564,1331],"next_num":9,"trial_type":"ticket-choose","trial_index":65,"time_elapsed":617702,"internal_node_id":"0.0-65.0"},{"result":165,"points":3,"place":0,"phase":0,"sequence":46,"prices":[192,165,171,178,188,217,172,195,197,186],"times":[1086,1115],"next_num":2,"trial_type":"ticket-choose","trial_index":66,"time_elapsed":622026,"internal_node_id":"0.0-66.0"},{"result":163,"points":2,"place":1,"phase":0,"sequence":47,"prices":[175,187,176,209,180,188,163,165,154,208],"times":[849,915,731,1628,492,556,1185],"next_num":7,"trial_type":"ticket-choose","trial_index":67,"time_elapsed":631586,"internal_node_id":"0.0-67.0"},{"result":159,"points":1,"place":2,"phase":0,"sequence":48,"prices":[180,159,149,175,185,141,163,174,178,207],"times":[515,1315],"next_num":2,"trial_type":"ticket-choose","trial_index":68,"time_elapsed":635570,"internal_node_id":"0.0-68.0"},{"result":165,"points":2,"place":1,"phase":0,"sequence":49,"prices":[175,186,165,214,179,187,177,166,153,208],"times":[1431,455,931],"next_num":3,"trial_type":"ticket-choose","trial_index":69,"time_elapsed":640622,"internal_node_id":"0.0-69.0"},{"responses":[{"value":0,"offby":-1,"category":"$115 - $130","category_index":0},{"value":0,"offby":-5,"category":"$131 - $145","category_index":1},{"value":6,"offby":-6,"category":"$146 - $160","category_index":2},{"value":45,"offby":23,"category":"$161 - $175","category_index":3},{"value":34,"offby":0,"category":"$176 - $190","category_index":4},{"value":15,"offby":0,"category":"$191 - $205","category_index":5},{"value":0,"offby":-11,"category":"$206 - $220","category_index":6}],"phase":1,"number":1,"trial_type":"bar-choose","trial_index":70,"time_elapsed":664948,"internal_node_id":"0.0-70.0"},{"rt":18934,"url":"\/christiane\/tickets\/utils\/testing2.html","trial_type":"point_update","trial_index":71,"time_elapsed":685254,"internal_node_id":"0.0-71.0"},{"phase":1,"order":[44,36,45,6,41,19,2,11,9,38,27,1,30,20,16,47,8,4,12,29,21,32,0,42,28,26,43,18,3,39,24,46,23,49,5,17,13,37,35,15,7,48,22,40,25,14,33,34,10,31],"trial_type":"store_order","trial_index":72,"time_elapsed":686255,"internal_node_id":"0.0-72.0"},{"result":159,"points":1,"place":2,"phase":1,"sequence":0,"prices":[181,159,149,175,185,151,163,174,178,207],"times":[3492,1255],"next_num":2,"trial_type":"ticket-choose","trial_index":73,"time_elapsed":693618,"internal_node_id":"0.0-73.0"},{"result":154,"points":3,"place":0,"phase":1,"sequence":1,"prices":[187,201,165,172,196,174,178,154,172,180],"times":[588,454,435,479,454,464,439,1308],"next_num":8,"trial_type":"ticket-choose","trial_index":74,"time_elapsed":701717,"internal_node_id":"0.0-74.0"},{"result":164,"points":3,"place":0,"phase":1,"sequence":2,"prices":[199,191,188,174,167,193,189,164,176,170],"times":[594,509,452,1210,615,793,588,983],"next_num":8,"trial_type":"ticket-choose","trial_index":75,"time_elapsed":710756,"internal_node_id":"0.0-75.0"},{"result":165,"points":2,"place":1,"phase":1,"sequence":3,"prices":[165,175,186,214,177,179,187,166,153,208],"times":[1261],"next_num":1,"trial_type":"ticket-choose","trial_index":76,"time_elapsed":713841,"internal_node_id":"0.0-76.0"},{"result":155,"points":2,"place":1,"phase":1,"sequence":4,"prices":[200,207,155,158,156,168,167,135,178,177],"times":[574,420,1127],"next_num":3,"trial_type":"ticket-choose","trial_index":77,"time_elapsed":718241,"internal_node_id":"0.0-77.0"},{"result":167,"points":1,"place":2,"phase":1,"sequence":5,"prices":[158,175,186,209,177,181,188,167,208,154],"times":[629,554,513,426,446,454,653,853],"next_num":8,"trial_type":"ticket-choose","trial_index":78,"time_elapsed":726141,"internal_node_id":"0.0-78.0"},{"result":169,"points":1,"place":2,"phase":1,"sequence":6,"prices":[167,175,186,225,178,179,187,169,209,153],"times":[9146,492,422,304,367,234,513,1009],"next_num":8,"trial_type":"ticket-choose","trial_index":79,"time_elapsed":742141,"internal_node_id":"0.0-79.0"},{"result":165,"points":2,"place":1,"phase":1,"sequence":7,"prices":[177,174,186,217,165,181,187,166,153,209],"times":[504,434,212,311,849],"next_num":5,"trial_type":"ticket-choose","trial_index":80,"time_elapsed":747073,"internal_node_id":"0.0-80.0"},{"result":165,"points":2,"place":1,"phase":1,"sequence":8,"prices":[177,175,186,210,165,179,187,166,153,208],"times":[523,438,290,242,965],"next_num":5,"trial_type":"ticket-choose","trial_index":81,"time_elapsed":752124,"internal_node_id":"0.0-81.0"},{"result":163,"points":3,"place":0,"phase":1,"sequence":9,"prices":[163,199,196,199,185,195,227,163,177,166],"times":[1118],"next_num":1,"trial_type":"ticket-choose","trial_index":82,"time_elapsed":755042,"internal_node_id":"0.0-82.0"},{"result":165,"points":3,"place":0,"phase":1,"sequence":10,"prices":[192,172,171,178,188,165,217,168,195,197],"times":[591,440,333,212,221,958],"next_num":6,"trial_type":"ticket-choose","trial_index":83,"time_elapsed":760514,"internal_node_id":"0.0-83.0"},{"result":167,"points":2,"place":1,"phase":1,"sequence":11,"prices":[167,175,185,224,178,181,186,168,208,156],"times":[1446],"next_num":1,"trial_type":"ticket-choose","trial_index":84,"time_elapsed":763789,"internal_node_id":"0.0-84.0"},{"result":165,"points":2,"place":1,"phase":1,"sequence":12,"prices":[191,170,182,165,175,182,203,157,195,200],"times":[682,209,548,1044],"next_num":4,"trial_type":"ticket-choose","trial_index":85,"time_elapsed":768719,"internal_node_id":"0.0-85.0"},{"result":158,"points":2,"place":1,"phase":1,"sequence":13,"prices":[158,176,187,210,177,181,187,165,208,153],"times":[1340],"next_num":1,"trial_type":"ticket-choose","trial_index":86,"time_elapsed":771988,"internal_node_id":"0.0-86.0"},{"result":163,"points":2,"place":1,"phase":1,"sequence":14,"prices":[175,187,176,209,163,180,188,165,154,208],"times":[651,562,467,447,1113],"next_num":5,"trial_type":"ticket-choose","trial_index":87,"time_elapsed":777865,"internal_node_id":"0.0-87.0"},{"result":154,"points":2,"place":1,"phase":1,"sequence":15,"prices":[200,180,203,152,175,170,160,154,176,191],"times":[588,500,254,282,896,475,455,752],"next_num":8,"trial_type":"ticket-choose","trial_index":88,"time_elapsed":785408,"internal_node_id":"0.0-88.0"},{"result":166,"points":1,"place":2,"phase":1,"sequence":16,"prices":[165,174,186,212,177,181,187,166,153,209],"times":[651,505,501,458,383,469,469,1286],"next_num":8,"trial_type":"ticket-choose","trial_index":89,"time_elapsed":793458,"internal_node_id":"0.0-89.0"},{"result":167,"points":2,"place":1,"phase":1,"sequence":17,"prices":[178,175,185,215,167,181,186,168,208,156],"times":[614,548,488,482,1191],"next_num":5,"trial_type":"ticket-choose","trial_index":90,"time_elapsed":799482,"internal_node_id":"0.0-90.0"},{"result":163,"points":2,"place":1,"phase":1,"sequence":18,"prices":[163,175,186,214,176,179,187,166,153,208],"times":[1434],"next_num":1,"trial_type":"ticket-choose","trial_index":91,"time_elapsed":802741,"internal_node_id":"0.0-91.0"},{"result":165,"points":1,"place":2,"phase":1,"sequence":19,"prices":[185,179,191,165,161,173,199,150,188,168],"times":[716,416,358,910],"next_num":4,"trial_type":"ticket-choose","trial_index":92,"time_elapsed":807598,"internal_node_id":"0.0-92.0"},{"result":158,"points":2,"place":1,"phase":1,"sequence":20,"prices":[177,175,186,221,158,180,187,166,209,153],"times":[549,398,519,483,1121],"next_num":5,"trial_type":"ticket-choose","trial_index":93,"time_elapsed":813505,"internal_node_id":"0.0-93.0"},{"result":161,"points":3,"place":0,"phase":1,"sequence":21,"prices":[193,174,224,165,187,190,224,161,194,195],"times":[809,656,718,1434,474,548,557,1403],"next_num":8,"trial_type":"ticket-choose","trial_index":94,"time_elapsed":823401,"internal_node_id":"0.0-94.0"},{"result":156,"points":3,"place":0,"phase":1,"sequence":22,"prices":[167,174,186,211,178,181,188,168,208,156],"times":[730,548,401,558,513,471,510,739,922,733],"next_num":10,"trial_type":"ticket-choose","trial_index":95,"time_elapsed":833246,"internal_node_id":"0.0-95.0"},{"result":186,"points":1,"place":4,"phase":1,"sequence":23,"prices":[220,173,201,197,169,205,198,183,178,186],"times":[865,543,444,452,797,484,597,791,474,1070],"next_num":10,"trial_type":"ticket-choose","trial_index":96,"time_elapsed":843541,"internal_node_id":"0.0-96.0"},{"result":165,"points":3,"place":0,"phase":1,"sequence":24,"prices":[196,171,170,184,187,165,211,169,201,202],"times":[736,631,538,518,425,1176],"next_num":6,"trial_type":"ticket-choose","trial_index":97,"time_elapsed":850489,"internal_node_id":"0.0-97.0"},{"result":169,"points":1,"place":3,"phase":1,"sequence":25,"prices":[200,173,182,169,207,165,152,202,161,204],"times":[831,506,526,1048],"next_num":4,"trial_type":"ticket-choose","trial_index":98,"time_elapsed":855761,"internal_node_id":"0.0-98.0"},{"result":157,"points":3,"place":0,"phase":1,"sequence":26,"prices":[201,187,157,184,198,179,188,185,178,170],"times":[681,445,1752],"next_num":3,"trial_type":"ticket-choose","trial_index":99,"time_elapsed":860849,"internal_node_id":"0.0-99.0"},{"result":166,"points":1,"place":2,"phase":1,"sequence":27,"prices":[158,175,186,211,177,180,187,166,209,153],"times":[624,749,504,345,377,439,562,1306],"next_num":8,"trial_type":"ticket-choose","trial_index":100,"time_elapsed":869130,"internal_node_id":"0.0-100.0"},{"result":168,"points":1,"place":2,"phase":1,"sequence":28,"prices":[178,174,186,217,167,181,188,168,208,156],"times":[3460,1060,2121,542,354,680,579,758],"next_num":8,"trial_type":"ticket-choose","trial_index":101,"time_elapsed":881969,"internal_node_id":"0.0-101.0"},{"result":167,"points":2,"place":1,"phase":1,"sequence":29,"prices":[189,167,180,197,165,168,172,213,178,171],"times":[608,1933],"next_num":2,"trial_type":"ticket-choose","trial_index":102,"time_elapsed":886581,"internal_node_id":"0.0-102.0"},{"result":165,"points":3,"place":0,"phase":1,"sequence":30,"prices":[193,181,175,181,185,165,224,199,218,184],"times":[569,524,782,451,448,1010],"next_num":6,"trial_type":"ticket-choose","trial_index":103,"time_elapsed":893212,"internal_node_id":"0.0-103.0"},{"result":158,"points":3,"place":0,"phase":1,"sequence":31,"prices":[214,184,226,192,215,158,199,175,176,208],"times":[798,390,414,526,360,957],"next_num":6,"trial_type":"ticket-choose","trial_index":104,"time_elapsed":899657,"internal_node_id":"0.0-104.0"},{"result":165,"points":1,"place":2,"phase":1,"sequence":32,"prices":[177,176,187,225,158,181,187,165,208,153],"times":[930,791,454,392,317,593,518,757],"next_num":8,"trial_type":"ticket-choose","trial_index":105,"time_elapsed":907733,"internal_node_id":"0.0-105.0"},{"result":163,"points":1,"place":2,"phase":1,"sequence":33,"prices":[173,163,185,181,166,148,160,185,176,184],"times":[608,1026],"next_num":2,"trial_type":"ticket-choose","trial_index":106,"time_elapsed":911357,"internal_node_id":"0.0-106.0"},{"result":167,"points":2,"place":1,"phase":1,"sequence":34,"prices":[178,175,186,212,167,179,187,169,209,153],"times":[564,464,857,613,989],"next_num":5,"trial_type":"ticket-choose","trial_index":107,"time_elapsed":917517,"internal_node_id":"0.0-107.0"},{"result":163,"points":2,"place":1,"phase":1,"sequence":35,"prices":[174,186,176,217,163,181,187,166,153,209],"times":[623,733,521,1288,961],"next_num":5,"trial_type":"ticket-choose","trial_index":108,"time_elapsed":924245,"internal_node_id":"0.0-108.0"},{"result":163,"points":2,"place":1,"phase":1,"sequence":36,"prices":[163,175,187,209,176,180,188,165,154,208],"times":[1522],"next_num":1,"trial_type":"ticket-choose","trial_index":109,"time_elapsed":927681,"internal_node_id":"0.0-109.0"},{"result":165,"points":1,"place":2,"phase":1,"sequence":37,"prices":[199,193,169,165,202,182,151,164,176,171],"times":[583,300,326,961],"next_num":4,"trial_type":"ticket-choose","trial_index":110,"time_elapsed":932402,"internal_node_id":"0.0-110.0"},{"result":143,"points":3,"place":0,"phase":1,"sequence":38,"prices":[167,153,172,185,195,143,184,211,177,227],"times":[1010,426,636,462,406,1160],"next_num":6,"trial_type":"ticket-choose","trial_index":111,"time_elapsed":939524,"internal_node_id":"0.0-111.0"},{"result":163,"points":2,"place":1,"phase":1,"sequence":39,"prices":[176,175,186,210,163,179,187,166,153,208],"times":[568,524,454,501,929],"next_num":5,"trial_type":"ticket-choose","trial_index":112,"time_elapsed":945099,"internal_node_id":"0.0-112.0"},{"result":165,"points":2,"place":1,"phase":1,"sequence":40,"prices":[165,175,187,209,177,180,188,167,154,208],"times":[1363],"next_num":1,"trial_type":"ticket-choose","trial_index":113,"time_elapsed":948256,"internal_node_id":"0.0-113.0"},{"result":176,"points":1,"place":2,"phase":1,"sequence":41,"prices":[181,214,169,147,182,193,178,184,176,179],"times":[709,551,620,502,638,484,674,613,771],"next_num":9,"trial_type":"ticket-choose","trial_index":114,"time_elapsed":957328,"internal_node_id":"0.0-114.0"},{"result":158,"points":2,"place":1,"phase":1,"sequence":42,"prices":[177,175,186,209,158,181,188,167,208,154],"times":[754,463,541,482,1162],"next_num":5,"trial_type":"ticket-choose","trial_index":115,"time_elapsed":963344,"internal_node_id":"0.0-115.0"},{"result":150,"points":3,"place":0,"phase":1,"sequence":43,"prices":[190,150,175,161,188,207,157,194,178,199],"times":[730,1935],"next_num":2,"trial_type":"ticket-choose","trial_index":116,"time_elapsed":968140,"internal_node_id":"0.0-116.0"},{"result":166,"points":1,"place":3,"phase":1,"sequence":44,"prices":[201,204,179,166,185,165,214,156,202,165],"times":[585,421,506,1230],"next_num":4,"trial_type":"ticket-choose","trial_index":117,"time_elapsed":973356,"internal_node_id":"0.0-117.0"},{"result":163,"points":2,"place":1,"phase":1,"sequence":45,"prices":[163,174,186,212,176,181,187,166,153,209],"times":[1218],"next_num":1,"trial_type":"ticket-choose","trial_index":118,"time_elapsed":976480,"internal_node_id":"0.0-118.0"},{"result":165,"points":2,"place":1,"phase":1,"sequence":46,"prices":[183,179,188,165,168,173,205,159,187,191],"times":[725,403,441,790],"next_num":4,"trial_type":"ticket-choose","trial_index":119,"time_elapsed":981307,"internal_node_id":"0.0-119.0"},{"result":156,"points":2,"place":1,"phase":1,"sequence":47,"prices":[180,156,149,160,168,186,172,198,176,195],"times":[554,1066],"next_num":2,"trial_type":"ticket-choose","trial_index":120,"time_elapsed":985092,"internal_node_id":"0.0-120.0"},{"result":165,"points":2,"place":1,"phase":1,"sequence":48,"prices":[177,175,187,209,165,180,188,165,154,208],"times":[662,459,468,611,709,476,464,957],"next_num":8,"trial_type":"ticket-choose","trial_index":121,"time_elapsed":993219,"internal_node_id":"0.0-121.0"},{"result":165,"points":1,"place":2,"phase":1,"sequence":49,"prices":[171,169,186,165,163,167,220,148,187,165],"times":[639,458,544,1047],"next_num":4,"trial_type":"ticket-choose","trial_index":122,"time_elapsed":998312,"internal_node_id":"0.0-122.0"},{"responses":[{"value":0,"offby":-1,"category":"$115 - $130","category_index":0},{"value":0,"offby":-5,"category":"$131 - $145","category_index":1},{"value":17,"offby":5,"category":"$146 - $160","category_index":2},{"value":74,"offby":52,"category":"$161 - $175","category_index":3},{"value":9,"offby":-25,"category":"$176 - $190","category_index":4},{"value":0,"offby":-15,"category":"$191 - $205","category_index":5},{"value":0,"offby":-11,"category":"$206 - $220","category_index":6}],"phase":1,"number":1,"trial_type":"bar-choose","trial_index":123,"time_elapsed":1013522,"internal_node_id":"0.0-123.0"},{"special_comment":"no","trial_type":"special_sequence","trial_index":124,"time_elapsed":1018236,"internal_node_id":"0.0-124.0"},{"during":"Talking with a friend","bonus":272,"trial_type":"final","trial_index":125,"time_elapsed":1036066,"internal_node_id":"0.0-125.0"}],"bonus":272}