{"start_time":"2017-05-23 09:50:46","end_time":"2017-05-23 10:13:11","points_phase0":122,"points_phase1":105,"phase_order":0,"age":24,"gender":"m","tries":2,"during":"Nothing","worker_id":"A3EWTW55UCNAHG","assignment_id":"3NQL1CS15S16YE79D5CPBA02X27YVH","data":[{"rt":5787,"url":"\/christiane\/tickets\/utils\/consent.html","trial_type":"html","trial_index":0,"time_elapsed":5861,"internal_node_id":"0.0-0.0"},{"age":24,"gender":"m","trial_type":"age","trial_index":1,"time_elapsed":11722,"internal_node_id":"0.0-1.0"},{"worker_id":"A3EWTW55UCNAHG","trial_type":"workerid","trial_index":2,"time_elapsed":25753,"internal_node_id":"0.0-2.0"},{"tries":2,"trial_type":"instructions_check","trial_index":3,"time_elapsed":56433,"internal_node_id":"0.0-3.0"},{"rt":9932,"url":"\/christiane\/tickets\/utils\/start.html","trial_type":"html","trial_index":4,"time_elapsed":67447,"internal_node_id":"0.0-4.0"},{"trial_type":"number-animation","trial_index":5,"time_elapsed":79246,"internal_node_id":"0.0-5.0"},{"phase":0,"sequence":0,"avg":181,"response":180,"trial_type":"training_avg","trial_index":6,"time_elapsed":90678,"internal_node_id":"0.0-6.0"},{"trial_type":"number-animation","trial_index":7,"time_elapsed":101093,"internal_node_id":"0.0-7.0"},{"phase":0,"sequence":1,"avg":188,"response":183,"trial_type":"training_avg","trial_index":8,"time_elapsed":111099,"internal_node_id":"0.0-8.0"},{"trial_type":"number-animation","trial_index":9,"time_elapsed":124346,"internal_node_id":"0.0-9.0"},{"phase":0,"sequence":2,"avg":188,"response":189,"trial_type":"training_avg","trial_index":10,"time_elapsed":131413,"internal_node_id":"0.0-10.0"},{"trial_type":"number-animation","trial_index":11,"time_elapsed":145653,"internal_node_id":"0.0-11.0"},{"phase":0,"sequence":3,"avg":177,"response":178,"trial_type":"training_avg","trial_index":12,"time_elapsed":154309,"internal_node_id":"0.0-12.0"},{"trial_type":"number-animation","trial_index":13,"time_elapsed":167969,"internal_node_id":"0.0-13.0"},{"phase":0,"sequence":4,"avg":182,"response":184,"trial_type":"training_avg","trial_index":14,"time_elapsed":174907,"internal_node_id":"0.0-14.0"},{"responses":[{"value":0,"offby":-1,"category":"$115 - $130","category_index":0},{"value":0,"offby":-5,"category":"$131 - $145","category_index":1},{"value":10,"offby":-2,"category":"$146 - $160","category_index":2},{"value":25,"offby":3,"category":"$161 - $175","category_index":3},{"value":35,"offby":1,"category":"$176 - $190","category_index":4},{"value":15,"offby":0,"category":"$191 - $205","category_index":5},{"value":5,"offby":-6,"category":"$206 - $220","category_index":6},{"value":10,"offby":null,"category":"$201 - $210","category_index":7}],"phase":0,"number":0,"trial_type":"bar-choose","trial_index":15,"time_elapsed":244635,"internal_node_id":"0.0-15.0"},{"rt":11638,"url":"\/christiane\/tickets\/utils\/testing.html","trial_type":"html","trial_index":16,"time_elapsed":257354,"internal_node_id":"0.0-16.0"},{"phase":0,"order":[49,28,2,16,1,22,3,43,38,32,45,34,5,6,27,26,23,4,36,19,31,29,7,20,21,44,33,40,42,24,39,48,41,11,25,15,17,35,0,9,8,13,47,30,10,14,37,12,18,46],"trial_type":"store_order","trial_index":17,"time_elapsed":258355,"internal_node_id":"0.0-17.0"},{"result":165,"points":2,"place":1,"phase":0,"sequence":-1,"prices":[184,180,224,165,181,199,185,193,218,146],"times":[1784,711,727,2410],"next_num":4,"trial_type":"ticket-choose","trial_index":18,"time_elapsed":267511,"internal_node_id":"0.0-18.0"},{"rt":18199,"url":"\/christiane\/tickets\/utils\/testing_after.html","trial_type":"html","trial_index":19,"time_elapsed":286791,"internal_node_id":"0.0-19.0"},{"result":163,"points":1,"place":2,"phase":0,"sequence":0,"prices":[183,163,185,180,166,148,160,186,176,184],"times":[1758,2048],"next_num":2,"trial_type":"ticket-choose","trial_index":20,"time_elapsed":293432,"internal_node_id":"0.0-20.0"},{"result":185,"points":1,"place":4,"phase":0,"sequence":1,"prices":[196,165,170,184,187,211,171,201,202,185],"times":[1019,943,764,751,732,734,782,726,901,972],"next_num":11,"trial_type":"ticket-choose","trial_index":21,"time_elapsed":308727,"internal_node_id":"0.0-21.0"},{"result":167,"points":2,"place":1,"phase":0,"sequence":2,"prices":[175,186,167,225,179,187,178,169,209,153],"times":[2281,765,1537],"next_num":3,"trial_type":"ticket-choose","trial_index":22,"time_elapsed":316160,"internal_node_id":"0.0-22.0"},{"result":163,"points":2,"place":1,"phase":0,"sequence":3,"prices":[175,187,176,209,180,188,163,165,154,208],"times":[1504,686,757,678,743,722,1089],"next_num":7,"trial_type":"ticket-choose","trial_index":23,"time_elapsed":325774,"internal_node_id":"0.0-23.0"},{"result":156,"points":3,"place":0,"phase":0,"sequence":4,"prices":[175,185,167,224,181,186,178,168,208,156],"times":[893,687,805,639,650,638,694,1521,653,854],"next_num":10,"trial_type":"ticket-choose","trial_index":24,"time_elapsed":338328,"internal_node_id":"0.0-24.0"},{"result":158,"points":2,"place":1,"phase":0,"sequence":5,"prices":[175,186,177,209,181,188,158,167,208,154],"times":[1288,728,813,751,876,790,1019],"next_num":7,"trial_type":"ticket-choose","trial_index":25,"time_elapsed":348188,"internal_node_id":"0.0-25.0"},{"result":167,"points":2,"place":1,"phase":0,"sequence":6,"prices":[174,186,178,217,181,188,167,168,208,156],"times":[1395,861,846,775,759,796,1744],"next_num":7,"trial_type":"ticket-choose","trial_index":26,"time_elapsed":359110,"internal_node_id":"0.0-26.0"},{"result":157,"points":3,"place":0,"phase":0,"sequence":7,"prices":[201,187,157,184,198,179,188,185,178,170],"times":[1017,855,1161],"next_num":3,"trial_type":"ticket-choose","trial_index":27,"time_elapsed":365483,"internal_node_id":"0.0-27.0"},{"result":163,"points":3,"place":0,"phase":0,"sequence":8,"prices":[168,199,196,198,185,195,227,163,177,166],"times":[1192,694,720,663,767,670,649,1003],"next_num":8,"trial_type":"ticket-choose","trial_index":28,"time_elapsed":375563,"internal_node_id":"0.0-28.0"},{"result":165,"points":3,"place":0,"phase":0,"sequence":9,"prices":[193,169,171,187,190,224,174,194,165,188],"times":[1640,1599,646,711,782,648,797,631,1101],"next_num":9,"trial_type":"ticket-choose","trial_index":29,"time_elapsed":388253,"internal_node_id":"0.0-29.0"},{"result":164,"points":3,"place":0,"phase":0,"sequence":10,"prices":[212,192,188,184,167,193,189,164,176,170],"times":[901,696,710,710,3195,671,743,1013],"next_num":8,"trial_type":"ticket-choose","trial_index":30,"time_elapsed":400514,"internal_node_id":"0.0-30.0"},{"result":155,"points":2,"place":1,"phase":0,"sequence":11,"prices":[181,155,148,161,168,187,172,199,176,194],"times":[1068,1029],"next_num":2,"trial_type":"ticket-choose","trial_index":31,"time_elapsed":406358,"internal_node_id":"0.0-31.0"},{"result":153,"points":3,"place":0,"phase":0,"sequence":12,"prices":[175,186,178,212,179,187,167,169,209,153],"times":[1000,798,711,734,814,742,1172,831,742,1029],"next_num":10,"trial_type":"ticket-choose","trial_index":32,"time_elapsed":419095,"internal_node_id":"0.0-32.0"},{"result":153,"points":3,"place":0,"phase":0,"sequence":13,"prices":[175,186,165,214,179,187,177,166,153,208],"times":[1694,767,1035,719,742,712,832,970,1013],"next_num":9,"trial_type":"ticket-choose","trial_index":33,"time_elapsed":431386,"internal_node_id":"0.0-33.0"},{"result":186,"points":1,"place":4,"phase":0,"sequence":14,"prices":[192,165,171,178,188,217,172,195,197,186],"times":[1148,790,671,727,689,711,710,758,600,702],"next_num":11,"trial_type":"ticket-choose","trial_index":34,"time_elapsed":443719,"internal_node_id":"0.0-34.0"},{"result":165,"points":2,"place":1,"phase":0,"sequence":15,"prices":[200,165,165,173,182,207,161,202,204,180],"times":[1250,2028],"next_num":2,"trial_type":"ticket-choose","trial_index":35,"time_elapsed":449424,"internal_node_id":"0.0-35.0"},{"result":158,"points":2,"place":1,"phase":0,"sequence":16,"prices":[176,187,177,225,181,187,158,165,208,153],"times":[995,702,733,663,716,718,1083],"next_num":7,"trial_type":"ticket-choose","trial_index":36,"time_elapsed":458279,"internal_node_id":"0.0-36.0"},{"result":167,"points":2,"place":1,"phase":0,"sequence":17,"prices":[175,185,178,215,181,186,167,168,208,156],"times":[1163,621,783,783,932,799,1346],"next_num":7,"trial_type":"ticket-choose","trial_index":37,"time_elapsed":467982,"internal_node_id":"0.0-37.0"},{"result":154,"points":3,"place":0,"phase":0,"sequence":18,"prices":[188,200,165,172,198,174,177,154,177,180],"times":[1845,710,2979,615,677,644,645,1335],"next_num":8,"trial_type":"ticket-choose","trial_index":38,"time_elapsed":480960,"internal_node_id":"0.0-38.0"},{"result":158,"points":2,"place":1,"phase":0,"sequence":19,"prices":[175,186,158,209,181,188,177,167,208,154],"times":[592,743,1099],"next_num":3,"trial_type":"ticket-choose","trial_index":39,"time_elapsed":485752,"internal_node_id":"0.0-39.0"},{"result":165,"points":3,"place":0,"phase":0,"sequence":20,"prices":[171,203,175,170,167,220,192,186,165,165],"times":[1233,734,736,630,1275,622,656,751,1005],"next_num":9,"trial_type":"ticket-choose","trial_index":40,"time_elapsed":497172,"internal_node_id":"0.0-40.0"},{"result":165,"points":3,"place":0,"phase":0,"sequence":21,"prices":[185,170,182,201,173,199,171,188,165,168],"times":[981,885,726,664,686,672,1099,695,1045],"next_num":9,"trial_type":"ticket-choose","trial_index":41,"time_elapsed":508370,"internal_node_id":"0.0-41.0"},{"result":166,"points":1,"place":2,"phase":0,"sequence":22,"prices":[175,187,165,209,180,188,177,166,154,208],"times":[949,915,985,613,686,704,734,1092],"next_num":8,"trial_type":"ticket-choose","trial_index":42,"time_elapsed":518653,"internal_node_id":"0.0-42.0"},{"result":158,"points":2,"place":1,"phase":0,"sequence":23,"prices":[176,187,158,210,181,187,177,165,208,153],"times":[990,2053,1052],"next_num":3,"trial_type":"ticket-choose","trial_index":43,"time_elapsed":525107,"internal_node_id":"0.0-43.0"},{"result":158,"points":2,"place":1,"phase":0,"sequence":24,"prices":[175,186,177,221,180,187,158,166,209,153],"times":[1441,569,630,641,632,671,1123],"next_num":7,"trial_type":"ticket-choose","trial_index":44,"time_elapsed":534098,"internal_node_id":"0.0-44.0"},{"result":159,"points":1,"place":2,"phase":0,"sequence":25,"prices":[180,159,149,175,185,141,163,174,178,207],"times":[823,1140],"next_num":2,"trial_type":"ticket-choose","trial_index":45,"time_elapsed":539020,"internal_node_id":"0.0-45.0"},{"result":165,"points":3,"place":0,"phase":0,"sequence":26,"prices":[183,182,192,168,173,205,167,187,165,170],"times":[844,609,608,974,639,663,1402,678,1116],"next_num":9,"trial_type":"ticket-choose","trial_index":46,"time_elapsed":550346,"internal_node_id":"0.0-46.0"},{"result":150,"points":3,"place":0,"phase":0,"sequence":27,"prices":[189,150,175,160,188,207,158,194,178,199],"times":[1197,979],"next_num":2,"trial_type":"ticket-choose","trial_index":47,"time_elapsed":555394,"internal_node_id":"0.0-47.0"},{"result":143,"points":3,"place":0,"phase":0,"sequence":28,"prices":[222,173,202,197,143,205,198,183,178,186],"times":[886,845,631,664,1195],"next_num":5,"trial_type":"ticket-choose","trial_index":48,"time_elapsed":562695,"internal_node_id":"0.0-48.0"},{"result":184,"points":1,"place":4,"phase":0,"sequence":29,"prices":[193,165,175,181,185,224,180,199,218,184],"times":[1168,901,670,639,639,648,673,630,672,687],"next_num":11,"trial_type":"ticket-choose","trial_index":49,"time_elapsed":574336,"internal_node_id":"0.0-49.0"},{"result":165,"points":3,"place":0,"phase":0,"sequence":30,"prices":[189,167,180,197,165,168,172,213,178,171],"times":[1013,1188,615,631,1750],"next_num":5,"trial_type":"ticket-choose","trial_index":50,"time_elapsed":583020,"internal_node_id":"0.0-50.0"},{"result":147,"points":3,"place":0,"phase":0,"sequence":31,"prices":[181,215,169,147,182,193,177,184,176,179],"times":[2815,927,2013,1101],"next_num":4,"trial_type":"ticket-choose","trial_index":51,"time_elapsed":593065,"internal_node_id":"0.0-51.0"},{"result":155,"points":2,"place":1,"phase":0,"sequence":32,"prices":[201,207,155,158,156,165,167,135,178,177],"times":[1122,608,1021],"next_num":3,"trial_type":"ticket-choose","trial_index":52,"time_elapsed":598670,"internal_node_id":"0.0-52.0"},{"result":153,"points":3,"place":0,"phase":0,"sequence":33,"prices":[174,186,177,217,181,187,165,166,153,209],"times":[3262,1179,624,656,686,601,973,838,984],"next_num":9,"trial_type":"ticket-choose","trial_index":53,"time_elapsed":612563,"internal_node_id":"0.0-53.0"},{"result":162,"points":3,"place":0,"phase":0,"sequence":34,"prices":[201,165,162,166,185,214,165,202,204,179],"times":[3274,1299,1077],"next_num":3,"trial_type":"ticket-choose","trial_index":54,"time_elapsed":621080,"internal_node_id":"0.0-54.0"},{"result":163,"points":2,"place":1,"phase":0,"sequence":35,"prices":[175,186,176,210,179,187,163,166,153,208],"times":[927,1299,909,878,678,766,1124],"next_num":7,"trial_type":"ticket-choose","trial_index":55,"time_elapsed":631114,"internal_node_id":"0.0-55.0"},{"result":153,"points":3,"place":0,"phase":0,"sequence":36,"prices":[174,186,176,217,181,187,163,166,153,209],"times":[1094,792,766,728,703,689,788,695,933],"next_num":9,"trial_type":"ticket-choose","trial_index":56,"time_elapsed":643739,"internal_node_id":"0.0-56.0"},{"result":154,"points":2,"place":1,"phase":0,"sequence":37,"prices":[168,154,172,185,195,144,184,211,177,227],"times":[1729,1455],"next_num":2,"trial_type":"ticket-choose","trial_index":57,"time_elapsed":649355,"internal_node_id":"0.0-57.0"},{"result":156,"points":3,"place":0,"phase":0,"sequence":38,"prices":[174,186,167,211,181,188,178,168,208,156],"times":[1742,608,1862,609,671,640,782,1133,687,790],"next_num":10,"trial_type":"ticket-choose","trial_index":58,"time_elapsed":663168,"internal_node_id":"0.0-58.0"},{"result":153,"points":3,"place":0,"phase":0,"sequence":39,"prices":[175,186,177,210,179,187,165,166,153,208],"times":[2855,759,658,743,681,653,1489,774,919],"next_num":9,"trial_type":"ticket-choose","trial_index":59,"time_elapsed":676709,"internal_node_id":"0.0-59.0"},{"result":153,"points":3,"place":0,"phase":0,"sequence":40,"prices":[174,186,165,212,181,187,177,167,153,209],"times":[1669,791,974,689,647,608,705,742,935],"next_num":9,"trial_type":"ticket-choose","trial_index":60,"time_elapsed":688439,"internal_node_id":"0.0-60.0"},{"result":154,"points":3,"place":0,"phase":0,"sequence":41,"prices":[175,187,163,209,180,188,176,165,154,208],"times":[855,615,1267,613,648,711,632,890,1018],"next_num":9,"trial_type":"ticket-choose","trial_index":61,"time_elapsed":699499,"internal_node_id":"0.0-61.0"},{"result":152,"points":3,"place":0,"phase":0,"sequence":42,"prices":[200,181,203,152,175,171,160,154,176,191],"times":[1060,615,696,1101],"next_num":4,"trial_type":"ticket-choose","trial_index":62,"time_elapsed":705745,"internal_node_id":"0.0-62.0"},{"result":165,"points":3,"place":0,"phase":0,"sequence":43,"prices":[191,172,169,175,182,203,170,195,165,176],"times":[695,649,694,776,791,775,671,681,2205],"next_num":9,"trial_type":"ticket-choose","trial_index":63,"time_elapsed":718368,"internal_node_id":"0.0-63.0"},{"result":165,"points":2,"place":1,"phase":0,"sequence":44,"prices":[175,187,177,209,180,188,165,165,154,208],"times":[824,694,679,655,584,767,2378],"next_num":7,"trial_type":"ticket-choose","trial_index":64,"time_elapsed":728498,"internal_node_id":"0.0-64.0"},{"result":153,"points":3,"place":0,"phase":0,"sequence":45,"prices":[174,186,163,212,181,187,176,166,153,209],"times":[1482,672,1108,600,657,640,657,671,1330],"next_num":9,"trial_type":"ticket-choose","trial_index":65,"time_elapsed":740146,"internal_node_id":"0.0-65.0"},{"result":152,"points":3,"place":0,"phase":0,"sequence":46,"prices":[198,193,169,163,202,182,152,164,177,171],"times":[1155,814,879,846,665,616,1037],"next_num":7,"trial_type":"ticket-choose","trial_index":66,"time_elapsed":749952,"internal_node_id":"0.0-66.0"},{"result":153,"points":3,"place":0,"phase":0,"sequence":47,"prices":[175,186,163,214,179,187,176,166,153,208],"times":[789,704,812,663,666,647,672,672,943],"next_num":9,"trial_type":"ticket-choose","trial_index":67,"time_elapsed":760379,"internal_node_id":"0.0-67.0"},{"result":158,"points":2,"place":1,"phase":0,"sequence":48,"prices":[175,186,158,211,180,187,177,166,209,153],"times":[1102,577,1489],"next_num":3,"trial_type":"ticket-choose","trial_index":68,"time_elapsed":766318,"internal_node_id":"0.0-68.0"},{"result":158,"points":3,"place":0,"phase":0,"sequence":49,"prices":[210,184,226,193,215,158,199,175,176,208],"times":[1506,606,695,608,639,1068],"next_num":6,"trial_type":"ticket-choose","trial_index":69,"time_elapsed":774765,"internal_node_id":"0.0-69.0"},{"responses":[{"value":2,"offby":1,"category":"$115 - $130","category_index":0},{"value":8,"offby":3,"category":"$131 - $145","category_index":1},{"value":16,"offby":4,"category":"$146 - $160","category_index":2},{"value":23,"offby":1,"category":"$161 - $175","category_index":3},{"value":28,"offby":-6,"category":"$176 - $190","category_index":4},{"value":21,"offby":6,"category":"$191 - $205","category_index":5},{"value":2,"offby":-9,"category":"$206 - $220","category_index":6},{"value":0,"offby":null,"category":"$201 - $210","category_index":7}],"phase":1,"number":1,"trial_type":"bar-choose","trial_index":70,"time_elapsed":820949,"internal_node_id":"0.0-70.0"},{"rt":5395,"url":"\/christiane\/tickets\/utils\/testing2.html","trial_type":"point_update","trial_index":71,"time_elapsed":827530,"internal_node_id":"0.0-71.0"},{"phase":1,"order":[20,28,2,6,18,4,21,49,26,7,3,36,35,25,41,27,12,1,31,5,17,19,45,38,14,9,48,33,44,34,32,23,46,37,8,30,11,40,47,15,0,43,16,29,39,24,13,22,10,42],"trial_type":"store_order","trial_index":72,"time_elapsed":828532,"internal_node_id":"0.0-72.0"},{"result":158,"points":2,"place":1,"phase":1,"sequence":0,"prices":[158,176,187,210,177,181,187,165,208,153],"times":[1853],"next_num":1,"trial_type":"ticket-choose","trial_index":73,"time_elapsed":832514,"internal_node_id":"0.0-73.0"},{"result":202,"points":0,"place":8,"phase":1,"sequence":1,"prices":[196,171,170,184,187,165,211,169,201,202],"times":[1028,648,576,590,625,1063,660,750,609,726],"next_num":11,"trial_type":"ticket-choose","trial_index":74,"time_elapsed":844256,"internal_node_id":"0.0-74.0"},{"result":169,"points":1,"place":2,"phase":1,"sequence":2,"prices":[167,175,186,225,178,179,187,169,209,153],"times":[1119,721,702,584,584,648,757,934],"next_num":8,"trial_type":"ticket-choose","trial_index":75,"time_elapsed":853911,"internal_node_id":"0.0-75.0"},{"result":166,"points":1,"place":2,"phase":1,"sequence":3,"prices":[165,175,186,214,177,179,187,166,153,208],"times":[1141,649,701,646,624,617,640,1498],"next_num":8,"trial_type":"ticket-choose","trial_index":76,"time_elapsed":864084,"internal_node_id":"0.0-76.0"},{"result":158,"points":2,"place":1,"phase":1,"sequence":4,"prices":[158,175,186,211,177,180,187,166,209,153],"times":[1085],"next_num":1,"trial_type":"ticket-choose","trial_index":77,"time_elapsed":867140,"internal_node_id":"0.0-77.0"},{"result":156,"points":3,"place":0,"phase":1,"sequence":5,"prices":[178,175,185,215,167,181,186,168,208,156],"times":[1101,805,703,695,855,696,639,966,718,935],"next_num":10,"trial_type":"ticket-choose","trial_index":78,"time_elapsed":879338,"internal_node_id":"0.0-78.0"},{"result":158,"points":2,"place":1,"phase":1,"sequence":6,"prices":[177,175,186,221,158,180,187,166,209,153],"times":[2529,861,632,639,1188],"next_num":5,"trial_type":"ticket-choose","trial_index":79,"time_elapsed":888275,"internal_node_id":"0.0-79.0"},{"result":163,"points":1,"place":2,"phase":1,"sequence":7,"prices":[173,163,185,181,166,148,160,185,176,184],"times":[736,1387],"next_num":2,"trial_type":"ticket-choose","trial_index":80,"time_elapsed":892784,"internal_node_id":"0.0-80.0"},{"result":165,"points":1,"place":2,"phase":1,"sequence":8,"prices":[200,173,182,169,207,165,152,202,161,204],"times":[538,749,702,981,766,1515],"next_num":6,"trial_type":"ticket-choose","trial_index":81,"time_elapsed":901316,"internal_node_id":"0.0-81.0"},{"result":154,"points":3,"place":0,"phase":1,"sequence":9,"prices":[165,175,187,209,177,180,188,167,154,208],"times":[791,624,655,633,634,598,568,1268,949],"next_num":9,"trial_type":"ticket-choose","trial_index":82,"time_elapsed":911906,"internal_node_id":"0.0-82.0"},{"result":156,"points":3,"place":0,"phase":1,"sequence":10,"prices":[178,174,186,217,167,181,188,168,208,156],"times":[2941,703,615,672,1156,616,599,975,694,776],"next_num":10,"trial_type":"ticket-choose","trial_index":83,"time_elapsed":926281,"internal_node_id":"0.0-83.0"},{"result":165,"points":2,"place":1,"phase":1,"sequence":11,"prices":[187,201,165,172,196,174,178,154,172,180],"times":[813,642,1940],"next_num":3,"trial_type":"ticket-choose","trial_index":84,"time_elapsed":932217,"internal_node_id":"0.0-84.0"},{"result":153,"points":2,"place":1,"phase":1,"sequence":12,"prices":[167,153,172,185,195,143,184,211,177,227],"times":[2889,1035],"next_num":2,"trial_type":"ticket-choose","trial_index":85,"time_elapsed":938736,"internal_node_id":"0.0-85.0"},{"result":156,"points":3,"place":0,"phase":1,"sequence":13,"prices":[201,204,179,166,185,165,214,156,202,165],"times":[839,649,632,839,768,805,664,869],"next_num":8,"trial_type":"ticket-choose","trial_index":86,"time_elapsed":948379,"internal_node_id":"0.0-86.0"},{"result":155,"points":2,"place":1,"phase":1,"sequence":14,"prices":[200,207,155,158,156,168,167,135,178,177],"times":[1203,1528,1109],"next_num":3,"trial_type":"ticket-choose","trial_index":87,"time_elapsed":954642,"internal_node_id":"0.0-87.0"},{"result":197,"points":0,"place":8,"phase":1,"sequence":15,"prices":[192,172,171,178,188,165,217,168,195,197],"times":[673,704,747,679,725,1607,639,743,696,1146],"next_num":10,"trial_type":"ticket-choose","trial_index":88,"time_elapsed":966929,"internal_node_id":"0.0-88.0"},{"result":153,"points":3,"place":0,"phase":1,"sequence":16,"prices":[163,175,186,214,176,179,187,166,153,208],"times":[1005,703,664,711,633,701,648,885,717],"next_num":9,"trial_type":"ticket-choose","trial_index":89,"time_elapsed":977316,"internal_node_id":"0.0-89.0"},{"result":168,"points":1,"place":2,"phase":1,"sequence":17,"prices":[167,175,185,224,178,181,186,168,208,156],"times":[901,583,623,656,768,630,997,2113],"next_num":8,"trial_type":"ticket-choose","trial_index":90,"time_elapsed":988378,"internal_node_id":"0.0-90.0"},{"result":165,"points":1,"place":2,"phase":1,"sequence":18,"prices":[171,169,186,165,163,167,220,148,187,165],"times":[853,488,590,2075],"next_num":4,"trial_type":"ticket-choose","trial_index":91,"time_elapsed":995152,"internal_node_id":"0.0-91.0"},{"result":153,"points":3,"place":0,"phase":1,"sequence":19,"prices":[178,175,186,212,167,179,187,169,209,153],"times":[2211,1535,712,687,1275,750,640,776,622,902],"next_num":10,"trial_type":"ticket-choose","trial_index":92,"time_elapsed":1009308,"internal_node_id":"0.0-92.0"},{"result":163,"points":2,"place":1,"phase":1,"sequence":20,"prices":[174,186,176,217,163,181,187,166,153,209],"times":[1228,589,610,641,1433],"next_num":5,"trial_type":"ticket-choose","trial_index":93,"time_elapsed":1016816,"internal_node_id":"0.0-93.0"},{"result":158,"points":2,"place":1,"phase":1,"sequence":21,"prices":[158,175,186,209,177,181,188,167,208,154],"times":[1237],"next_num":1,"trial_type":"ticket-choose","trial_index":94,"time_elapsed":1020061,"internal_node_id":"0.0-94.0"},{"result":164,"points":3,"place":0,"phase":1,"sequence":22,"prices":[199,191,188,174,167,193,189,164,176,170],"times":[953,584,622,1766,838,727,609,1465],"next_num":8,"trial_type":"ticket-choose","trial_index":95,"time_elapsed":1031569,"internal_node_id":"0.0-95.0"},{"result":163,"points":3,"place":0,"phase":1,"sequence":23,"prices":[163,199,196,199,185,195,227,163,177,166],"times":[1457,513,599,703,616,574,609,949],"next_num":8,"trial_type":"ticket-choose","trial_index":96,"time_elapsed":1041332,"internal_node_id":"0.0-96.0"},{"result":163,"points":2,"place":1,"phase":1,"sequence":24,"prices":[163,174,186,212,176,181,187,166,153,209],"times":[2077],"next_num":1,"trial_type":"ticket-choose","trial_index":97,"time_elapsed":1045532,"internal_node_id":"0.0-97.0"},{"result":165,"points":2,"place":1,"phase":1,"sequence":25,"prices":[177,175,186,210,165,179,187,166,153,208],"times":[2183,1234,617,624,1092],"next_num":5,"trial_type":"ticket-choose","trial_index":98,"time_elapsed":1054243,"internal_node_id":"0.0-98.0"},{"result":147,"points":3,"place":0,"phase":1,"sequence":26,"prices":[181,214,169,147,182,193,178,184,176,179],"times":[1172,616,1174,1028],"next_num":4,"trial_type":"ticket-choose","trial_index":99,"time_elapsed":1060949,"internal_node_id":"0.0-99.0"},{"result":159,"points":3,"place":0,"phase":1,"sequence":27,"prices":[183,179,188,165,168,173,205,159,187,191],"times":[672,717,618,783,736,1766,592,1047],"next_num":8,"trial_type":"ticket-choose","trial_index":100,"time_elapsed":1071420,"internal_node_id":"0.0-100.0"},{"result":159,"points":1,"place":2,"phase":1,"sequence":28,"prices":[181,159,149,175,185,151,163,174,178,207],"times":[823,1195],"next_num":2,"trial_type":"ticket-choose","trial_index":101,"time_elapsed":1076651,"internal_node_id":"0.0-101.0"},{"result":156,"points":2,"place":1,"phase":1,"sequence":29,"prices":[180,156,149,160,168,186,172,198,176,195],"times":[1131,1195],"next_num":2,"trial_type":"ticket-choose","trial_index":102,"time_elapsed":1081302,"internal_node_id":"0.0-102.0"},{"result":165,"points":2,"place":1,"phase":1,"sequence":30,"prices":[193,174,224,165,187,190,224,161,194,195],"times":[2156,807,622,1386],"next_num":4,"trial_type":"ticket-choose","trial_index":103,"time_elapsed":1089208,"internal_node_id":"0.0-103.0"},{"result":158,"points":2,"place":1,"phase":1,"sequence":31,"prices":[177,176,187,225,158,181,187,165,208,153],"times":[800,661,664,680,1109],"next_num":5,"trial_type":"ticket-choose","trial_index":104,"time_elapsed":1096463,"internal_node_id":"0.0-104.0"},{"result":158,"points":3,"place":0,"phase":1,"sequence":32,"prices":[214,184,226,192,215,158,199,175,176,208],"times":[1005,695,672,632,649,1124],"next_num":6,"trial_type":"ticket-choose","trial_index":105,"time_elapsed":1104593,"internal_node_id":"0.0-105.0"},{"result":151,"points":3,"place":0,"phase":1,"sequence":33,"prices":[199,193,169,165,202,182,151,164,176,171],"times":[1116,672,696,631,584,641,1020],"next_num":7,"trial_type":"ticket-choose","trial_index":106,"time_elapsed":1113259,"internal_node_id":"0.0-106.0"},{"result":153,"points":3,"place":0,"phase":1,"sequence":34,"prices":[165,174,186,212,177,181,187,166,153,209],"times":[3058,711,609,598,647,609,719,1234,942],"next_num":9,"trial_type":"ticket-choose","trial_index":107,"time_elapsed":1126313,"internal_node_id":"0.0-107.0"},{"result":157,"points":3,"place":0,"phase":1,"sequence":35,"prices":[191,170,182,165,175,182,203,157,195,200],"times":[1370,686,728,830,599,647,616,958],"next_num":8,"trial_type":"ticket-choose","trial_index":108,"time_elapsed":1136255,"internal_node_id":"0.0-108.0"},{"result":153,"points":3,"place":0,"phase":1,"sequence":36,"prices":[177,174,186,217,165,181,187,166,153,209],"times":[1364,726,672,728,664,736,616,943,1296],"next_num":9,"trial_type":"ticket-choose","trial_index":109,"time_elapsed":1148360,"internal_node_id":"0.0-109.0"},{"result":150,"points":3,"place":0,"phase":1,"sequence":37,"prices":[190,150,175,161,188,207,157,194,178,199],"times":[778,987],"next_num":2,"trial_type":"ticket-choose","trial_index":110,"time_elapsed":1152776,"internal_node_id":"0.0-110.0"},{"result":152,"points":3,"place":0,"phase":1,"sequence":38,"prices":[200,180,203,152,175,170,160,154,176,191],"times":[862,625,688,1141],"next_num":4,"trial_type":"ticket-choose","trial_index":111,"time_elapsed":1158874,"internal_node_id":"0.0-111.0"},{"result":163,"points":2,"place":1,"phase":1,"sequence":39,"prices":[176,175,186,210,163,179,187,166,153,208],"times":[749,568,625,654,924],"next_num":5,"trial_type":"ticket-choose","trial_index":112,"time_elapsed":1165373,"internal_node_id":"0.0-112.0"},{"result":156,"points":3,"place":0,"phase":1,"sequence":40,"prices":[167,174,186,211,178,181,188,168,208,156],"times":[1076,1440,633,656,679,759,641,774,648,909],"next_num":10,"trial_type":"ticket-choose","trial_index":113,"time_elapsed":1177782,"internal_node_id":"0.0-113.0"},{"result":157,"points":3,"place":0,"phase":1,"sequence":41,"prices":[201,187,157,184,198,179,188,185,178,170],"times":[1995,1067,1039],"next_num":3,"trial_type":"ticket-choose","trial_index":114,"time_elapsed":1184726,"internal_node_id":"0.0-114.0"},{"result":154,"points":3,"place":0,"phase":1,"sequence":42,"prices":[175,187,176,209,163,180,188,165,154,208],"times":[1013,642,740,592,1100,561,574,868,870],"next_num":9,"trial_type":"ticket-choose","trial_index":115,"time_elapsed":1195475,"internal_node_id":"0.0-115.0"},{"result":161,"points":2,"place":1,"phase":1,"sequence":43,"prices":[185,179,191,165,161,173,199,150,188,168],"times":[893,737,653,894,1727],"next_num":5,"trial_type":"ticket-choose","trial_index":116,"time_elapsed":1203327,"internal_node_id":"0.0-116.0"},{"result":171,"points":1,"place":3,"phase":1,"sequence":44,"prices":[189,167,180,197,165,168,172,213,178,171],"times":[748,998,824,622,743,687,624,664,639,697],"next_num":11,"trial_type":"ticket-choose","trial_index":117,"time_elapsed":1217896,"internal_node_id":"0.0-117.0"},{"result":184,"points":1,"place":4,"phase":1,"sequence":45,"prices":[193,181,175,181,185,165,224,199,218,184],"times":[3528,585,648,647,640,925,567,619,615,757],"next_num":11,"trial_type":"ticket-choose","trial_index":118,"time_elapsed":1231965,"internal_node_id":"0.0-118.0"},{"result":165,"points":1,"place":2,"phase":1,"sequence":46,"prices":[163,175,187,209,176,180,188,165,154,208],"times":[1379,600,586,615,600,599,616,1079],"next_num":8,"trial_type":"ticket-choose","trial_index":119,"time_elapsed":1241725,"internal_node_id":"0.0-119.0"},{"result":158,"points":2,"place":1,"phase":1,"sequence":47,"prices":[177,175,186,209,158,181,188,167,208,154],"times":[1465,631,631,672,1069],"next_num":5,"trial_type":"ticket-choose","trial_index":120,"time_elapsed":1249069,"internal_node_id":"0.0-120.0"},{"result":165,"points":2,"place":1,"phase":1,"sequence":48,"prices":[177,175,187,209,165,180,188,165,154,208],"times":[2499,623,656,735,791,561,600,1592],"next_num":8,"trial_type":"ticket-choose","trial_index":121,"time_elapsed":1261067,"internal_node_id":"0.0-121.0"},{"result":186,"points":1,"place":4,"phase":1,"sequence":49,"prices":[220,173,201,197,169,205,198,183,178,186],"times":[1078,735,591,607,625,592,632,663,498,624],"next_num":11,"trial_type":"ticket-choose","trial_index":122,"time_elapsed":1271802,"internal_node_id":"0.0-122.0"},{"responses":[{"value":3,"offby":2,"category":"$115 - $130","category_index":0},{"value":8,"offby":3,"category":"$131 - $145","category_index":1},{"value":14,"offby":2,"category":"$146 - $160","category_index":2},{"value":23,"offby":1,"category":"$161 - $175","category_index":3},{"value":26,"offby":-8,"category":"$176 - $190","category_index":4},{"value":19,"offby":4,"category":"$191 - $205","category_index":5},{"value":7,"offby":-4,"category":"$206 - $220","category_index":6},{"value":0,"offby":null,"category":"$201 - $210","category_index":7}],"phase":1,"number":1,"trial_type":"bar-choose","trial_index":123,"time_elapsed":1303405,"internal_node_id":"0.0-123.0"},{"special_comment":"Not really...","trial_type":"special_sequence","trial_index":124,"time_elapsed":1316777,"internal_node_id":"0.0-124.0"},{"during":"Nothing","bonus":304,"trial_type":"final","trial_index":125,"time_elapsed":1343222,"internal_node_id":"0.0-125.0"}],"bonus":304}