{"start_time":"2017-05-24 12:35:47","end_time":"2017-05-24 13:07:12","points_phase0":104,"points_phase1":111,"phase_order":1,"age":61,"gender":"f","tries":1,"during":"Nothing","worker_id":"A3G2NVZWJQH4YH","assignment_id":"3K2755HG5TWE46QSHUK7G3NFRPFDFC","data":[{"rt":61961,"url":"\/christiane\/tickets\/utils\/consent.html","trial_type":"html","trial_index":0,"time_elapsed":62810,"internal_node_id":"0.0-0.0"},{"age":61,"gender":"f","trial_type":"age","trial_index":1,"time_elapsed":74051,"internal_node_id":"0.0-1.0"},{"worker_id":"A3G2NVZWJQH4YH","trial_type":"workerid","trial_index":2,"time_elapsed":84656,"internal_node_id":"0.0-2.0"},{"tries":1,"trial_type":"instructions_check","trial_index":3,"time_elapsed":117236,"internal_node_id":"0.0-3.0"},{"rt":17664,"url":"\/christiane\/tickets\/utils\/start.html","trial_type":"html","trial_index":4,"time_elapsed":136111,"internal_node_id":"0.0-4.0"},{"trial_type":"number-animation","trial_index":5,"time_elapsed":157173,"internal_node_id":"0.0-5.0"},{"phase":0,"sequence":0,"avg":181,"response":178,"trial_type":"training_avg","trial_index":6,"time_elapsed":179513,"internal_node_id":"0.0-6.0"},{"trial_type":"number-animation","trial_index":7,"time_elapsed":196439,"internal_node_id":"0.0-7.0"},{"phase":0,"sequence":1,"avg":188,"response":185,"trial_type":"training_avg","trial_index":8,"time_elapsed":214320,"internal_node_id":"0.0-8.0"},{"trial_type":"number-animation","trial_index":9,"time_elapsed":229537,"internal_node_id":"0.0-9.0"},{"phase":0,"sequence":2,"avg":188,"response":181,"trial_type":"training_avg","trial_index":10,"time_elapsed":246911,"internal_node_id":"0.0-10.0"},{"trial_type":"number-animation","trial_index":11,"time_elapsed":261356,"internal_node_id":"0.0-11.0"},{"phase":0,"sequence":3,"avg":177,"response":175,"trial_type":"training_avg","trial_index":12,"time_elapsed":277261,"internal_node_id":"0.0-12.0"},{"trial_type":"number-animation","trial_index":13,"time_elapsed":291743,"internal_node_id":"0.0-13.0"},{"phase":0,"sequence":4,"avg":182,"response":187,"trial_type":"training_avg","trial_index":14,"time_elapsed":315449,"internal_node_id":"0.0-14.0"},{"responses":[{"value":0,"offby":-1,"category":"$115 - $130","category_index":0},{"value":0,"offby":-5,"category":"$131 - $145","category_index":1},{"value":0,"offby":-12,"category":"$146 - $160","category_index":2},{"value":0,"offby":-22,"category":"$161 - $175","category_index":3},{"value":100,"offby":66,"category":"$176 - $190","category_index":4},{"value":0,"offby":-15,"category":"$191 - $205","category_index":5},{"value":0,"offby":-11,"category":"$206 - $220","category_index":6}],"phase":0,"number":0,"trial_type":"bar-choose","trial_index":15,"time_elapsed":379029,"internal_node_id":"0.0-15.0"},{"rt":26903,"url":"\/christiane\/tickets\/utils\/testing.html","trial_type":"html","trial_index":16,"time_elapsed":407116,"internal_node_id":"0.0-16.0"},{"phase":0,"order":[25,22,10,40,42,24,21,48,26,2,34,11,46,9,33,31,38,12,43,44,14,47,5,35,39,29,15,17,27,32,16,6,49,20,19,3,28,8,45,30,0,7,41,36,37,13,23,18,1,4],"trial_type":"store_order","trial_index":17,"time_elapsed":408117,"internal_node_id":"0.0-17.0"},{"result":165,"points":2,"place":1,"phase":0,"sequence":-1,"prices":[184,180,224,165,181,199,185,193,218,146],"times":[7348,2264,1313,1873],"next_num":4,"trial_type":"ticket-choose","trial_index":18,"time_elapsed":425239,"internal_node_id":"0.0-18.0"},{"rt":23084,"url":"\/christiane\/tickets\/utils\/testing_after.html","trial_type":"html","trial_index":19,"time_elapsed":449523,"internal_node_id":"0.0-19.0"},{"result":168,"points":1,"place":2,"phase":0,"sequence":0,"prices":[167,174,186,211,178,181,188,168,208,156],"times":[6307,1013,1070,860,1801,950,827,4462],"next_num":8,"trial_type":"ticket-choose","trial_index":20,"time_elapsed":473760,"internal_node_id":"0.0-20.0"},{"result":159,"points":1,"place":2,"phase":0,"sequence":1,"prices":[181,159,149,175,185,151,163,174,178,207],"times":[1696,4954],"next_num":2,"trial_type":"ticket-choose","trial_index":21,"time_elapsed":483915,"internal_node_id":"0.0-21.0"},{"result":153,"points":3,"place":0,"phase":0,"sequence":2,"prices":[177,175,186,221,158,180,187,166,209,153],"times":[2258,812,816,796,943,832,757,734,743,1444],"next_num":10,"trial_type":"ticket-choose","trial_index":22,"time_elapsed":500087,"internal_node_id":"0.0-22.0"},{"result":165,"points":1,"place":2,"phase":0,"sequence":3,"prices":[163,175,187,209,176,180,188,165,154,208],"times":[2189,1066,750,741,731,748,823,1546],"next_num":8,"trial_type":"ticket-choose","trial_index":23,"time_elapsed":514256,"internal_node_id":"0.0-23.0"},{"result":197,"points":0,"place":8,"phase":0,"sequence":4,"prices":[192,172,171,178,188,165,217,168,195,197],"times":[1322,789,795,747,648,3558,775,1333,783,739],"next_num":11,"trial_type":"ticket-choose","trial_index":24,"time_elapsed":531448,"internal_node_id":"0.0-24.0"},{"result":167,"points":1,"place":2,"phase":0,"sequence":5,"prices":[165,175,187,209,177,180,188,167,154,208],"times":[3421,830,848,839,920,829,858,1337],"next_num":8,"trial_type":"ticket-choose","trial_index":25,"time_elapsed":545757,"internal_node_id":"0.0-25.0"},{"result":156,"points":3,"place":0,"phase":0,"sequence":6,"prices":[178,175,185,215,167,181,186,168,208,156],"times":[4282,732,764,891,1239,765,662,931,735,1232],"next_num":10,"trial_type":"ticket-choose","trial_index":26,"time_elapsed":564354,"internal_node_id":"0.0-26.0"},{"result":158,"points":2,"place":1,"phase":0,"sequence":7,"prices":[177,176,187,225,158,181,187,165,208,153],"times":[2333,782,786,867,2920],"next_num":5,"trial_type":"ticket-choose","trial_index":27,"time_elapsed":578207,"internal_node_id":"0.0-27.0"},{"result":167,"points":1,"place":2,"phase":0,"sequence":8,"prices":[158,175,186,209,177,181,188,167,208,154],"times":[1536,807,714,850,738,775,728,1274],"next_num":8,"trial_type":"ticket-choose","trial_index":28,"time_elapsed":590093,"internal_node_id":"0.0-28.0"},{"result":150,"points":3,"place":0,"phase":0,"sequence":9,"prices":[190,150,175,161,188,207,157,194,178,199],"times":[1859,2311],"next_num":2,"trial_type":"ticket-choose","trial_index":29,"time_elapsed":598086,"internal_node_id":"0.0-29.0"},{"result":153,"points":2,"place":1,"phase":0,"sequence":10,"prices":[167,153,172,185,195,143,184,211,177,227],"times":[1392,2101],"next_num":2,"trial_type":"ticket-choose","trial_index":30,"time_elapsed":604966,"internal_node_id":"0.0-30.0"},{"result":153,"points":3,"place":0,"phase":0,"sequence":11,"prices":[178,175,186,212,167,179,187,169,209,153],"times":[1224,856,629,855,739,720,755,1506,694,1254],"next_num":10,"trial_type":"ticket-choose","trial_index":31,"time_elapsed":619502,"internal_node_id":"0.0-31.0"},{"result":153,"points":3,"place":0,"phase":0,"sequence":12,"prices":[177,174,186,217,165,181,187,166,153,209],"times":[6921,3012,942,661,1373,689,670,1991,1108],"next_num":9,"trial_type":"ticket-choose","trial_index":32,"time_elapsed":641680,"internal_node_id":"0.0-32.0"},{"result":163,"points":2,"place":1,"phase":0,"sequence":13,"prices":[163,174,186,212,176,181,187,166,153,209],"times":[3694],"next_num":1,"trial_type":"ticket-choose","trial_index":33,"time_elapsed":648280,"internal_node_id":"0.0-33.0"},{"result":165,"points":3,"place":0,"phase":0,"sequence":14,"prices":[189,167,180,197,165,168,172,213,178,171],"times":[1206,1402,757,692,1500],"next_num":5,"trial_type":"ticket-choose","trial_index":34,"time_elapsed":658960,"internal_node_id":"0.0-34.0"},{"result":155,"points":2,"place":1,"phase":0,"sequence":15,"prices":[200,207,155,158,156,168,167,135,178,177],"times":[1443,707,2846],"next_num":3,"trial_type":"ticket-choose","trial_index":35,"time_elapsed":668098,"internal_node_id":"0.0-35.0"},{"result":164,"points":3,"place":0,"phase":0,"sequence":16,"prices":[199,191,188,174,167,193,189,164,176,170],"times":[1392,677,670,655,697,707,716,1397],"next_num":8,"trial_type":"ticket-choose","trial_index":36,"time_elapsed":679864,"internal_node_id":"0.0-36.0"},{"result":161,"points":3,"place":0,"phase":0,"sequence":17,"prices":[193,174,224,165,187,190,224,161,194,195],"times":[1710,712,708,824,781,718,698,1150],"next_num":8,"trial_type":"ticket-choose","trial_index":37,"time_elapsed":692367,"internal_node_id":"0.0-37.0"},{"result":152,"points":3,"place":0,"phase":0,"sequence":18,"prices":[200,173,182,169,207,165,152,202,161,204],"times":[2858,1336,642,683,869,1934,1340],"next_num":7,"trial_type":"ticket-choose","trial_index":38,"time_elapsed":706162,"internal_node_id":"0.0-38.0"},{"result":152,"points":3,"place":0,"phase":0,"sequence":19,"prices":[200,180,203,152,175,170,160,154,176,191],"times":[1978,681,742,1711],"next_num":4,"trial_type":"ticket-choose","trial_index":39,"time_elapsed":715064,"internal_node_id":"0.0-39.0"},{"result":154,"points":3,"place":0,"phase":0,"sequence":20,"prices":[187,201,165,172,196,174,178,154,172,180],"times":[1545,899,2795,1170,737,903,704,1316],"next_num":8,"trial_type":"ticket-choose","trial_index":40,"time_elapsed":729977,"internal_node_id":"0.0-40.0"},{"result":153,"points":3,"place":0,"phase":0,"sequence":21,"prices":[167,175,186,225,178,179,187,169,209,153],"times":[2546,799,722,708,775,668,647,1474,762,1163],"next_num":10,"trial_type":"ticket-choose","trial_index":41,"time_elapsed":745376,"internal_node_id":"0.0-41.0"},{"result":165,"points":1,"place":2,"phase":0,"sequence":22,"prices":[171,169,186,165,163,167,220,148,187,165],"times":[2023,757,946,3413],"next_num":4,"trial_type":"ticket-choose","trial_index":42,"time_elapsed":756093,"internal_node_id":"0.0-42.0"},{"result":163,"points":2,"place":1,"phase":0,"sequence":23,"prices":[176,186,178,217,163,181,187,166,153,209],"times":[1390,846,697,749,3780],"next_num":5,"trial_type":"ticket-choose","trial_index":43,"time_elapsed":767083,"internal_node_id":"0.0-43.0"},{"result":159,"points":3,"place":0,"phase":0,"sequence":24,"prices":[183,179,188,165,168,173,205,159,187,191],"times":[1483,2682,739,1374,897,860,772,1314],"next_num":8,"trial_type":"ticket-choose","trial_index":44,"time_elapsed":781771,"internal_node_id":"0.0-44.0"},{"result":148,"points":3,"place":0,"phase":0,"sequence":25,"prices":[173,163,185,181,166,148,160,185,176,184],"times":[2256,1580,774,765,1011,1276],"next_num":6,"trial_type":"ticket-choose","trial_index":45,"time_elapsed":793441,"internal_node_id":"0.0-45.0"},{"result":153,"points":3,"place":0,"phase":0,"sequence":26,"prices":[165,175,186,214,177,179,187,166,153,208],"times":[2464,927,747,744,681,690,646,2955,1327],"next_num":9,"trial_type":"ticket-choose","trial_index":46,"time_elapsed":809037,"internal_node_id":"0.0-46.0"},{"result":147,"points":3,"place":0,"phase":0,"sequence":27,"prices":[181,214,169,147,182,193,178,184,176,179],"times":[1296,723,646,1525],"next_num":4,"trial_type":"ticket-choose","trial_index":47,"time_elapsed":817761,"internal_node_id":"0.0-47.0"},{"result":166,"points":1,"place":2,"phase":0,"sequence":28,"prices":[163,199,196,199,185,195,227,163,177,166],"times":[2044,753,698,697,665,655,643,3346,771,1212],"next_num":10,"trial_type":"ticket-choose","trial_index":48,"time_elapsed":834039,"internal_node_id":"0.0-48.0"},{"result":153,"points":3,"place":0,"phase":0,"sequence":29,"prices":[176,175,186,210,163,179,187,166,153,208],"times":[2103,886,932,749,2942,852,744,1170,1209],"next_num":9,"trial_type":"ticket-choose","trial_index":49,"time_elapsed":849794,"internal_node_id":"0.0-49.0"},{"result":208,"points":0,"place":6,"phase":0,"sequence":30,"prices":[214,184,226,192,215,158,199,175,176,208],"times":[4084,768,1789,759,1534,3493,719,620,621,756],"next_num":11,"trial_type":"ticket-choose","trial_index":50,"time_elapsed":869581,"internal_node_id":"0.0-50.0"},{"result":170,"points":2,"place":1,"phase":0,"sequence":31,"prices":[201,187,157,184,198,179,188,185,178,170],"times":[1585,1535,2013,722,691,649,649,712,697,1538],"next_num":11,"trial_type":"ticket-choose","trial_index":51,"time_elapsed":885479,"internal_node_id":"0.0-51.0"},{"result":153,"points":3,"place":0,"phase":0,"sequence":32,"prices":[158,175,186,211,177,180,187,166,209,153],"times":[2613,782,720,1115,651,691,690,2890,1355,1113],"next_num":10,"trial_type":"ticket-choose","trial_index":52,"time_elapsed":904266,"internal_node_id":"0.0-52.0"},{"result":186,"points":1,"place":4,"phase":0,"sequence":33,"prices":[220,173,201,197,169,205,198,183,178,186],"times":[1693,923,729,736,840,787,810,847,716,706],"next_num":11,"trial_type":"ticket-choose","trial_index":53,"time_elapsed":917543,"internal_node_id":"0.0-53.0"},{"result":165,"points":2,"place":1,"phase":0,"sequence":34,"prices":[191,170,182,165,175,182,203,157,195,200],"times":[1550,681,777,3206],"next_num":4,"trial_type":"ticket-choose","trial_index":54,"time_elapsed":927451,"internal_node_id":"0.0-54.0"},{"result":158,"points":2,"place":1,"phase":0,"sequence":35,"prices":[158,176,187,210,177,181,187,165,208,153],"times":[5429],"next_num":1,"trial_type":"ticket-choose","trial_index":55,"time_elapsed":935795,"internal_node_id":"0.0-55.0"},{"result":158,"points":2,"place":1,"phase":0,"sequence":36,"prices":[177,175,186,209,158,181,188,167,208,154],"times":[1485,667,670,741,3866],"next_num":5,"trial_type":"ticket-choose","trial_index":56,"time_elapsed":946690,"internal_node_id":"0.0-56.0"},{"result":156,"points":3,"place":0,"phase":0,"sequence":37,"prices":[167,175,185,224,178,181,186,168,208,156],"times":[3545,766,707,820,755,720,728,867,793,1474],"next_num":10,"trial_type":"ticket-choose","trial_index":57,"time_elapsed":963054,"internal_node_id":"0.0-57.0"},{"result":156,"points":2,"place":1,"phase":0,"sequence":38,"prices":[180,156,149,160,168,186,172,198,176,195],"times":[1327,1377],"next_num":2,"trial_type":"ticket-choose","trial_index":58,"time_elapsed":968892,"internal_node_id":"0.0-58.0"},{"result":165,"points":3,"place":0,"phase":0,"sequence":39,"prices":[196,171,170,184,187,165,211,169,201,202],"times":[1712,1330,599,676,538,2595],"next_num":6,"trial_type":"ticket-choose","trial_index":59,"time_elapsed":981212,"internal_node_id":"0.0-59.0"},{"result":166,"points":1,"place":3,"phase":0,"sequence":40,"prices":[201,204,179,166,185,165,214,156,202,165],"times":[1427,891,664,2346],"next_num":4,"trial_type":"ticket-choose","trial_index":60,"time_elapsed":989838,"internal_node_id":"0.0-60.0"},{"result":166,"points":1,"place":2,"phase":0,"sequence":41,"prices":[165,174,186,212,177,181,187,166,153,209],"times":[2308,706,652,695,620,668,1469,1635],"next_num":8,"trial_type":"ticket-choose","trial_index":61,"time_elapsed":1002870,"internal_node_id":"0.0-61.0"},{"result":165,"points":1,"place":2,"phase":0,"sequence":42,"prices":[199,193,169,165,202,182,151,164,176,171],"times":[2454,2924,1201,1407],"next_num":4,"trial_type":"ticket-choose","trial_index":62,"time_elapsed":1014057,"internal_node_id":"0.0-62.0"},{"result":163,"points":2,"place":1,"phase":0,"sequence":43,"prices":[176,187,179,209,163,180,188,165,154,208],"times":[1289,820,957,2838,1551],"next_num":5,"trial_type":"ticket-choose","trial_index":63,"time_elapsed":1025027,"internal_node_id":"0.0-63.0"},{"result":156,"points":3,"place":0,"phase":0,"sequence":44,"prices":[178,174,186,217,167,181,188,168,208,156],"times":[1203,707,760,629,575,721,721,598,1077,1098],"next_num":10,"trial_type":"ticket-choose","trial_index":64,"time_elapsed":1037653,"internal_node_id":"0.0-64.0"},{"result":165,"points":2,"place":1,"phase":0,"sequence":45,"prices":[177,175,187,209,165,180,188,165,154,208],"times":[2546,688,709,936,3561],"next_num":5,"trial_type":"ticket-choose","trial_index":65,"time_elapsed":1049566,"internal_node_id":"0.0-65.0"},{"result":166,"points":1,"place":2,"phase":0,"sequence":46,"prices":[177,175,186,210,165,179,187,166,153,208],"times":[1704,728,752,1059,958,1024,764,2536],"next_num":8,"trial_type":"ticket-choose","trial_index":66,"time_elapsed":1063458,"internal_node_id":"0.0-66.0"},{"result":184,"points":1,"place":4,"phase":0,"sequence":47,"prices":[193,181,175,181,185,165,224,199,218,184],"times":[1614,619,625,581,621,1845,717,2148,860,828],"next_num":11,"trial_type":"ticket-choose","trial_index":67,"time_elapsed":1082083,"internal_node_id":"0.0-67.0"},{"result":165,"points":1,"place":2,"phase":0,"sequence":48,"prices":[185,179,191,165,161,173,199,150,188,168],"times":[4625,1612,938,2366],"next_num":4,"trial_type":"ticket-choose","trial_index":68,"time_elapsed":1094881,"internal_node_id":"0.0-68.0"},{"result":153,"points":3,"place":0,"phase":0,"sequence":49,"prices":[163,175,186,214,176,179,187,166,153,208],"times":[1720,897,651,698,749,672,728,714,1329],"next_num":9,"trial_type":"ticket-choose","trial_index":69,"time_elapsed":1108234,"internal_node_id":"0.0-69.0"},{"responses":[{"value":0,"offby":-1,"category":"$115 - $130","category_index":0},{"value":5,"offby":0,"category":"$131 - $145","category_index":1},{"value":20,"offby":8,"category":"$146 - $160","category_index":2},{"value":60,"offby":38,"category":"$161 - $175","category_index":3},{"value":10,"offby":-24,"category":"$176 - $190","category_index":4},{"value":3,"offby":-12,"category":"$191 - $205","category_index":5},{"value":2,"offby":-9,"category":"$206 - $220","category_index":6}],"phase":1,"number":1,"trial_type":"bar-choose","trial_index":70,"time_elapsed":1182074,"internal_node_id":"0.0-70.0"},{"rt":18051,"url":"\/christiane\/tickets\/utils\/testing2.html","trial_type":"point_update","trial_index":71,"time_elapsed":1201866,"internal_node_id":"0.0-71.0"},{"phase":1,"order":[0,44,21,13,27,7,4,23,19,40,35,5,11,14,39,41,45,32,26,47,36,2,31,17,33,49,6,48,38,15,46,43,18,42,30,20,22,1,34,28,25,8,37,16,3,10,9,24,29,12],"trial_type":"store_order","trial_index":72,"time_elapsed":1202879,"internal_node_id":"0.0-72.0"},{"result":162,"points":3,"place":0,"phase":1,"sequence":0,"prices":[201,165,162,166,185,214,165,202,204,179],"times":[2105,1167,1923],"next_num":3,"trial_type":"ticket-choose","trial_index":73,"time_elapsed":1211977,"internal_node_id":"0.0-73.0"},{"result":158,"points":2,"place":1,"phase":1,"sequence":1,"prices":[175,186,177,209,181,188,158,167,208,154],"times":[1525,698,735,674,663,696,1194],"next_num":7,"trial_type":"ticket-choose","trial_index":74,"time_elapsed":1221938,"internal_node_id":"0.0-74.0"},{"result":165,"points":2,"place":1,"phase":1,"sequence":2,"prices":[175,187,177,209,180,188,165,165,154,208],"times":[1591,679,690,650,673,730,882,3820],"next_num":8,"trial_type":"ticket-choose","trial_index":75,"time_elapsed":1235634,"internal_node_id":"0.0-75.0"},{"result":160,"points":1,"place":2,"phase":1,"sequence":3,"prices":[189,150,175,160,188,207,158,194,178,199],"times":[1561,709,3160,1508],"next_num":4,"trial_type":"ticket-choose","trial_index":76,"time_elapsed":1245821,"internal_node_id":"0.0-76.0"},{"result":186,"points":1,"place":4,"phase":1,"sequence":4,"prices":[222,173,202,197,143,205,198,183,178,186],"times":[1533,668,918,641,730,1403,760,756,690,928],"next_num":11,"trial_type":"ticket-choose","trial_index":77,"time_elapsed":1259655,"internal_node_id":"0.0-77.0"},{"result":165,"points":3,"place":0,"phase":1,"sequence":5,"prices":[193,165,175,181,185,224,180,199,218,184],"times":[1482,3967],"next_num":2,"trial_type":"ticket-choose","trial_index":78,"time_elapsed":1268404,"internal_node_id":"0.0-78.0"},{"result":158,"points":2,"place":1,"phase":1,"sequence":6,"prices":[175,186,177,221,180,187,158,166,209,153],"times":[1379,774,694,716,906,727,1319],"next_num":7,"trial_type":"ticket-choose","trial_index":79,"time_elapsed":1278691,"internal_node_id":"0.0-79.0"},{"result":169,"points":2,"place":1,"phase":1,"sequence":7,"prices":[181,215,169,147,182,193,177,184,176,179],"times":[1435,922,3901],"next_num":3,"trial_type":"ticket-choose","trial_index":80,"time_elapsed":1287905,"internal_node_id":"0.0-80.0"},{"result":165,"points":2,"place":1,"phase":1,"sequence":8,"prices":[200,165,165,173,182,207,161,202,204,180],"times":[1340,1517],"next_num":2,"trial_type":"ticket-choose","trial_index":81,"time_elapsed":1293956,"internal_node_id":"0.0-81.0"},{"result":169,"points":1,"place":2,"phase":1,"sequence":9,"prices":[175,186,167,225,179,187,178,169,209,153],"times":[1212,970,1281,811,773,773,848,1900],"next_num":8,"trial_type":"ticket-choose","trial_index":82,"time_elapsed":1306601,"internal_node_id":"0.0-82.0"},{"result":155,"points":2,"place":1,"phase":1,"sequence":10,"prices":[181,155,148,161,168,187,172,199,176,194],"times":[1470,1402],"next_num":2,"trial_type":"ticket-choose","trial_index":83,"time_elapsed":1312237,"internal_node_id":"0.0-83.0"},{"result":153,"points":3,"place":0,"phase":1,"sequence":11,"prices":[174,186,177,217,181,187,165,166,153,209],"times":[1860,929,641,663,666,654,1825,1072,1336],"next_num":9,"trial_type":"ticket-choose","trial_index":84,"time_elapsed":1326171,"internal_node_id":"0.0-84.0"},{"result":158,"points":3,"place":0,"phase":1,"sequence":12,"prices":[210,184,226,193,215,158,199,175,176,208],"times":[2399,2781,898,769,850,1869],"next_num":6,"trial_type":"ticket-choose","trial_index":85,"time_elapsed":1340012,"internal_node_id":"0.0-85.0"},{"result":165,"points":2,"place":1,"phase":1,"sequence":13,"prices":[175,186,177,210,179,187,165,166,153,208],"times":[1346,743,730,723,615,686,1611],"next_num":7,"trial_type":"ticket-choose","trial_index":86,"time_elapsed":1350296,"internal_node_id":"0.0-86.0"},{"result":165,"points":3,"place":0,"phase":1,"sequence":14,"prices":[183,182,192,168,173,205,167,187,165,170],"times":[1546,645,759,1265,876,700,1967,772,1506],"next_num":9,"trial_type":"ticket-choose","trial_index":87,"time_elapsed":1365352,"internal_node_id":"0.0-87.0"},{"result":165,"points":3,"place":0,"phase":1,"sequence":15,"prices":[171,203,175,170,167,220,192,186,165,165],"times":[1592,753,799,660,747,761,720,718,693,1796],"next_num":10,"trial_type":"ticket-choose","trial_index":88,"time_elapsed":1379668,"internal_node_id":"0.0-88.0"},{"result":163,"points":3,"place":0,"phase":1,"sequence":16,"prices":[168,199,196,198,185,195,227,163,177,166],"times":[2020,1085,684,636,632,1649,706,1356],"next_num":8,"trial_type":"ticket-choose","trial_index":89,"time_elapsed":1392475,"internal_node_id":"0.0-89.0"},{"result":163,"points":2,"place":1,"phase":1,"sequence":17,"prices":[175,186,163,214,179,187,176,166,153,208],"times":[1273,796,1375],"next_num":3,"trial_type":"ticket-choose","trial_index":90,"time_elapsed":1398690,"internal_node_id":"0.0-90.0"},{"result":170,"points":2,"place":1,"phase":1,"sequence":18,"prices":[201,187,157,184,198,179,188,185,178,170],"times":[1337,664,673,962,682,752,719,656,1282,1823],"next_num":11,"trial_type":"ticket-choose","trial_index":91,"time_elapsed":1414430,"internal_node_id":"0.0-91.0"},{"result":141,"points":3,"place":0,"phase":1,"sequence":19,"prices":[180,159,149,175,185,141,163,174,178,207],"times":[1370,644,680,2108,950,1384],"next_num":6,"trial_type":"ticket-choose","trial_index":92,"time_elapsed":1425273,"internal_node_id":"0.0-92.0"},{"result":163,"points":2,"place":1,"phase":1,"sequence":20,"prices":[174,186,163,212,181,187,176,166,153,209],"times":[15487,722,1184],"next_num":3,"trial_type":"ticket-choose","trial_index":93,"time_elapsed":1445802,"internal_node_id":"0.0-93.0"},{"result":152,"points":3,"place":0,"phase":1,"sequence":21,"prices":[200,181,203,152,175,171,160,154,176,191],"times":[1805,699,818,1294],"next_num":4,"trial_type":"ticket-choose","trial_index":94,"time_elapsed":1453705,"internal_node_id":"0.0-94.0"},{"result":167,"points":2,"place":1,"phase":1,"sequence":22,"prices":[175,186,178,212,179,187,167,169,209,153],"times":[2314,658,847,710,765,733,1244],"next_num":7,"trial_type":"ticket-choose","trial_index":95,"time_elapsed":1464538,"internal_node_id":"0.0-95.0"},{"result":154,"points":2,"place":1,"phase":1,"sequence":23,"prices":[168,154,172,185,195,144,184,211,177,227],"times":[1383,1291],"next_num":2,"trial_type":"ticket-choose","trial_index":96,"time_elapsed":1469910,"internal_node_id":"0.0-96.0"},{"result":165,"points":3,"place":0,"phase":1,"sequence":24,"prices":[189,167,180,197,165,168,172,213,178,171],"times":[1479,718,676,674,1420],"next_num":5,"trial_type":"ticket-choose","trial_index":97,"time_elapsed":1478931,"internal_node_id":"0.0-97.0"},{"result":165,"points":3,"place":0,"phase":1,"sequence":25,"prices":[185,170,182,201,173,199,171,188,165,168],"times":[1571,647,784,812,1846,739,2738,925,1848],"next_num":9,"trial_type":"ticket-choose","trial_index":98,"time_elapsed":1495384,"internal_node_id":"0.0-98.0"},{"result":163,"points":2,"place":1,"phase":1,"sequence":26,"prices":[175,186,176,210,179,187,163,166,153,208],"times":[2123,2607,768,1141,667,1233,1130],"next_num":7,"trial_type":"ticket-choose","trial_index":99,"time_elapsed":1508882,"internal_node_id":"0.0-99.0"},{"result":163,"points":2,"place":1,"phase":1,"sequence":27,"prices":[174,186,176,217,181,187,163,166,153,209],"times":[1165,742,849,801,780,651,1325],"next_num":7,"trial_type":"ticket-choose","trial_index":100,"time_elapsed":1518953,"internal_node_id":"0.0-100.0"},{"result":186,"points":1,"place":4,"phase":1,"sequence":28,"prices":[192,165,171,178,188,217,172,195,197,186],"times":[1405,1154,760,654,758,984,727,877,1328,1446],"next_num":11,"trial_type":"ticket-choose","trial_index":101,"time_elapsed":1536121,"internal_node_id":"0.0-101.0"},{"result":165,"points":3,"place":0,"phase":1,"sequence":29,"prices":[193,169,171,187,190,224,174,194,165,188],"times":[1780,994,789,676,718,793,738,772,1485],"next_num":9,"trial_type":"ticket-choose","trial_index":102,"time_elapsed":1549647,"internal_node_id":"0.0-102.0"},{"result":163,"points":2,"place":1,"phase":1,"sequence":30,"prices":[175,187,176,209,180,188,163,165,154,208],"times":[1759,845,1101,730,1139,789,1607],"next_num":7,"trial_type":"ticket-choose","trial_index":103,"time_elapsed":1561700,"internal_node_id":"0.0-103.0"},{"result":166,"points":1,"place":2,"phase":1,"sequence":31,"prices":[175,186,165,214,179,187,177,166,153,208],"times":[2052,792,828,762,610,899,710,1448],"next_num":8,"trial_type":"ticket-choose","trial_index":104,"time_elapsed":1573977,"internal_node_id":"0.0-104.0"},{"result":163,"points":1,"place":2,"phase":1,"sequence":32,"prices":[183,163,185,180,166,148,160,186,176,184],"times":[1925,1479],"next_num":2,"trial_type":"ticket-choose","trial_index":105,"time_elapsed":1580408,"internal_node_id":"0.0-105.0"},{"result":158,"points":2,"place":1,"phase":1,"sequence":33,"prices":[176,187,158,210,181,187,177,165,208,153],"times":[1399,692,3427],"next_num":3,"trial_type":"ticket-choose","trial_index":106,"time_elapsed":1588910,"internal_node_id":"0.0-106.0"},{"result":167,"points":1,"place":2,"phase":1,"sequence":34,"prices":[175,186,158,209,181,188,177,167,208,154],"times":[1386,678,1344,726,760,760,741,1863],"next_num":8,"trial_type":"ticket-choose","trial_index":107,"time_elapsed":1601638,"internal_node_id":"0.0-107.0"},{"result":167,"points":2,"place":1,"phase":1,"sequence":35,"prices":[174,186,178,217,181,188,167,168,208,156],"times":[2166,1880,704,841,893,1258,5533],"next_num":7,"trial_type":"ticket-choose","trial_index":108,"time_elapsed":1618574,"internal_node_id":"0.0-108.0"},{"result":165,"points":3,"place":0,"phase":1,"sequence":36,"prices":[196,165,170,184,187,211,171,201,202,185],"times":[2251,1450],"next_num":2,"trial_type":"ticket-choose","trial_index":109,"time_elapsed":1625345,"internal_node_id":"0.0-109.0"},{"result":153,"points":3,"place":0,"phase":1,"sequence":37,"prices":[174,186,165,212,181,187,177,167,153,209],"times":[1464,752,2201,711,695,864,745,1535,1397],"next_num":9,"trial_type":"ticket-choose","trial_index":110,"time_elapsed":1639750,"internal_node_id":"0.0-110.0"},{"result":164,"points":3,"place":0,"phase":1,"sequence":38,"prices":[212,192,188,184,167,193,189,164,176,170],"times":[1577,5375,973,1016,1062,796,748,2091],"next_num":8,"trial_type":"ticket-choose","trial_index":111,"time_elapsed":1658423,"internal_node_id":"0.0-111.0"},{"result":165,"points":3,"place":0,"phase":1,"sequence":39,"prices":[191,172,169,175,182,203,170,195,165,176],"times":[1629,666,1002,720,716,744,720,902,2511],"next_num":9,"trial_type":"ticket-choose","trial_index":112,"time_elapsed":1672975,"internal_node_id":"0.0-112.0"},{"result":167,"points":2,"place":1,"phase":1,"sequence":40,"prices":[174,186,167,211,181,188,178,168,208,156],"times":[2472,2059,1909],"next_num":3,"trial_type":"ticket-choose","trial_index":113,"time_elapsed":1682728,"internal_node_id":"0.0-113.0"},{"result":154,"points":3,"place":0,"phase":1,"sequence":41,"prices":[175,187,165,209,180,188,177,166,154,208],"times":[3268,1760,3219,749,827,708,727,2552,1151],"next_num":9,"trial_type":"ticket-choose","trial_index":114,"time_elapsed":1702406,"internal_node_id":"0.0-114.0"},{"result":155,"points":2,"place":1,"phase":1,"sequence":42,"prices":[201,207,155,158,156,165,167,135,178,177],"times":[2315,839,1472],"next_num":3,"trial_type":"ticket-choose","trial_index":115,"time_elapsed":1710255,"internal_node_id":"0.0-115.0"},{"result":165,"points":2,"place":1,"phase":1,"sequence":43,"prices":[188,200,165,172,198,174,177,154,177,180],"times":[1884,809,2138],"next_num":3,"trial_type":"ticket-choose","trial_index":116,"time_elapsed":1718331,"internal_node_id":"0.0-116.0"},{"result":163,"points":2,"place":1,"phase":1,"sequence":44,"prices":[198,193,169,163,202,182,152,164,177,171],"times":[2273,744,790,1258],"next_num":4,"trial_type":"ticket-choose","trial_index":117,"time_elapsed":1726774,"internal_node_id":"0.0-117.0"},{"result":163,"points":2,"place":1,"phase":1,"sequence":45,"prices":[175,187,163,209,180,188,176,165,154,208],"times":[1416,795,2526],"next_num":3,"trial_type":"ticket-choose","trial_index":118,"time_elapsed":1734482,"internal_node_id":"0.0-118.0"},{"result":158,"points":2,"place":1,"phase":1,"sequence":46,"prices":[176,187,177,225,181,187,158,165,208,153],"times":[1264,1095,709,762,836,677,1360],"next_num":7,"trial_type":"ticket-choose","trial_index":119,"time_elapsed":1745131,"internal_node_id":"0.0-119.0"},{"result":158,"points":2,"place":1,"phase":1,"sequence":47,"prices":[175,186,158,211,180,187,177,166,209,153],"times":[1644,923,2202],"next_num":3,"trial_type":"ticket-choose","trial_index":120,"time_elapsed":1752862,"internal_node_id":"0.0-120.0"},{"result":156,"points":3,"place":0,"phase":1,"sequence":48,"prices":[175,185,167,224,181,186,178,168,208,156],"times":[1622,946,1620,800,866,813,751,1915,816,1545],"next_num":10,"trial_type":"ticket-choose","trial_index":121,"time_elapsed":1769276,"internal_node_id":"0.0-121.0"},{"result":167,"points":2,"place":1,"phase":1,"sequence":49,"prices":[175,185,178,215,181,186,167,168,208,156],"times":[2950,1825,1060,774,766,779,1538],"next_num":7,"trial_type":"ticket-choose","trial_index":122,"time_elapsed":1782644,"internal_node_id":"0.0-122.0"},{"responses":[{"value":0,"offby":-1,"category":"$115 - $130","category_index":0},{"value":0,"offby":-5,"category":"$131 - $145","category_index":1},{"value":20,"offby":8,"category":"$146 - $160","category_index":2},{"value":55,"offby":33,"category":"$161 - $175","category_index":3},{"value":15,"offby":-19,"category":"$176 - $190","category_index":4},{"value":10,"offby":-5,"category":"$191 - $205","category_index":5},{"value":0,"offby":-11,"category":"$206 - $220","category_index":6}],"phase":1,"number":1,"trial_type":"bar-choose","trial_index":123,"time_elapsed":1836268,"internal_node_id":"0.0-123.0"},{"special_comment":"no","trial_type":"special_sequence","trial_index":124,"time_elapsed":1849433,"internal_node_id":"0.0-124.0"},{"during":"Nothing","bonus":288,"trial_type":"final","trial_index":125,"time_elapsed":1878750,"internal_node_id":"0.0-125.0"}],"bonus":288}