{"start_time":"2017-05-24 14:05:07","end_time":"2017-05-24 14:39:35","points_phase0":107,"points_phase1":116,"phase_order":1,"age":29,"gender":"f","tries":1,"during":"Nothing","worker_id":"A3HXHSLYQT8GWC","assignment_id":"3OJSZ2ATDTP6L0WTK54CUZM6GKY75U","data":[{"rt":20566,"url":"\/christiane\/tickets\/utils\/consent.html","trial_type":"html","trial_index":0,"time_elapsed":20670,"internal_node_id":"0.0-0.0"},{"age":29,"gender":"f","trial_type":"age","trial_index":1,"time_elapsed":51078,"internal_node_id":"0.0-1.0"},{"worker_id":"A3HXHSLYQT8GWC","trial_type":"workerid","trial_index":2,"time_elapsed":59596,"internal_node_id":"0.0-2.0"},{"tries":1,"trial_type":"instructions_check","trial_index":3,"time_elapsed":107350,"internal_node_id":"0.0-3.0"},{"rt":48799,"url":"\/christiane\/tickets\/utils\/start.html","trial_type":"html","trial_index":4,"time_elapsed":157436,"internal_node_id":"0.0-4.0"},{"trial_type":"number-animation","trial_index":5,"time_elapsed":198891,"internal_node_id":"0.0-5.0"},{"phase":0,"sequence":0,"avg":181,"response":187,"trial_type":"training_avg","trial_index":6,"time_elapsed":226756,"internal_node_id":"0.0-6.0"},{"trial_type":"number-animation","trial_index":7,"time_elapsed":280778,"internal_node_id":"0.0-7.0"},{"phase":0,"sequence":1,"avg":188,"response":188,"trial_type":"training_avg","trial_index":8,"time_elapsed":302186,"internal_node_id":"0.0-8.0"},{"trial_type":"number-animation","trial_index":9,"time_elapsed":348162,"internal_node_id":"0.0-9.0"},{"phase":0,"sequence":2,"avg":188,"response":188,"trial_type":"training_avg","trial_index":10,"time_elapsed":362866,"internal_node_id":"0.0-10.0"},{"trial_type":"number-animation","trial_index":11,"time_elapsed":407970,"internal_node_id":"0.0-11.0"},{"phase":0,"sequence":3,"avg":177,"response":177,"trial_type":"training_avg","trial_index":12,"time_elapsed":423168,"internal_node_id":"0.0-12.0"},{"trial_type":"number-animation","trial_index":13,"time_elapsed":464136,"internal_node_id":"0.0-13.0"},{"phase":0,"sequence":4,"avg":182,"response":182,"trial_type":"training_avg","trial_index":14,"time_elapsed":482801,"internal_node_id":"0.0-14.0"},{"responses":[{"value":5,"offby":4,"category":"$115 - $130","category_index":0},{"value":5,"offby":0,"category":"$131 - $145","category_index":1},{"value":5,"offby":-7,"category":"$146 - $160","category_index":2},{"value":15,"offby":-7,"category":"$161 - $175","category_index":3},{"value":50,"offby":16,"category":"$176 - $190","category_index":4},{"value":15,"offby":0,"category":"$191 - $205","category_index":5},{"value":5,"offby":-6,"category":"$206 - $220","category_index":6}],"phase":0,"number":0,"trial_type":"bar-choose","trial_index":15,"time_elapsed":573617,"internal_node_id":"0.0-15.0"},{"rt":14193,"url":"\/christiane\/tickets\/utils\/testing.html","trial_type":"html","trial_index":16,"time_elapsed":588967,"internal_node_id":"0.0-16.0"},{"phase":0,"order":[22,49,29,26,12,45,44,19,43,32,20,10,27,17,35,34,41,0,30,24,46,33,8,6,40,42,3,37,7,1,21,25,2,18,4,28,36,16,38,39,9,48,14,31,11,23,47,15,13,5],"trial_type":"store_order","trial_index":17,"time_elapsed":589968,"internal_node_id":"0.0-17.0"},{"result":165,"points":2,"place":1,"phase":0,"sequence":-1,"prices":[184,180,224,165,181,199,185,193,218,146],"times":[4107,1828,1308,1558],"next_num":4,"trial_type":"ticket-choose","trial_index":18,"time_elapsed":603895,"internal_node_id":"0.0-18.0"},{"rt":20633,"url":"\/christiane\/tickets\/utils\/testing_after.html","trial_type":"html","trial_index":19,"time_elapsed":625679,"internal_node_id":"0.0-19.0"},{"result":167,"points":2,"place":1,"phase":0,"sequence":0,"prices":[167,175,186,225,178,179,187,169,209,153],"times":[5431],"next_num":1,"trial_type":"ticket-choose","trial_index":20,"time_elapsed":634383,"internal_node_id":"0.0-20.0"},{"result":167,"points":2,"place":1,"phase":0,"sequence":1,"prices":[199,191,188,174,167,193,189,164,176,170],"times":[1805,1045,1390,2142,1117],"next_num":5,"trial_type":"ticket-choose","trial_index":21,"time_elapsed":649071,"internal_node_id":"0.0-21.0"},{"result":163,"points":2,"place":1,"phase":0,"sequence":2,"prices":[163,174,186,212,176,181,187,166,153,209],"times":[1351],"next_num":1,"trial_type":"ticket-choose","trial_index":22,"time_elapsed":653055,"internal_node_id":"0.0-22.0"},{"result":158,"points":2,"place":1,"phase":0,"sequence":3,"prices":[158,175,186,209,177,181,188,167,208,154],"times":[2616],"next_num":1,"trial_type":"ticket-choose","trial_index":23,"time_elapsed":658471,"internal_node_id":"0.0-23.0"},{"result":158,"points":3,"place":0,"phase":0,"sequence":4,"prices":[214,184,226,192,215,158,199,175,176,208],"times":[1176,822,678,701,644,4263],"next_num":6,"trial_type":"ticket-choose","trial_index":24,"time_elapsed":671959,"internal_node_id":"0.0-24.0"},{"result":156,"points":2,"place":1,"phase":0,"sequence":5,"prices":[180,156,149,160,168,186,172,198,176,195],"times":[1221,1175],"next_num":2,"trial_type":"ticket-choose","trial_index":25,"time_elapsed":677583,"internal_node_id":"0.0-25.0"},{"result":153,"points":3,"place":0,"phase":0,"sequence":6,"prices":[163,175,186,214,176,179,187,166,153,208],"times":[19926,1117,1038,822,1102,1053,1302,5661,845],"next_num":9,"trial_type":"ticket-choose","trial_index":26,"time_elapsed":715917,"internal_node_id":"0.0-26.0"},{"result":158,"points":2,"place":1,"phase":0,"sequence":7,"prices":[158,176,187,210,177,181,187,165,208,153],"times":[4157],"next_num":1,"trial_type":"ticket-choose","trial_index":27,"time_elapsed":722509,"internal_node_id":"0.0-27.0"},{"result":156,"points":3,"place":0,"phase":0,"sequence":8,"prices":[178,175,185,215,167,181,186,168,208,156],"times":[1821,909,573,598,766,797,645,630,677,1305],"next_num":10,"trial_type":"ticket-choose","trial_index":28,"time_elapsed":736501,"internal_node_id":"0.0-28.0"},{"result":154,"points":3,"place":0,"phase":0,"sequence":9,"prices":[177,175,187,209,165,180,188,165,154,208],"times":[1581,566,605,661,934,695,597,534,1422],"next_num":9,"trial_type":"ticket-choose","trial_index":29,"time_elapsed":748805,"internal_node_id":"0.0-29.0"},{"result":171,"points":1,"place":3,"phase":0,"sequence":10,"prices":[189,167,180,197,165,168,172,213,178,171],"times":[6284,398,389,387,405,494,502,709,581,1566],"next_num":10,"trial_type":"ticket-choose","trial_index":30,"time_elapsed":765110,"internal_node_id":"0.0-30.0"},{"result":166,"points":1,"place":2,"phase":0,"sequence":11,"prices":[165,175,186,214,177,179,187,166,153,208],"times":[1574,509,590,671,621,719,981,2222],"next_num":8,"trial_type":"ticket-choose","trial_index":31,"time_elapsed":776933,"internal_node_id":"0.0-31.0"},{"result":197,"points":0,"place":8,"phase":0,"sequence":12,"prices":[192,172,171,178,188,165,217,168,195,197],"times":[1190,702,651,566,615,676,741,1862,990,821],"next_num":10,"trial_type":"ticket-choose","trial_index":32,"time_elapsed":790350,"internal_node_id":"0.0-32.0"},{"result":158,"points":2,"place":1,"phase":0,"sequence":13,"prices":[177,176,187,225,158,181,187,165,208,153],"times":[3528,526,444,398,861],"next_num":5,"trial_type":"ticket-choose","trial_index":33,"time_elapsed":799141,"internal_node_id":"0.0-33.0"},{"result":165,"points":2,"place":1,"phase":0,"sequence":14,"prices":[201,204,179,166,185,165,214,156,202,165],"times":[4090,477,461,669,646,901],"next_num":6,"trial_type":"ticket-choose","trial_index":34,"time_elapsed":809702,"internal_node_id":"0.0-34.0"},{"result":153,"points":3,"place":0,"phase":0,"sequence":15,"prices":[178,175,186,212,167,179,187,169,209,153],"times":[762,478,526,886,1310,902,958,1845,734,684],"next_num":10,"trial_type":"ticket-choose","trial_index":35,"time_elapsed":822877,"internal_node_id":"0.0-35.0"},{"result":154,"points":3,"place":0,"phase":0,"sequence":16,"prices":[165,175,187,209,177,180,188,167,154,208],"times":[4055,639,574,630,941,534,522,822,1126],"next_num":9,"trial_type":"ticket-choose","trial_index":36,"time_elapsed":836988,"internal_node_id":"0.0-36.0"},{"result":166,"points":1,"place":2,"phase":0,"sequence":17,"prices":[163,199,196,199,185,195,227,163,177,166],"times":[903,789,759,799,740,2310,590,622,615,1204],"next_num":10,"trial_type":"ticket-choose","trial_index":37,"time_elapsed":850524,"internal_node_id":"0.0-37.0"},{"result":166,"points":1,"place":2,"phase":0,"sequence":18,"prices":[165,174,186,212,177,181,187,166,153,209],"times":[1746,510,533,574,581,630,574,1038],"next_num":8,"trial_type":"ticket-choose","trial_index":38,"time_elapsed":860476,"internal_node_id":"0.0-38.0"},{"result":154,"points":3,"place":0,"phase":0,"sequence":19,"prices":[187,201,165,172,196,174,178,154,172,180],"times":[1152,821,1038,525,566,558,534,1214],"next_num":8,"trial_type":"ticket-choose","trial_index":39,"time_elapsed":870908,"internal_node_id":"0.0-39.0"},{"result":152,"points":3,"place":0,"phase":0,"sequence":20,"prices":[200,173,182,169,207,165,152,202,161,204],"times":[3580,445,438,516,389,588,2109],"next_num":7,"trial_type":"ticket-choose","trial_index":40,"time_elapsed":882556,"internal_node_id":"0.0-40.0"},{"result":170,"points":2,"place":1,"phase":0,"sequence":21,"prices":[201,187,157,184,198,179,188,185,178,170],"times":[782,487,439,1188,637,829,837,902,917,950],"next_num":10,"trial_type":"ticket-choose","trial_index":41,"time_elapsed":900508,"internal_node_id":"0.0-41.0"},{"result":158,"points":2,"place":1,"phase":0,"sequence":22,"prices":[177,175,186,209,158,181,188,167,208,154],"times":[8323,582,692,677,1085],"next_num":5,"trial_type":"ticket-choose","trial_index":42,"time_elapsed":914829,"internal_node_id":"0.0-42.0"},{"result":166,"points":1,"place":2,"phase":0,"sequence":23,"prices":[177,174,186,217,165,181,187,166,153,209],"times":[1274,453,430,518,502,590,693,766],"next_num":8,"trial_type":"ticket-choose","trial_index":43,"time_elapsed":923780,"internal_node_id":"0.0-43.0"},{"result":156,"points":3,"place":0,"phase":0,"sequence":24,"prices":[167,174,186,211,178,181,188,168,208,156],"times":[2268,500,445,517,463,502,526,702,854,910],"next_num":10,"trial_type":"ticket-choose","trial_index":44,"time_elapsed":938540,"internal_node_id":"0.0-44.0"},{"result":158,"points":2,"place":1,"phase":0,"sequence":25,"prices":[177,175,186,221,158,180,187,166,209,153],"times":[1064,375,404,542,950],"next_num":5,"trial_type":"ticket-choose","trial_index":45,"time_elapsed":944555,"internal_node_id":"0.0-45.0"},{"result":159,"points":1,"place":2,"phase":0,"sequence":26,"prices":[181,159,149,175,185,151,163,174,178,207],"times":[9911,1724],"next_num":2,"trial_type":"ticket-choose","trial_index":46,"time_elapsed":958570,"internal_node_id":"0.0-46.0"},{"result":151,"points":3,"place":0,"phase":0,"sequence":27,"prices":[199,193,169,165,202,182,151,164,176,171],"times":[3359,437,526,590,724,1045,1069],"next_num":7,"trial_type":"ticket-choose","trial_index":47,"time_elapsed":969651,"internal_node_id":"0.0-47.0"},{"result":152,"points":3,"place":0,"phase":0,"sequence":28,"prices":[200,180,203,152,175,170,160,154,176,191],"times":[1421,493,508,1117],"next_num":4,"trial_type":"ticket-choose","trial_index":48,"time_elapsed":976002,"internal_node_id":"0.0-48.0"},{"result":165,"points":3,"place":0,"phase":0,"sequence":29,"prices":[193,181,175,181,185,165,224,199,218,184],"times":[968,510,533,622,630,988],"next_num":6,"trial_type":"ticket-choose","trial_index":49,"time_elapsed":983490,"internal_node_id":"0.0-49.0"},{"result":150,"points":3,"place":0,"phase":0,"sequence":30,"prices":[190,150,175,161,188,207,157,194,178,199],"times":[1618,1373],"next_num":2,"trial_type":"ticket-choose","trial_index":50,"time_elapsed":989002,"internal_node_id":"0.0-50.0"},{"result":159,"points":3,"place":0,"phase":0,"sequence":31,"prices":[183,179,188,165,168,173,205,159,187,191],"times":[920,518,541,1013,686,1078,796,980],"next_num":8,"trial_type":"ticket-choose","trial_index":51,"time_elapsed":999282,"internal_node_id":"0.0-51.0"},{"result":148,"points":3,"place":0,"phase":0,"sequence":32,"prices":[171,169,186,165,163,167,220,148,187,165],"times":[2079,581,485,813,879,862,717,1014],"next_num":8,"trial_type":"ticket-choose","trial_index":52,"time_elapsed":1010538,"internal_node_id":"0.0-52.0"},{"result":179,"points":1,"place":4,"phase":0,"sequence":33,"prices":[181,214,169,147,182,193,178,184,176,179],"times":[1040,710,782,438,462,765,542,661,671,1221],"next_num":10,"trial_type":"ticket-choose","trial_index":53,"time_elapsed":1023322,"internal_node_id":"0.0-53.0"},{"result":186,"points":1,"place":4,"phase":0,"sequence":34,"prices":[220,173,201,197,169,205,198,183,178,186],"times":[1132,478,542,662,1350,862,647,902,1165,1022],"next_num":10,"trial_type":"ticket-choose","trial_index":54,"time_elapsed":1036218,"internal_node_id":"0.0-54.0"},{"result":163,"points":2,"place":1,"phase":0,"sequence":35,"prices":[176,175,186,210,163,179,187,166,153,208],"times":[1557,546,742,590,1085],"next_num":5,"trial_type":"ticket-choose","trial_index":55,"time_elapsed":1043610,"internal_node_id":"0.0-55.0"},{"result":148,"points":3,"place":0,"phase":0,"sequence":36,"prices":[173,163,185,181,166,148,160,185,176,184],"times":[1081,4262,573,605,886,1111],"next_num":6,"trial_type":"ticket-choose","trial_index":56,"time_elapsed":1055481,"internal_node_id":"0.0-56.0"},{"result":165,"points":2,"place":1,"phase":0,"sequence":37,"prices":[177,175,186,210,165,179,187,166,153,208],"times":[1077,407,502,845,1047],"next_num":5,"trial_type":"ticket-choose","trial_index":57,"time_elapsed":1062369,"internal_node_id":"0.0-57.0"},{"result":165,"points":1,"place":2,"phase":0,"sequence":38,"prices":[176,187,179,209,163,180,188,165,154,208],"times":[1051,590,654,693,2820,621,734,958],"next_num":8,"trial_type":"ticket-choose","trial_index":58,"time_elapsed":1074258,"internal_node_id":"0.0-58.0"},{"result":153,"points":2,"place":1,"phase":0,"sequence":39,"prices":[167,153,172,185,195,143,184,211,177,227],"times":[9023,958],"next_num":2,"trial_type":"ticket-choose","trial_index":59,"time_elapsed":1086426,"internal_node_id":"0.0-59.0"},{"result":161,"points":3,"place":0,"phase":0,"sequence":40,"prices":[193,174,224,165,187,190,224,161,194,195],"times":[898,550,670,877,630,615,614,1134],"next_num":8,"trial_type":"ticket-choose","trial_index":60,"time_elapsed":1096650,"internal_node_id":"0.0-60.0"},{"result":202,"points":0,"place":8,"phase":0,"sequence":41,"prices":[196,171,170,184,187,165,211,169,201,202],"times":[1638,534,534,662,662,982,661,830,734,966],"next_num":10,"trial_type":"ticket-choose","trial_index":61,"time_elapsed":1108922,"internal_node_id":"0.0-61.0"},{"result":156,"points":3,"place":0,"phase":0,"sequence":42,"prices":[167,175,185,224,178,181,186,168,208,156],"times":[1415,606,598,654,815,726,756,1990,695,828],"next_num":10,"trial_type":"ticket-choose","trial_index":62,"time_elapsed":1121954,"internal_node_id":"0.0-62.0"},{"result":158,"points":2,"place":1,"phase":0,"sequence":43,"prices":[158,175,186,211,177,180,187,166,209,153],"times":[1558],"next_num":1,"trial_type":"ticket-choose","trial_index":63,"time_elapsed":1125666,"internal_node_id":"0.0-63.0"},{"result":153,"points":3,"place":0,"phase":0,"sequence":44,"prices":[176,186,178,217,163,181,187,166,153,209],"times":[1021,572,526,581,758,1021,902,1206,1110],"next_num":9,"trial_type":"ticket-choose","trial_index":64,"time_elapsed":1137344,"internal_node_id":"0.0-64.0"},{"result":161,"points":2,"place":1,"phase":0,"sequence":45,"prices":[185,179,191,165,161,173,199,150,188,168],"times":[1144,596,605,614,1637],"next_num":5,"trial_type":"ticket-choose","trial_index":65,"time_elapsed":1144808,"internal_node_id":"0.0-65.0"},{"result":155,"points":2,"place":1,"phase":0,"sequence":46,"prices":[200,207,155,158,156,168,167,135,178,177],"times":[971,557,1118],"next_num":3,"trial_type":"ticket-choose","trial_index":66,"time_elapsed":1150113,"internal_node_id":"0.0-66.0"},{"result":165,"points":1,"place":2,"phase":0,"sequence":47,"prices":[163,175,187,209,176,180,188,165,154,208],"times":[965,670,566,574,639,710,605,1158],"next_num":8,"trial_type":"ticket-choose","trial_index":67,"time_elapsed":1159744,"internal_node_id":"0.0-67.0"},{"result":156,"points":3,"place":0,"phase":0,"sequence":48,"prices":[178,174,186,217,167,181,188,168,208,156],"times":[1553,582,517,767,1061,638,1062,2014,677,837],"next_num":10,"trial_type":"ticket-choose","trial_index":68,"time_elapsed":1173512,"internal_node_id":"0.0-68.0"},{"result":157,"points":3,"place":0,"phase":0,"sequence":49,"prices":[191,170,182,165,175,182,203,157,195,200],"times":[13231,613,485,542,566,582,758,1030],"next_num":8,"trial_type":"ticket-choose","trial_index":69,"time_elapsed":1194896,"internal_node_id":"0.0-69.0"},{"responses":[{"value":0,"offby":-1,"category":"$115 - $130","category_index":0},{"value":5,"offby":0,"category":"$131 - $145","category_index":1},{"value":40,"offby":28,"category":"$146 - $160","category_index":2},{"value":30,"offby":8,"category":"$161 - $175","category_index":3},{"value":20,"offby":-14,"category":"$176 - $190","category_index":4},{"value":5,"offby":-10,"category":"$191 - $205","category_index":5},{"value":0,"offby":-11,"category":"$206 - $220","category_index":6}],"phase":1,"number":1,"trial_type":"bar-choose","trial_index":70,"time_elapsed":1246633,"internal_node_id":"0.0-70.0"},{"rt":34031,"url":"\/christiane\/tickets\/utils\/testing2.html","trial_type":"point_update","trial_index":71,"time_elapsed":1281936,"internal_node_id":"0.0-71.0"},{"phase":1,"order":[2,45,14,19,46,34,12,20,4,10,39,6,27,23,25,5,7,38,8,36,26,43,22,11,0,21,44,37,47,24,40,33,31,48,42,15,49,9,16,35,32,28,1,18,17,29,41,13,3,30],"trial_type":"store_order","trial_index":72,"time_elapsed":1282945,"internal_node_id":"0.0-72.0"},{"result":158,"points":2,"place":1,"phase":1,"sequence":0,"prices":[175,186,177,209,181,188,158,167,208,154],"times":[8155,1140,5758,613,590,605,1206],"next_num":7,"trial_type":"ticket-choose","trial_index":73,"time_elapsed":1304407,"internal_node_id":"0.0-73.0"},{"result":148,"points":3,"place":0,"phase":1,"sequence":1,"prices":[183,163,185,180,166,148,160,186,176,184],"times":[3971,1246,654,675,918,1037],"next_num":6,"trial_type":"ticket-choose","trial_index":74,"time_elapsed":1316016,"internal_node_id":"0.0-74.0"},{"result":165,"points":3,"place":0,"phase":1,"sequence":2,"prices":[185,170,182,201,173,199,171,188,165,168],"times":[1858,638,597,654,622,588,589,630,1198],"next_num":9,"trial_type":"ticket-choose","trial_index":75,"time_elapsed":1328271,"internal_node_id":"0.0-75.0"},{"result":165,"points":2,"place":1,"phase":1,"sequence":3,"prices":[200,165,165,173,182,207,161,202,204,180],"times":[15038,4093,2493],"next_num":3,"trial_type":"ticket-choose","trial_index":76,"time_elapsed":1356151,"internal_node_id":"0.0-76.0"},{"result":153,"points":3,"place":0,"phase":1,"sequence":4,"prices":[175,186,163,214,179,187,176,166,153,208],"times":[1687,862,1543,702,661,725,911,1693,1039],"next_num":9,"trial_type":"ticket-choose","trial_index":77,"time_elapsed":1369983,"internal_node_id":"0.0-77.0"},{"result":164,"points":3,"place":0,"phase":1,"sequence":5,"prices":[212,192,188,184,167,193,189,164,176,170],"times":[1238,886,1222,669,1710,814,942,1021],"next_num":8,"trial_type":"ticket-choose","trial_index":78,"time_elapsed":1383367,"internal_node_id":"0.0-78.0"},{"result":159,"points":1,"place":2,"phase":1,"sequence":6,"prices":[180,159,149,175,185,141,163,174,178,207],"times":[2246,1406],"next_num":2,"trial_type":"ticket-choose","trial_index":79,"time_elapsed":1390207,"internal_node_id":"0.0-79.0"},{"result":158,"points":2,"place":1,"phase":1,"sequence":7,"prices":[175,186,158,209,181,188,177,167,208,154],"times":[5463,758,1670],"next_num":3,"trial_type":"ticket-choose","trial_index":80,"time_elapsed":1400807,"internal_node_id":"0.0-80.0"},{"result":170,"points":2,"place":1,"phase":1,"sequence":8,"prices":[201,187,157,184,198,179,188,185,178,170],"times":[3492,615,1685,685,574,733,662,766,815,1021],"next_num":10,"trial_type":"ticket-choose","trial_index":81,"time_elapsed":1416174,"internal_node_id":"0.0-81.0"},{"result":165,"points":3,"place":0,"phase":1,"sequence":9,"prices":[193,169,171,187,190,224,174,194,165,188],"times":[1564,590,704,731,902,701,646,718,1038],"next_num":9,"trial_type":"ticket-choose","trial_index":82,"time_elapsed":1428063,"internal_node_id":"0.0-82.0"},{"result":153,"points":3,"place":0,"phase":1,"sequence":10,"prices":[176,187,158,210,181,187,177,165,208,153],"times":[1196,790,565,1453,685,782,742,782,654,1230],"next_num":10,"trial_type":"ticket-choose","trial_index":83,"time_elapsed":1441446,"internal_node_id":"0.0-83.0"},{"result":154,"points":3,"place":0,"phase":1,"sequence":11,"prices":[175,187,177,209,180,188,165,165,154,208],"times":[2094,534,558,436,542,581,974,1565,1206],"next_num":9,"trial_type":"ticket-choose","trial_index":84,"time_elapsed":1453974,"internal_node_id":"0.0-84.0"},{"result":186,"points":1,"place":4,"phase":1,"sequence":12,"prices":[192,165,171,178,188,217,172,195,197,186],"times":[2222,4958,597,566,549,646,710,701,670,1142],"next_num":10,"trial_type":"ticket-choose","trial_index":85,"time_elapsed":1470935,"internal_node_id":"0.0-85.0"},{"result":163,"points":2,"place":1,"phase":1,"sequence":13,"prices":[174,186,176,217,181,187,163,166,153,209],"times":[999,598,790,717,686,934,926],"next_num":7,"trial_type":"ticket-choose","trial_index":86,"time_elapsed":1479806,"internal_node_id":"0.0-86.0"},{"result":154,"points":2,"place":1,"phase":1,"sequence":14,"prices":[168,154,172,185,195,144,184,211,177,227],"times":[1418,1021],"next_num":2,"trial_type":"ticket-choose","trial_index":87,"time_elapsed":1484670,"internal_node_id":"0.0-87.0"},{"result":155,"points":2,"place":1,"phase":1,"sequence":15,"prices":[181,155,148,161,168,187,172,199,176,194],"times":[1198,1790],"next_num":2,"trial_type":"ticket-choose","trial_index":88,"time_elapsed":1490380,"internal_node_id":"0.0-88.0"},{"result":155,"points":2,"place":1,"phase":1,"sequence":16,"prices":[201,207,155,158,156,165,167,135,178,177],"times":[1359,550,1253],"next_num":3,"trial_type":"ticket-choose","trial_index":89,"time_elapsed":1496325,"internal_node_id":"0.0-89.0"},{"result":156,"points":3,"place":0,"phase":1,"sequence":17,"prices":[174,186,167,211,181,188,178,168,208,156],"times":[1150,662,694,924,837,558,590,1285,870,1222],"next_num":10,"trial_type":"ticket-choose","trial_index":90,"time_elapsed":1509141,"internal_node_id":"0.0-90.0"},{"result":165,"points":3,"place":0,"phase":1,"sequence":18,"prices":[191,172,169,175,182,203,170,195,165,176],"times":[2441,414,620,2589,3732,701,582,870,918],"next_num":9,"trial_type":"ticket-choose","trial_index":91,"time_elapsed":1526156,"internal_node_id":"0.0-91.0"},{"result":218,"points":0,"place":8,"phase":1,"sequence":19,"prices":[193,165,175,181,185,224,180,199,218,184],"times":[1376,1478,653,685,732,789,943,1381,894],"next_num":9,"trial_type":"ticket-choose","trial_index":92,"time_elapsed":1538740,"internal_node_id":"0.0-92.0"},{"result":158,"points":3,"place":0,"phase":1,"sequence":20,"prices":[210,184,226,193,215,158,199,175,176,208],"times":[1579,742,629,726,717,1061],"next_num":6,"trial_type":"ticket-choose","trial_index":93,"time_elapsed":1548004,"internal_node_id":"0.0-93.0"},{"result":165,"points":3,"place":0,"phase":1,"sequence":21,"prices":[183,182,192,168,173,205,167,187,165,170],"times":[1389,694,733,661,3902,632,1716,734,902],"next_num":9,"trial_type":"ticket-choose","trial_index":94,"time_elapsed":1564340,"internal_node_id":"0.0-94.0"},{"result":165,"points":2,"place":1,"phase":1,"sequence":22,"prices":[174,186,165,212,181,187,177,167,153,209],"times":[8464,1084,1006],"next_num":3,"trial_type":"ticket-choose","trial_index":95,"time_elapsed":1577468,"internal_node_id":"0.0-95.0"},{"result":153,"points":3,"place":0,"phase":1,"sequence":23,"prices":[175,186,165,214,179,187,177,166,153,208],"times":[1701,2655,620,613,534,591,582,1525,1094],"next_num":9,"trial_type":"ticket-choose","trial_index":96,"time_elapsed":1590972,"internal_node_id":"0.0-96.0"},{"result":150,"points":3,"place":0,"phase":1,"sequence":24,"prices":[189,150,175,160,188,207,158,194,178,199],"times":[1693,1957],"next_num":2,"trial_type":"ticket-choose","trial_index":97,"time_elapsed":1597052,"internal_node_id":"0.0-97.0"},{"result":143,"points":3,"place":0,"phase":1,"sequence":25,"prices":[222,173,202,197,143,205,198,183,178,186],"times":[4244,614,757,3592,1277],"next_num":5,"trial_type":"ticket-choose","trial_index":98,"time_elapsed":1611027,"internal_node_id":"0.0-98.0"},{"result":156,"points":3,"place":0,"phase":1,"sequence":26,"prices":[174,186,178,217,181,188,167,168,208,156],"times":[2767,6180,536,757,645,582,2509,1013,637,812],"next_num":10,"trial_type":"ticket-choose","trial_index":99,"time_elapsed":1631427,"internal_node_id":"0.0-99.0"},{"result":163,"points":2,"place":1,"phase":1,"sequence":27,"prices":[198,193,169,163,202,182,152,164,177,171],"times":[895,638,564,925],"next_num":4,"trial_type":"ticket-choose","trial_index":100,"time_elapsed":1637011,"internal_node_id":"0.0-100.0"},{"result":154,"points":3,"place":0,"phase":1,"sequence":28,"prices":[175,187,165,209,180,188,177,166,154,208],"times":[989,670,17284,527,494,556,598,1325,948],"next_num":9,"trial_type":"ticket-choose","trial_index":101,"time_elapsed":1664107,"internal_node_id":"0.0-101.0"},{"result":168,"points":1,"place":2,"phase":1,"sequence":29,"prices":[175,185,167,224,181,186,178,168,208,156],"times":[4166,509,510,575,661,822,662,2358],"next_num":8,"trial_type":"ticket-choose","trial_index":102,"time_elapsed":1677900,"internal_node_id":"0.0-102.0"},{"result":158,"points":2,"place":1,"phase":1,"sequence":30,"prices":[175,186,177,221,180,187,158,166,209,153],"times":[1290,485,695,668,598,607,988],"next_num":7,"trial_type":"ticket-choose","trial_index":103,"time_elapsed":1686468,"internal_node_id":"0.0-103.0"},{"result":179,"points":1,"place":4,"phase":1,"sequence":31,"prices":[201,165,162,166,185,214,165,202,204,179],"times":[1392,1109,1039,677,646,709,743,814,637,990],"next_num":10,"trial_type":"ticket-choose","trial_index":104,"time_elapsed":1699132,"internal_node_id":"0.0-104.0"},{"result":153,"points":3,"place":0,"phase":1,"sequence":32,"prices":[175,186,167,225,179,187,178,169,209,153],"times":[1296,661,1244,910,591,581,581,1601,539,877],"next_num":10,"trial_type":"ticket-choose","trial_index":105,"time_elapsed":1711771,"internal_node_id":"0.0-105.0"},{"result":153,"points":3,"place":0,"phase":1,"sequence":33,"prices":[175,186,158,211,180,187,177,166,209,153],"times":[1054,701,773,805,606,693,630,654,725,789],"next_num":10,"trial_type":"ticket-choose","trial_index":106,"time_elapsed":1723163,"internal_node_id":"0.0-106.0"},{"result":156,"points":3,"place":0,"phase":1,"sequence":34,"prices":[175,185,178,215,181,186,167,168,208,156],"times":[4324,414,421,398,557,509,518,989,557,749],"next_num":10,"trial_type":"ticket-choose","trial_index":107,"time_elapsed":1736346,"internal_node_id":"0.0-107.0"},{"result":185,"points":1,"place":4,"phase":1,"sequence":35,"prices":[196,165,170,184,187,211,171,201,202,185],"times":[936,446,718,646,774,565,990,647,838,965],"next_num":10,"trial_type":"ticket-choose","trial_index":108,"time_elapsed":1747594,"internal_node_id":"0.0-108.0"},{"result":154,"points":3,"place":0,"phase":1,"sequence":36,"prices":[188,200,165,172,198,174,177,154,177,180],"times":[1227,526,1294,614,614,598,565,966],"next_num":8,"trial_type":"ticket-choose","trial_index":109,"time_elapsed":1757690,"internal_node_id":"0.0-109.0"},{"result":163,"points":2,"place":1,"phase":1,"sequence":37,"prices":[175,187,176,209,180,188,163,165,154,208],"times":[1591,413,502,566,558,558,1126],"next_num":7,"trial_type":"ticket-choose","trial_index":110,"time_elapsed":1766338,"internal_node_id":"0.0-110.0"},{"result":163,"points":3,"place":0,"phase":1,"sequence":38,"prices":[168,199,196,198,185,195,227,163,177,166],"times":[1313,446,981,494,630,711,942,1174],"next_num":8,"trial_type":"ticket-choose","trial_index":111,"time_elapsed":1776778,"internal_node_id":"0.0-111.0"},{"result":171,"points":1,"place":3,"phase":1,"sequence":39,"prices":[189,167,180,197,165,168,172,213,178,171],"times":[919,789,1478,581,3767,678,654,661,989,822],"next_num":10,"trial_type":"ticket-choose","trial_index":112,"time_elapsed":1792066,"internal_node_id":"0.0-112.0"},{"result":165,"points":2,"place":1,"phase":1,"sequence":40,"prices":[175,186,177,210,179,187,165,166,153,208],"times":[3024,533,573,622,670,758,935],"next_num":7,"trial_type":"ticket-choose","trial_index":113,"time_elapsed":1802289,"internal_node_id":"0.0-113.0"},{"result":179,"points":1,"place":4,"phase":1,"sequence":41,"prices":[181,215,169,147,182,193,177,184,176,179],"times":[1598,836,614,581,2550,781,621,885,942,733],"next_num":10,"trial_type":"ticket-choose","trial_index":114,"time_elapsed":1816314,"internal_node_id":"0.0-114.0"},{"result":166,"points":1,"place":2,"phase":1,"sequence":42,"prices":[174,186,163,212,181,187,176,166,153,209],"times":[1533,518,957,3126,606,582,781,880],"next_num":8,"trial_type":"ticket-choose","trial_index":115,"time_elapsed":1828889,"internal_node_id":"0.0-115.0"},{"result":165,"points":3,"place":0,"phase":1,"sequence":43,"prices":[171,203,175,170,167,220,192,186,165,165],"times":[3315,382,502,606,1053,598,558,686,1015],"next_num":9,"trial_type":"ticket-choose","trial_index":116,"time_elapsed":1841705,"internal_node_id":"0.0-116.0"},{"result":153,"points":3,"place":0,"phase":1,"sequence":44,"prices":[174,186,177,217,181,187,165,166,153,209],"times":[1094,2726,589,631,597,573,3190,893,1030],"next_num":9,"trial_type":"ticket-choose","trial_index":117,"time_elapsed":1856513,"internal_node_id":"0.0-117.0"},{"result":158,"points":2,"place":1,"phase":1,"sequence":45,"prices":[176,187,177,225,181,187,158,165,208,153],"times":[692,510,526,694,574,606,1014],"next_num":7,"trial_type":"ticket-choose","trial_index":118,"time_elapsed":1864425,"internal_node_id":"0.0-118.0"},{"result":152,"points":3,"place":0,"phase":1,"sequence":46,"prices":[200,181,203,152,175,171,160,154,176,191],"times":[2389,869,893,1430],"next_num":4,"trial_type":"ticket-choose","trial_index":119,"time_elapsed":1872713,"internal_node_id":"0.0-119.0"},{"result":153,"points":3,"place":0,"phase":1,"sequence":47,"prices":[175,186,176,210,179,187,163,166,153,208],"times":[1412,621,798,855,693,1060,2158,919,894],"next_num":9,"trial_type":"ticket-choose","trial_index":120,"time_elapsed":1885944,"internal_node_id":"0.0-120.0"},{"result":163,"points":2,"place":1,"phase":1,"sequence":48,"prices":[175,187,163,209,180,188,176,165,154,208],"times":[1110,606,837],"next_num":3,"trial_type":"ticket-choose","trial_index":121,"time_elapsed":1890928,"internal_node_id":"0.0-121.0"},{"result":153,"points":3,"place":0,"phase":1,"sequence":49,"prices":[175,186,178,212,179,187,167,169,209,153],"times":[861,733,485,542,709,542,550,1548,741,669],"next_num":10,"trial_type":"ticket-choose","trial_index":122,"time_elapsed":1902048,"internal_node_id":"0.0-122.0"},{"responses":[{"value":0,"offby":-1,"category":"$115 - $130","category_index":0},{"value":2,"offby":-3,"category":"$131 - $145","category_index":1},{"value":18,"offby":6,"category":"$146 - $160","category_index":2},{"value":25,"offby":3,"category":"$161 - $175","category_index":3},{"value":25,"offby":-9,"category":"$176 - $190","category_index":4},{"value":20,"offby":5,"category":"$191 - $205","category_index":5},{"value":10,"offby":-1,"category":"$206 - $220","category_index":6}],"phase":1,"number":1,"trial_type":"bar-choose","trial_index":123,"time_elapsed":2019457,"internal_node_id":"0.0-123.0"},{"special_comment":"They repeated.","trial_type":"special_sequence","trial_index":124,"time_elapsed":2032016,"internal_node_id":"0.0-124.0"},{"during":"Nothing","bonus":296,"trial_type":"final","trial_index":125,"time_elapsed":2062587,"internal_node_id":"0.0-125.0"}],"bonus":296}