{"start_time":"2017-05-24 16:05:04","end_time":"2017-05-24 16:27:02","points_phase0":107,"points_phase1":105,"phase_order":0,"age":47,"gender":"m","tries":2,"during":"Nothing","worker_id":"A3JP7DIFRS0ZBY","assignment_id":"308Q0PEVB96MB7F16MLQX4HHGX99I1","data":[{"rt":26209,"url":"\/christiane\/tickets\/utils\/consent.html","trial_type":"html","trial_index":0,"time_elapsed":26494,"internal_node_id":"0.0-0.0"},{"age":47,"gender":"m","trial_type":"age","trial_index":1,"time_elapsed":31363,"internal_node_id":"0.0-1.0"},{"worker_id":"A3JP7DIFRS0ZBY","trial_type":"workerid","trial_index":2,"time_elapsed":41603,"internal_node_id":"0.0-2.0"},{"tries":2,"trial_type":"instructions_check","trial_index":3,"time_elapsed":79838,"internal_node_id":"0.0-3.0"},{"rt":14079,"url":"\/christiane\/tickets\/utils\/start.html","trial_type":"html","trial_index":4,"time_elapsed":95119,"internal_node_id":"0.0-4.0"},{"trial_type":"number-animation","trial_index":5,"time_elapsed":108727,"internal_node_id":"0.0-5.0"},{"phase":0,"sequence":0,"avg":181,"response":181,"trial_type":"training_avg","trial_index":6,"time_elapsed":123678,"internal_node_id":"0.0-6.0"},{"trial_type":"number-animation","trial_index":7,"time_elapsed":138292,"internal_node_id":"0.0-7.0"},{"phase":0,"sequence":1,"avg":188,"response":185,"trial_type":"training_avg","trial_index":8,"time_elapsed":148295,"internal_node_id":"0.0-8.0"},{"trial_type":"number-animation","trial_index":9,"time_elapsed":159150,"internal_node_id":"0.0-9.0"},{"phase":0,"sequence":2,"avg":188,"response":191,"trial_type":"training_avg","trial_index":10,"time_elapsed":167235,"internal_node_id":"0.0-10.0"},{"trial_type":"number-animation","trial_index":11,"time_elapsed":179731,"internal_node_id":"0.0-11.0"},{"phase":0,"sequence":3,"avg":177,"response":174,"trial_type":"training_avg","trial_index":12,"time_elapsed":187751,"internal_node_id":"0.0-12.0"},{"trial_type":"number-animation","trial_index":13,"time_elapsed":198036,"internal_node_id":"0.0-13.0"},{"phase":0,"sequence":4,"avg":182,"response":175,"trial_type":"training_avg","trial_index":14,"time_elapsed":204937,"internal_node_id":"0.0-14.0"},{"responses":[{"value":1,"offby":0,"category":"$115 - $130","category_index":0},{"value":5,"offby":0,"category":"$131 - $145","category_index":1},{"value":9,"offby":-3,"category":"$146 - $160","category_index":2},{"value":25,"offby":3,"category":"$161 - $175","category_index":3},{"value":35,"offby":1,"category":"$176 - $190","category_index":4},{"value":18,"offby":3,"category":"$191 - $205","category_index":5},{"value":7,"offby":-4,"category":"$206 - $220","category_index":6}],"phase":0,"number":0,"trial_type":"bar-choose","trial_index":15,"time_elapsed":313557,"internal_node_id":"0.0-15.0"},{"rt":21109,"url":"\/christiane\/tickets\/utils\/testing.html","trial_type":"html","trial_index":16,"time_elapsed":335871,"internal_node_id":"0.0-16.0"},{"phase":0,"order":[15,26,32,10,27,0,43,12,29,19,14,48,44,7,13,25,23,49,4,6,33,46,28,45,38,34,39,42,47,18,24,31,2,36,16,22,21,1,3,30,9,5,37,35,41,40,17,11,8,20],"trial_type":"store_order","trial_index":17,"time_elapsed":336884,"internal_node_id":"0.0-17.0"},{"result":146,"points":3,"place":0,"phase":0,"sequence":-1,"prices":[184,180,224,165,181,199,185,193,218,146],"times":[2859,1312,818,2382,811,779,735,796,761,1227],"next_num":10,"trial_type":"ticket-choose","trial_index":18,"time_elapsed":354249,"internal_node_id":"0.0-18.0"},{"rt":17907,"url":"\/christiane\/tickets\/utils\/testing_after.html","trial_type":"html","trial_index":19,"time_elapsed":373335,"internal_node_id":"0.0-19.0"},{"result":163,"points":2,"place":1,"phase":0,"sequence":0,"prices":[175,186,176,210,179,187,163,166,153,208],"times":[2778,727,731,706,720,716,1986],"next_num":7,"trial_type":"ticket-choose","trial_index":20,"time_elapsed":386236,"internal_node_id":"0.0-20.0"},{"result":161,"points":3,"place":0,"phase":0,"sequence":1,"prices":[200,165,165,173,182,207,161,202,204,180],"times":[1269,2211,3168,660,634,653,1192],"next_num":7,"trial_type":"ticket-choose","trial_index":21,"time_elapsed":399727,"internal_node_id":"0.0-21.0"},{"result":165,"points":3,"place":0,"phase":0,"sequence":2,"prices":[193,169,171,187,190,224,174,194,165,188],"times":[913,1052,571,625,646,635,744,690,1074],"next_num":9,"trial_type":"ticket-choose","trial_index":22,"time_elapsed":411187,"internal_node_id":"0.0-22.0"},{"result":165,"points":2,"place":1,"phase":0,"sequence":3,"prices":[175,187,177,209,180,188,165,165,154,208],"times":[787,633,588,674,656,723,1389],"next_num":7,"trial_type":"ticket-choose","trial_index":23,"time_elapsed":420048,"internal_node_id":"0.0-23.0"},{"result":165,"points":3,"place":0,"phase":0,"sequence":4,"prices":[192,165,171,178,188,217,172,195,197,186],"times":[848,1681],"next_num":2,"trial_type":"ticket-choose","trial_index":24,"time_elapsed":425682,"internal_node_id":"0.0-24.0"},{"result":167,"points":2,"place":1,"phase":0,"sequence":5,"prices":[174,186,167,211,181,188,178,168,208,156],"times":[888,668,1124],"next_num":3,"trial_type":"ticket-choose","trial_index":25,"time_elapsed":430888,"internal_node_id":"0.0-25.0"},{"result":170,"points":2,"place":1,"phase":0,"sequence":6,"prices":[201,187,157,184,198,179,188,185,178,170],"times":[843,660,642,1410,618,849,656,732,2047,2244],"next_num":11,"trial_type":"ticket-choose","trial_index":26,"time_elapsed":446238,"internal_node_id":"0.0-26.0"},{"result":163,"points":2,"place":1,"phase":0,"sequence":7,"prices":[175,186,163,214,179,187,176,166,153,208],"times":[899,654,1212],"next_num":3,"trial_type":"ticket-choose","trial_index":27,"time_elapsed":451403,"internal_node_id":"0.0-27.0"},{"result":165,"points":3,"place":0,"phase":0,"sequence":8,"prices":[185,170,182,201,173,199,171,188,165,168],"times":[797,765,613,630,630,590,712,684,1242],"next_num":9,"trial_type":"ticket-choose","trial_index":28,"time_elapsed":461702,"internal_node_id":"0.0-28.0"},{"result":167,"points":1,"place":2,"phase":0,"sequence":9,"prices":[175,186,158,209,181,188,177,167,208,154],"times":[656,625,519,1694,771,647,672,1141],"next_num":8,"trial_type":"ticket-choose","trial_index":29,"time_elapsed":471808,"internal_node_id":"0.0-29.0"},{"result":163,"points":2,"place":1,"phase":0,"sequence":10,"prices":[174,186,163,212,181,187,176,166,153,209],"times":[2077,631,1139],"next_num":3,"trial_type":"ticket-choose","trial_index":30,"time_elapsed":478016,"internal_node_id":"0.0-30.0"},{"result":147,"points":3,"place":0,"phase":0,"sequence":11,"prices":[181,215,169,147,182,193,177,184,176,179],"times":[816,681,1567,1049],"next_num":4,"trial_type":"ticket-choose","trial_index":31,"time_elapsed":484763,"internal_node_id":"0.0-31.0"},{"result":159,"points":1,"place":2,"phase":0,"sequence":12,"prices":[180,159,149,175,185,141,163,174,178,207],"times":[789,1137],"next_num":2,"trial_type":"ticket-choose","trial_index":32,"time_elapsed":489261,"internal_node_id":"0.0-32.0"},{"result":166,"points":1,"place":2,"phase":0,"sequence":13,"prices":[175,187,165,209,180,188,177,166,154,208],"times":[783,656,672,630,636,655,665,2455],"next_num":8,"trial_type":"ticket-choose","trial_index":33,"time_elapsed":499854,"internal_node_id":"0.0-33.0"},{"result":163,"points":2,"place":1,"phase":0,"sequence":14,"prices":[175,187,163,209,180,188,176,165,154,208],"times":[731,609,1293],"next_num":3,"trial_type":"ticket-choose","trial_index":34,"time_elapsed":504897,"internal_node_id":"0.0-34.0"},{"result":162,"points":3,"place":0,"phase":0,"sequence":15,"prices":[201,165,162,166,185,214,165,202,204,179],"times":[688,1489,1069],"next_num":3,"trial_type":"ticket-choose","trial_index":35,"time_elapsed":511086,"internal_node_id":"0.0-35.0"},{"result":158,"points":2,"place":1,"phase":0,"sequence":16,"prices":[176,187,177,225,181,187,158,165,208,153],"times":[660,2878,622,631,623,643,1126],"next_num":7,"trial_type":"ticket-choose","trial_index":36,"time_elapsed":521420,"internal_node_id":"0.0-36.0"},{"result":166,"points":1,"place":3,"phase":0,"sequence":17,"prices":[183,163,185,180,166,148,160,186,176,184],"times":[758,486,599,701,1070],"next_num":5,"trial_type":"ticket-choose","trial_index":37,"time_elapsed":527812,"internal_node_id":"0.0-37.0"},{"result":156,"points":3,"place":0,"phase":0,"sequence":18,"prices":[175,185,178,215,181,186,167,168,208,156],"times":[730,581,583,672,678,704,1058,1806,779,994],"next_num":10,"trial_type":"ticket-choose","trial_index":38,"time_elapsed":540595,"internal_node_id":"0.0-38.0"},{"result":166,"points":1,"place":2,"phase":0,"sequence":19,"prices":[175,186,165,214,179,187,177,166,153,208],"times":[1153,684,2035,643,639,662,619,1011],"next_num":8,"trial_type":"ticket-choose","trial_index":39,"time_elapsed":551471,"internal_node_id":"0.0-39.0"},{"result":168,"points":1,"place":2,"phase":0,"sequence":20,"prices":[183,182,192,168,173,205,167,187,165,170],"times":[653,627,655,2250],"next_num":4,"trial_type":"ticket-choose","trial_index":40,"time_elapsed":558359,"internal_node_id":"0.0-40.0"},{"result":158,"points":3,"place":0,"phase":0,"sequence":21,"prices":[210,184,226,193,215,158,199,175,176,208],"times":[1050,587,647,595,636,1214],"next_num":6,"trial_type":"ticket-choose","trial_index":41,"time_elapsed":566011,"internal_node_id":"0.0-41.0"},{"result":165,"points":3,"place":0,"phase":0,"sequence":22,"prices":[196,165,170,184,187,211,171,201,202,185],"times":[617,2177],"next_num":2,"trial_type":"ticket-choose","trial_index":42,"time_elapsed":571172,"internal_node_id":"0.0-42.0"},{"result":164,"points":3,"place":0,"phase":0,"sequence":23,"prices":[212,192,188,184,167,193,189,164,176,170],"times":[703,672,638,633,1182,610,616,1003],"next_num":8,"trial_type":"ticket-choose","trial_index":43,"time_elapsed":580558,"internal_node_id":"0.0-43.0"},{"result":163,"points":3,"place":0,"phase":0,"sequence":24,"prices":[168,199,196,198,185,195,227,163,177,166],"times":[4336,566,673,1276,604,670,645,979],"next_num":8,"trial_type":"ticket-choose","trial_index":44,"time_elapsed":593622,"internal_node_id":"0.0-44.0"},{"result":155,"points":2,"place":1,"phase":0,"sequence":25,"prices":[181,155,148,161,168,187,172,199,176,194],"times":[918,1199],"next_num":2,"trial_type":"ticket-choose","trial_index":45,"time_elapsed":597945,"internal_node_id":"0.0-45.0"},{"result":165,"points":3,"place":0,"phase":0,"sequence":26,"prices":[189,167,180,197,165,168,172,213,178,171],"times":[893,1193,646,666,930],"next_num":5,"trial_type":"ticket-choose","trial_index":46,"time_elapsed":605019,"internal_node_id":"0.0-46.0"},{"result":143,"points":3,"place":0,"phase":0,"sequence":27,"prices":[222,173,202,197,143,205,198,183,178,186],"times":[818,654,733,713,1043],"next_num":5,"trial_type":"ticket-choose","trial_index":47,"time_elapsed":611702,"internal_node_id":"0.0-47.0"},{"result":152,"points":3,"place":0,"phase":0,"sequence":28,"prices":[200,181,203,152,175,171,160,154,176,191],"times":[775,801,645,1097],"next_num":4,"trial_type":"ticket-choose","trial_index":48,"time_elapsed":617545,"internal_node_id":"0.0-48.0"},{"result":166,"points":1,"place":2,"phase":0,"sequence":29,"prices":[175,186,158,211,180,187,177,166,209,153],"times":[816,617,871,1206,728,664,1046,1147],"next_num":8,"trial_type":"ticket-choose","trial_index":49,"time_elapsed":628081,"internal_node_id":"0.0-49.0"},{"result":184,"points":1,"place":4,"phase":0,"sequence":30,"prices":[193,165,175,181,185,224,180,199,218,184],"times":[857,1021,643,668,661,699,702,678,719,1788],"next_num":11,"trial_type":"ticket-choose","trial_index":50,"time_elapsed":641341,"internal_node_id":"0.0-50.0"},{"result":165,"points":3,"place":0,"phase":0,"sequence":31,"prices":[171,203,175,170,167,220,192,186,165,165],"times":[977,682,708,675,1227,688,704,747,934],"next_num":9,"trial_type":"ticket-choose","trial_index":51,"time_elapsed":652276,"internal_node_id":"0.0-51.0"},{"result":169,"points":1,"place":2,"phase":0,"sequence":32,"prices":[175,186,167,225,179,187,178,169,209,153],"times":[773,710,1057,659,699,792,858,2007],"next_num":8,"trial_type":"ticket-choose","trial_index":52,"time_elapsed":663241,"internal_node_id":"0.0-52.0"},{"result":165,"points":2,"place":1,"phase":0,"sequence":33,"prices":[188,200,165,172,198,174,177,154,177,180],"times":[821,694,1352],"next_num":3,"trial_type":"ticket-choose","trial_index":53,"time_elapsed":668486,"internal_node_id":"0.0-53.0"},{"result":163,"points":2,"place":1,"phase":0,"sequence":34,"prices":[175,187,176,209,180,188,163,165,154,208],"times":[768,802,690,702,711,754,1323],"next_num":7,"trial_type":"ticket-choose","trial_index":54,"time_elapsed":677494,"internal_node_id":"0.0-54.0"},{"result":158,"points":2,"place":1,"phase":0,"sequence":35,"prices":[175,186,177,209,181,188,158,167,208,154],"times":[852,763,839,726,716,672,998],"next_num":7,"trial_type":"ticket-choose","trial_index":55,"time_elapsed":686294,"internal_node_id":"0.0-55.0"},{"result":158,"points":2,"place":1,"phase":0,"sequence":36,"prices":[175,186,177,221,180,187,158,166,209,153],"times":[999,768,855,704,785,791,1082],"next_num":7,"trial_type":"ticket-choose","trial_index":56,"time_elapsed":695480,"internal_node_id":"0.0-56.0"},{"result":156,"points":3,"place":0,"phase":0,"sequence":37,"prices":[175,185,167,224,181,186,178,168,208,156],"times":[1138,660,1151,614,642,677,643,887,671,935],"next_num":10,"trial_type":"ticket-choose","trial_index":57,"time_elapsed":707508,"internal_node_id":"0.0-57.0"},{"result":167,"points":2,"place":1,"phase":0,"sequence":38,"prices":[174,186,178,217,181,188,167,168,208,156],"times":[871,591,694,688,738,697,1295],"next_num":7,"trial_type":"ticket-choose","trial_index":58,"time_elapsed":716235,"internal_node_id":"0.0-58.0"},{"result":165,"points":3,"place":0,"phase":0,"sequence":39,"prices":[191,172,169,175,182,203,170,195,165,176],"times":[940,660,812,609,604,648,651,690,1011],"next_num":9,"trial_type":"ticket-choose","trial_index":59,"time_elapsed":726384,"internal_node_id":"0.0-59.0"},{"result":165,"points":2,"place":1,"phase":0,"sequence":40,"prices":[175,186,177,210,179,187,165,166,153,208],"times":[730,774,565,595,590,573,952],"next_num":7,"trial_type":"ticket-choose","trial_index":60,"time_elapsed":734244,"internal_node_id":"0.0-60.0"},{"result":167,"points":2,"place":1,"phase":0,"sequence":41,"prices":[175,186,178,212,179,187,167,169,209,153],"times":[699,607,576,630,623,606,2143],"next_num":7,"trial_type":"ticket-choose","trial_index":61,"time_elapsed":743318,"internal_node_id":"0.0-61.0"},{"result":163,"points":2,"place":1,"phase":0,"sequence":42,"prices":[198,193,169,163,202,182,152,164,177,171],"times":[913,528,840,1156],"next_num":4,"trial_type":"ticket-choose","trial_index":62,"time_elapsed":749267,"internal_node_id":"0.0-62.0"},{"result":154,"points":2,"place":1,"phase":0,"sequence":43,"prices":[168,154,172,185,195,144,184,211,177,227],"times":[830,1039],"next_num":2,"trial_type":"ticket-choose","trial_index":63,"time_elapsed":753297,"internal_node_id":"0.0-63.0"},{"result":155,"points":2,"place":1,"phase":0,"sequence":44,"prices":[201,207,155,158,156,165,167,135,178,177],"times":[942,726,1052],"next_num":3,"trial_type":"ticket-choose","trial_index":64,"time_elapsed":758366,"internal_node_id":"0.0-64.0"},{"result":158,"points":2,"place":1,"phase":0,"sequence":45,"prices":[189,150,175,160,188,207,158,194,178,199],"times":[705,619,1404,1887,617,653,1091],"next_num":7,"trial_type":"ticket-choose","trial_index":65,"time_elapsed":768616,"internal_node_id":"0.0-65.0"},{"result":163,"points":2,"place":1,"phase":0,"sequence":46,"prices":[174,186,176,217,181,187,163,166,153,209],"times":[934,633,622,679,609,648,1316],"next_num":7,"trial_type":"ticket-choose","trial_index":66,"time_elapsed":777358,"internal_node_id":"0.0-66.0"},{"result":165,"points":2,"place":1,"phase":0,"sequence":47,"prices":[174,186,177,217,181,187,165,166,153,209],"times":[882,713,726,744,2177,666,2063],"next_num":7,"trial_type":"ticket-choose","trial_index":67,"time_elapsed":788482,"internal_node_id":"0.0-67.0"},{"result":167,"points":1,"place":2,"phase":0,"sequence":48,"prices":[174,186,165,212,181,187,177,167,153,209],"times":[2127,714,1133,679,600,645,635,952],"next_num":8,"trial_type":"ticket-choose","trial_index":68,"time_elapsed":799696,"internal_node_id":"0.0-68.0"},{"result":158,"points":2,"place":1,"phase":0,"sequence":49,"prices":[176,187,158,210,181,187,177,165,208,153],"times":[844,601,1042],"next_num":3,"trial_type":"ticket-choose","trial_index":69,"time_elapsed":804530,"internal_node_id":"0.0-69.0"},{"responses":[{"value":0,"offby":-1,"category":"$115 - $130","category_index":0},{"value":2,"offby":-3,"category":"$131 - $145","category_index":1},{"value":18,"offby":6,"category":"$146 - $160","category_index":2},{"value":25,"offby":3,"category":"$161 - $175","category_index":3},{"value":35,"offby":1,"category":"$176 - $190","category_index":4},{"value":15,"offby":0,"category":"$191 - $205","category_index":5},{"value":5,"offby":-6,"category":"$206 - $220","category_index":6}],"phase":1,"number":1,"trial_type":"bar-choose","trial_index":70,"time_elapsed":872493,"internal_node_id":"0.0-70.0"},{"rt":14447,"url":"\/christiane\/tickets\/utils\/testing2.html","trial_type":"point_update","trial_index":71,"time_elapsed":888279,"internal_node_id":"0.0-71.0"},{"phase":1,"order":[32,25,4,40,14,16,10,28,45,17,36,18,13,3,41,34,22,9,44,5,37,35,39,43,31,12,38,33,21,30,23,47,1,11,20,6,26,0,7,19,46,15,29,49,42,48,27,2,24,8],"trial_type":"store_order","trial_index":72,"time_elapsed":889288,"internal_node_id":"0.0-72.0"},{"result":165,"points":2,"place":1,"phase":1,"sequence":0,"prices":[193,174,224,165,187,190,224,161,194,195],"times":[3055,881,767,1252],"next_num":4,"trial_type":"ticket-choose","trial_index":73,"time_elapsed":897781,"internal_node_id":"0.0-73.0"},{"result":166,"points":1,"place":3,"phase":1,"sequence":1,"prices":[201,204,179,166,185,165,214,156,202,165],"times":[812,560,616,1065],"next_num":4,"trial_type":"ticket-choose","trial_index":74,"time_elapsed":903417,"internal_node_id":"0.0-74.0"},{"result":156,"points":3,"place":0,"phase":1,"sequence":2,"prices":[178,175,185,215,167,181,186,168,208,156],"times":[706,726,571,657,748,605,649,1354,683,904],"next_num":10,"trial_type":"ticket-choose","trial_index":75,"time_elapsed":914970,"internal_node_id":"0.0-75.0"},{"result":150,"points":3,"place":0,"phase":1,"sequence":3,"prices":[190,150,175,161,188,207,157,194,178,199],"times":[823,1109],"next_num":2,"trial_type":"ticket-choose","trial_index":76,"time_elapsed":919072,"internal_node_id":"0.0-76.0"},{"result":163,"points":2,"place":1,"phase":1,"sequence":4,"prices":[163,174,186,212,176,181,187,166,153,209],"times":[1231],"next_num":1,"trial_type":"ticket-choose","trial_index":77,"time_elapsed":922238,"internal_node_id":"0.0-77.0"},{"result":163,"points":2,"place":1,"phase":1,"sequence":5,"prices":[176,187,179,209,163,180,188,165,154,208],"times":[863,553,592,664,1135],"next_num":5,"trial_type":"ticket-choose","trial_index":78,"time_elapsed":928776,"internal_node_id":"0.0-78.0"},{"result":165,"points":2,"place":1,"phase":1,"sequence":6,"prices":[177,175,187,209,165,180,188,165,154,208],"times":[727,634,568,634,1117],"next_num":5,"trial_type":"ticket-choose","trial_index":79,"time_elapsed":935173,"internal_node_id":"0.0-79.0"},{"result":202,"points":0,"place":8,"phase":1,"sequence":7,"prices":[196,171,170,184,187,165,211,169,201,202],"times":[765,630,602,609,576,995,616,1413,690,1340],"next_num":11,"trial_type":"ticket-choose","trial_index":80,"time_elapsed":947829,"internal_node_id":"0.0-80.0"},{"result":164,"points":3,"place":0,"phase":1,"sequence":8,"prices":[199,191,188,174,167,193,189,164,176,170],"times":[841,597,604,634,939,627,630,916],"next_num":8,"trial_type":"ticket-choose","trial_index":81,"time_elapsed":956941,"internal_node_id":"0.0-81.0"},{"result":163,"points":2,"place":1,"phase":1,"sequence":9,"prices":[176,186,178,217,163,181,187,166,153,209],"times":[784,561,591,618,935],"next_num":5,"trial_type":"ticket-choose","trial_index":82,"time_elapsed":963072,"internal_node_id":"0.0-82.0"},{"result":165,"points":2,"place":1,"phase":1,"sequence":10,"prices":[187,201,165,172,196,174,178,154,172,180],"times":[673,597,1017],"next_num":3,"trial_type":"ticket-choose","trial_index":83,"time_elapsed":967563,"internal_node_id":"0.0-83.0"},{"result":158,"points":2,"place":1,"phase":1,"sequence":11,"prices":[158,175,186,211,177,180,187,166,209,153],"times":[1054],"next_num":1,"trial_type":"ticket-choose","trial_index":84,"time_elapsed":970377,"internal_node_id":"0.0-84.0"},{"result":163,"points":2,"place":1,"phase":1,"sequence":12,"prices":[163,175,187,209,176,180,188,165,154,208],"times":[998],"next_num":1,"trial_type":"ticket-choose","trial_index":85,"time_elapsed":973190,"internal_node_id":"0.0-85.0"},{"result":167,"points":2,"place":1,"phase":1,"sequence":13,"prices":[178,174,186,217,167,181,188,168,208,156],"times":[851,562,674,642,1849],"next_num":5,"trial_type":"ticket-choose","trial_index":86,"time_elapsed":980447,"internal_node_id":"0.0-86.0"},{"result":155,"points":2,"place":1,"phase":1,"sequence":14,"prices":[200,207,155,158,156,168,167,135,178,177],"times":[727,539,1051],"next_num":3,"trial_type":"ticket-choose","trial_index":87,"time_elapsed":985040,"internal_node_id":"0.0-87.0"},{"result":156,"points":2,"place":1,"phase":1,"sequence":15,"prices":[180,156,149,160,168,186,172,198,176,195],"times":[736,1239],"next_num":2,"trial_type":"ticket-choose","trial_index":88,"time_elapsed":989048,"internal_node_id":"0.0-88.0"},{"result":158,"points":2,"place":1,"phase":1,"sequence":16,"prices":[177,175,186,209,158,181,188,167,208,154],"times":[751,618,585,619,1126],"next_num":5,"trial_type":"ticket-choose","trial_index":89,"time_elapsed":995439,"internal_node_id":"0.0-89.0"},{"result":165,"points":2,"place":1,"phase":1,"sequence":17,"prices":[177,175,186,210,165,179,187,166,153,208],"times":[693,616,611,616,1051],"next_num":5,"trial_type":"ticket-choose","trial_index":90,"time_elapsed":1001701,"internal_node_id":"0.0-90.0"},{"result":149,"points":3,"place":0,"phase":1,"sequence":18,"prices":[181,159,149,175,185,151,163,174,178,207],"times":[720,936,1206],"next_num":3,"trial_type":"ticket-choose","trial_index":91,"time_elapsed":1006962,"internal_node_id":"0.0-91.0"},{"result":153,"points":3,"place":0,"phase":1,"sequence":19,"prices":[178,175,186,212,167,179,187,169,209,153],"times":[697,623,638,620,761,679,651,1803,770,867],"next_num":10,"trial_type":"ticket-choose","trial_index":92,"time_elapsed":1019055,"internal_node_id":"0.0-92.0"},{"result":165,"points":1,"place":2,"phase":1,"sequence":20,"prices":[199,193,169,165,202,182,151,164,176,171],"times":[665,694,1063,1157],"next_num":4,"trial_type":"ticket-choose","trial_index":93,"time_elapsed":1025147,"internal_node_id":"0.0-93.0"},{"result":143,"points":3,"place":0,"phase":1,"sequence":21,"prices":[167,153,172,185,195,143,184,211,177,227],"times":[852,571,1178,680,640,978],"next_num":6,"trial_type":"ticket-choose","trial_index":94,"time_elapsed":1033028,"internal_node_id":"0.0-94.0"},{"result":171,"points":1,"place":3,"phase":1,"sequence":22,"prices":[189,167,180,197,165,168,172,213,178,171],"times":[791,721,630,704,2604,1212,929,657,1165,1219],"next_num":11,"trial_type":"ticket-choose","trial_index":95,"time_elapsed":1047584,"internal_node_id":"0.0-95.0"},{"result":157,"points":3,"place":0,"phase":1,"sequence":23,"prices":[201,187,157,184,198,179,188,185,178,170],"times":[749,622,1028],"next_num":3,"trial_type":"ticket-choose","trial_index":96,"time_elapsed":1052445,"internal_node_id":"0.0-96.0"},{"result":165,"points":1,"place":2,"phase":1,"sequence":24,"prices":[171,169,186,165,163,167,220,148,187,165],"times":[757,885,590,907],"next_num":4,"trial_type":"ticket-choose","trial_index":97,"time_elapsed":1058040,"internal_node_id":"0.0-97.0"},{"result":163,"points":2,"place":1,"phase":1,"sequence":25,"prices":[163,175,186,214,176,179,187,166,153,208],"times":[1195],"next_num":1,"trial_type":"ticket-choose","trial_index":98,"time_elapsed":1061120,"internal_node_id":"0.0-98.0"},{"result":163,"points":3,"place":0,"phase":1,"sequence":26,"prices":[163,199,196,199,185,195,227,163,177,166],"times":[1268],"next_num":1,"trial_type":"ticket-choose","trial_index":99,"time_elapsed":1064560,"internal_node_id":"0.0-99.0"},{"result":165,"points":2,"place":1,"phase":1,"sequence":27,"prices":[183,179,188,165,168,173,205,159,187,191],"times":[769,543,655,995],"next_num":4,"trial_type":"ticket-choose","trial_index":100,"time_elapsed":1069938,"internal_node_id":"0.0-100.0"},{"result":158,"points":2,"place":1,"phase":1,"sequence":28,"prices":[177,175,186,221,158,180,187,166,209,153],"times":[696,613,578,649,1927],"next_num":5,"trial_type":"ticket-choose","trial_index":101,"time_elapsed":1077111,"internal_node_id":"0.0-101.0"},{"result":165,"points":2,"place":1,"phase":1,"sequence":29,"prices":[191,170,182,165,175,182,203,157,195,200],"times":[700,603,617,1925],"next_num":4,"trial_type":"ticket-choose","trial_index":102,"time_elapsed":1083415,"internal_node_id":"0.0-102.0"},{"result":165,"points":1,"place":2,"phase":1,"sequence":30,"prices":[177,176,187,225,158,181,187,165,208,153],"times":[642,631,560,628,492,688,614,941],"next_num":8,"trial_type":"ticket-choose","trial_index":103,"time_elapsed":1091959,"internal_node_id":"0.0-103.0"},{"result":152,"points":3,"place":0,"phase":1,"sequence":31,"prices":[200,180,203,152,175,170,160,154,176,191],"times":[769,516,709,931],"next_num":4,"trial_type":"ticket-choose","trial_index":104,"time_elapsed":1097339,"internal_node_id":"0.0-104.0"},{"result":156,"points":3,"place":0,"phase":1,"sequence":32,"prices":[167,175,185,224,178,181,186,168,208,156],"times":[1269,633,620,656,610,638,646,1050,1106,927],"next_num":10,"trial_type":"ticket-choose","trial_index":105,"time_elapsed":1109345,"internal_node_id":"0.0-105.0"},{"result":153,"points":3,"place":0,"phase":1,"sequence":33,"prices":[177,174,186,217,165,181,187,166,153,209],"times":[962,608,642,655,1563,593,581,885,1060],"next_num":9,"trial_type":"ticket-choose","trial_index":106,"time_elapsed":1120719,"internal_node_id":"0.0-106.0"},{"result":158,"points":2,"place":1,"phase":1,"sequence":34,"prices":[158,176,187,210,177,181,187,165,208,153],"times":[1069],"next_num":1,"trial_type":"ticket-choose","trial_index":107,"time_elapsed":1123675,"internal_node_id":"0.0-107.0"},{"result":166,"points":1,"place":2,"phase":1,"sequence":35,"prices":[165,175,186,214,177,179,187,166,153,208],"times":[1189,572,614,600,583,587,622,976],"next_num":8,"trial_type":"ticket-choose","trial_index":108,"time_elapsed":1132723,"internal_node_id":"0.0-108.0"},{"result":152,"points":3,"place":0,"phase":1,"sequence":36,"prices":[200,173,182,169,207,165,152,202,161,204],"times":[664,542,631,757,628,1338,930],"next_num":7,"trial_type":"ticket-choose","trial_index":109,"time_elapsed":1141400,"internal_node_id":"0.0-109.0"},{"result":168,"points":1,"place":2,"phase":1,"sequence":37,"prices":[167,174,186,211,178,181,188,168,208,156],"times":[828,617,697,724,657,765,665,2319],"next_num":8,"trial_type":"ticket-choose","trial_index":110,"time_elapsed":1152094,"internal_node_id":"0.0-110.0"},{"result":165,"points":2,"place":1,"phase":1,"sequence":38,"prices":[165,175,187,209,177,180,188,167,154,208],"times":[1084],"next_num":1,"trial_type":"ticket-choose","trial_index":111,"time_elapsed":1155122,"internal_node_id":"0.0-111.0"},{"result":158,"points":2,"place":1,"phase":1,"sequence":39,"prices":[158,175,186,209,177,181,188,167,208,154],"times":[1067],"next_num":1,"trial_type":"ticket-choose","trial_index":112,"time_elapsed":1158073,"internal_node_id":"0.0-112.0"},{"result":158,"points":3,"place":0,"phase":1,"sequence":40,"prices":[214,184,226,192,215,158,199,175,176,208],"times":[925,627,683,696,682,1098],"next_num":6,"trial_type":"ticket-choose","trial_index":113,"time_elapsed":1165737,"internal_node_id":"0.0-113.0"},{"result":163,"points":2,"place":1,"phase":1,"sequence":41,"prices":[176,175,186,210,163,179,187,166,153,208],"times":[1634,692,685,688,906],"next_num":5,"trial_type":"ticket-choose","trial_index":114,"time_elapsed":1173030,"internal_node_id":"0.0-114.0"},{"result":165,"points":1,"place":2,"phase":1,"sequence":42,"prices":[185,179,191,165,161,173,199,150,188,168],"times":[881,846,721,941],"next_num":4,"trial_type":"ticket-choose","trial_index":115,"time_elapsed":1178852,"internal_node_id":"0.0-115.0"},{"result":163,"points":1,"place":2,"phase":1,"sequence":43,"prices":[173,163,185,181,166,148,160,185,176,184],"times":[860,964],"next_num":2,"trial_type":"ticket-choose","trial_index":116,"time_elapsed":1182718,"internal_node_id":"0.0-116.0"},{"result":186,"points":1,"place":4,"phase":1,"sequence":44,"prices":[220,173,201,197,169,205,198,183,178,186],"times":[813,623,676,647,750,765,647,641,729,718],"next_num":11,"trial_type":"ticket-choose","trial_index":117,"time_elapsed":1194899,"internal_node_id":"0.0-117.0"},{"result":147,"points":3,"place":0,"phase":1,"sequence":45,"prices":[181,214,169,147,182,193,178,184,176,179],"times":[1196,691,838,1112],"next_num":4,"trial_type":"ticket-choose","trial_index":118,"time_elapsed":1201473,"internal_node_id":"0.0-118.0"},{"result":165,"points":3,"place":0,"phase":1,"sequence":46,"prices":[192,172,171,178,188,165,217,168,195,197],"times":[944,908,632,639,699,1104],"next_num":6,"trial_type":"ticket-choose","trial_index":119,"time_elapsed":1209646,"internal_node_id":"0.0-119.0"},{"result":153,"points":3,"place":0,"phase":1,"sequence":47,"prices":[167,175,186,225,178,179,187,169,209,153],"times":[1437,671,574,632,574,613,612,2509,682,994],"next_num":10,"trial_type":"ticket-choose","trial_index":120,"time_elapsed":1223199,"internal_node_id":"0.0-120.0"},{"result":165,"points":3,"place":0,"phase":1,"sequence":48,"prices":[193,181,175,181,185,165,224,199,218,184],"times":[1016,644,589,621,666,905],"next_num":6,"trial_type":"ticket-choose","trial_index":121,"time_elapsed":1230782,"internal_node_id":"0.0-121.0"},{"result":165,"points":2,"place":1,"phase":1,"sequence":49,"prices":[165,174,186,212,177,181,187,166,153,209],"times":[1336],"next_num":1,"trial_type":"ticket-choose","trial_index":122,"time_elapsed":1234291,"internal_node_id":"0.0-122.0"},{"responses":[{"value":0,"offby":-1,"category":"$115 - $130","category_index":0},{"value":8,"offby":3,"category":"$131 - $145","category_index":1},{"value":22,"offby":10,"category":"$146 - $160","category_index":2},{"value":25,"offby":3,"category":"$161 - $175","category_index":3},{"value":30,"offby":-4,"category":"$176 - $190","category_index":4},{"value":15,"offby":0,"category":"$191 - $205","category_index":5},{"value":0,"offby":-11,"category":"$206 - $220","category_index":6}],"phase":1,"number":1,"trial_type":"bar-choose","trial_index":123,"time_elapsed":1286157,"internal_node_id":"0.0-123.0"},{"special_comment":"no","trial_type":"special_sequence","trial_index":124,"time_elapsed":1290783,"internal_node_id":"0.0-124.0"},{"during":"Nothing","bonus":284,"trial_type":"final","trial_index":125,"time_elapsed":1312937,"internal_node_id":"0.0-125.0"}],"bonus":284}