{"start_time":"2017-05-24 15:47:25","end_time":"2017-05-24 16:38:36","points_phase0":112,"points_phase1":116,"phase_order":1,"age":39,"gender":"m","tries":1,"during":"Talking with a friend","worker_id":"A3KN0O7VP8YSZY","assignment_id":"32RIADZISTXA8FCLU3JDKYCO33X4SS","data":[{"rt":1135111,"url":"\/christiane\/tickets\/utils\/consent.html","trial_type":"html","trial_index":0,"time_elapsed":1135175,"internal_node_id":"0.0-0.0"},{"age":39,"gender":"m","trial_type":"age","trial_index":1,"time_elapsed":1149295,"internal_node_id":"0.0-1.0"},{"worker_id":"A3KN0O7VP8YSZY","trial_type":"workerid","trial_index":2,"time_elapsed":1186420,"internal_node_id":"0.0-2.0"},{"tries":1,"trial_type":"instructions_check","trial_index":3,"time_elapsed":1205203,"internal_node_id":"0.0-3.0"},{"rt":22162,"url":"\/christiane\/tickets\/utils\/start.html","trial_type":"html","trial_index":4,"time_elapsed":1228447,"internal_node_id":"0.0-4.0"},{"trial_type":"number-animation","trial_index":5,"time_elapsed":1272059,"internal_node_id":"0.0-5.0"},{"phase":0,"sequence":0,"avg":181,"response":180,"trial_type":"training_avg","trial_index":6,"time_elapsed":1293043,"internal_node_id":"0.0-6.0"},{"trial_type":"number-animation","trial_index":7,"time_elapsed":1308546,"internal_node_id":"0.0-7.0"},{"phase":0,"sequence":1,"avg":188,"response":178,"trial_type":"training_avg","trial_index":8,"time_elapsed":1322931,"internal_node_id":"0.0-8.0"},{"trial_type":"number-animation","trial_index":9,"time_elapsed":1337675,"internal_node_id":"0.0-9.0"},{"phase":0,"sequence":2,"avg":188,"response":175,"trial_type":"training_avg","trial_index":10,"time_elapsed":1346906,"internal_node_id":"0.0-10.0"},{"trial_type":"number-animation","trial_index":11,"time_elapsed":1359955,"internal_node_id":"0.0-11.0"},{"phase":0,"sequence":3,"avg":177,"response":161,"trial_type":"training_avg","trial_index":12,"time_elapsed":1366164,"internal_node_id":"0.0-12.0"},{"trial_type":"number-animation","trial_index":13,"time_elapsed":1378067,"internal_node_id":"0.0-13.0"},{"phase":0,"sequence":4,"avg":182,"response":171,"trial_type":"training_avg","trial_index":14,"time_elapsed":1386187,"internal_node_id":"0.0-14.0"},{"responses":[{"value":0,"offby":-1,"category":"$115 - $130","category_index":0},{"value":10,"offby":5,"category":"$131 - $145","category_index":1},{"value":5,"offby":-7,"category":"$146 - $160","category_index":2},{"value":10,"offby":-12,"category":"$161 - $175","category_index":3},{"value":40,"offby":6,"category":"$176 - $190","category_index":4},{"value":20,"offby":5,"category":"$191 - $205","category_index":5},{"value":15,"offby":4,"category":"$206 - $220","category_index":6}],"phase":0,"number":0,"trial_type":"bar-choose","trial_index":15,"time_elapsed":1550407,"internal_node_id":"0.0-15.0"},{"rt":12047,"url":"\/christiane\/tickets\/utils\/testing.html","trial_type":"html","trial_index":16,"time_elapsed":1563540,"internal_node_id":"0.0-16.0"},{"phase":0,"order":[24,5,16,39,38,47,17,0,23,28,18,14,11,15,48,12,27,22,34,33,7,6,32,1,10,40,43,44,46,26,42,36,3,19,30,8,45,37,35,9,25,13,2,4,21,31,29,20,49,41],"trial_type":"store_order","trial_index":17,"time_elapsed":1564540,"internal_node_id":"0.0-17.0"},{"result":146,"points":3,"place":0,"phase":0,"sequence":-1,"prices":[184,180,224,165,181,199,185,193,218,146],"times":[4093,1322,1149,3672,990,727,822,1029,783,1488],"next_num":10,"trial_type":"ticket-choose","trial_index":18,"time_elapsed":1585067,"internal_node_id":"0.0-18.0"},{"rt":4583,"url":"\/christiane\/tickets\/utils\/testing_after.html","trial_type":"html","trial_index":19,"time_elapsed":1590731,"internal_node_id":"0.0-19.0"},{"result":153,"points":3,"place":0,"phase":0,"sequence":0,"prices":[165,175,186,214,177,179,187,166,153,208],"times":[3859,813,743,830,598,927,1334,1370,3240],"next_num":9,"trial_type":"ticket-choose","trial_index":20,"time_elapsed":1640811,"internal_node_id":"0.0-20.0"},{"result":158,"points":2,"place":1,"phase":0,"sequence":1,"prices":[158,176,187,210,177,181,187,165,208,153],"times":[1540],"next_num":1,"trial_type":"ticket-choose","trial_index":21,"time_elapsed":1644450,"internal_node_id":"0.0-21.0"},{"result":156,"points":3,"place":0,"phase":0,"sequence":2,"prices":[178,174,186,217,167,181,188,168,208,156],"times":[887,429,319,234,778,462,448,703,903,438],"next_num":10,"trial_type":"ticket-choose","trial_index":22,"time_elapsed":1654419,"internal_node_id":"0.0-22.0"},{"result":171,"points":1,"place":3,"phase":0,"sequence":3,"prices":[189,167,180,197,165,168,172,213,178,171],"times":[878,518,430,390,358,390,503,550,477,1297],"next_num":10,"trial_type":"ticket-choose","trial_index":23,"time_elapsed":1664035,"internal_node_id":"0.0-23.0"},{"result":154,"points":3,"place":0,"phase":0,"sequence":4,"prices":[187,201,165,172,196,174,178,154,172,180],"times":[814,474,467,350,470,470,462,1191],"next_num":8,"trial_type":"ticket-choose","trial_index":24,"time_elapsed":1672466,"internal_node_id":"0.0-24.0"},{"result":169,"points":1,"place":2,"phase":0,"sequence":5,"prices":[167,175,186,225,178,179,187,169,209,153],"times":[28383,422,390,1182,34512,622,459,1489],"next_num":8,"trial_type":"ticket-choose","trial_index":25,"time_elapsed":1743363,"internal_node_id":"0.0-25.0"},{"result":150,"points":3,"place":0,"phase":0,"sequence":6,"prices":[185,179,191,165,161,173,199,150,188,168],"times":[853,6223,744,598,413,638,1504,941],"next_num":8,"trial_type":"ticket-choose","trial_index":26,"time_elapsed":1781706,"internal_node_id":"0.0-26.0"},{"result":152,"points":3,"place":0,"phase":0,"sequence":7,"prices":[200,180,203,152,175,170,160,154,176,191],"times":[1292,652,492,1014],"next_num":4,"trial_type":"ticket-choose","trial_index":27,"time_elapsed":1788029,"internal_node_id":"0.0-27.0"},{"result":151,"points":3,"place":0,"phase":0,"sequence":8,"prices":[199,193,169,165,202,182,151,164,176,171],"times":[1305,513,367,837,532,567,973],"next_num":7,"trial_type":"ticket-choose","trial_index":28,"time_elapsed":1796754,"internal_node_id":"0.0-28.0"},{"result":156,"points":3,"place":0,"phase":0,"sequence":9,"prices":[201,204,179,166,185,165,214,156,202,165],"times":[1081,437,326,13432,740,662,574,2201],"next_num":8,"trial_type":"ticket-choose","trial_index":29,"time_elapsed":1822596,"internal_node_id":"0.0-29.0"},{"result":163,"points":2,"place":1,"phase":0,"sequence":10,"prices":[171,169,186,165,163,167,220,148,187,165],"times":[1620,758,440,518,3151],"next_num":5,"trial_type":"ticket-choose","trial_index":30,"time_elapsed":1831986,"internal_node_id":"0.0-30.0"},{"result":154,"points":3,"place":0,"phase":0,"sequence":11,"prices":[177,175,187,209,165,180,188,165,154,208],"times":[1234,433,417,544,494,503,534,935,1207],"next_num":9,"trial_type":"ticket-choose","trial_index":31,"time_elapsed":1842121,"internal_node_id":"0.0-31.0"},{"result":168,"points":1,"place":2,"phase":0,"sequence":12,"prices":[167,175,185,224,178,181,186,168,208,156],"times":[2429,438,458,509,473,558,502,1063],"next_num":8,"trial_type":"ticket-choose","trial_index":32,"time_elapsed":1851970,"internal_node_id":"0.0-32.0"},{"result":149,"points":3,"place":0,"phase":0,"sequence":13,"prices":[181,159,149,175,185,151,163,174,178,207],"times":[1231,270,1027],"next_num":3,"trial_type":"ticket-choose","trial_index":33,"time_elapsed":1857586,"internal_node_id":"0.0-33.0"},{"result":148,"points":3,"place":0,"phase":0,"sequence":14,"prices":[173,163,185,181,166,148,160,185,176,184],"times":[722,2594,719,365,498,931],"next_num":6,"trial_type":"ticket-choose","trial_index":34,"time_elapsed":1866819,"internal_node_id":"0.0-34.0"},{"result":158,"points":2,"place":1,"phase":0,"sequence":15,"prices":[158,175,186,209,177,181,188,167,208,154],"times":[1142],"next_num":1,"trial_type":"ticket-choose","trial_index":35,"time_elapsed":1869941,"internal_node_id":"0.0-35.0"},{"result":157,"points":3,"place":0,"phase":0,"sequence":16,"prices":[191,170,182,165,175,182,203,157,195,200],"times":[826,3830,474,499,535,591,584,1029],"next_num":8,"trial_type":"ticket-choose","trial_index":36,"time_elapsed":1882138,"internal_node_id":"0.0-36.0"},{"result":153,"points":3,"place":0,"phase":0,"sequence":17,"prices":[177,175,186,210,165,179,187,166,153,208],"times":[8547,550,1510,552,660,688,526,1192,1047],"next_num":9,"trial_type":"ticket-choose","trial_index":37,"time_elapsed":1901417,"internal_node_id":"0.0-37.0"},{"result":153,"points":3,"place":0,"phase":0,"sequence":18,"prices":[163,175,186,214,176,179,187,166,153,208],"times":[1264,670,477,699,497,505,556,518,1221],"next_num":9,"trial_type":"ticket-choose","trial_index":38,"time_elapsed":1916930,"internal_node_id":"0.0-38.0"},{"result":197,"points":0,"place":8,"phase":0,"sequence":19,"prices":[192,172,171,178,188,165,217,168,195,197],"times":[2153,526,502,510,542,542,574,14237,27239,1359],"next_num":10,"trial_type":"ticket-choose","trial_index":39,"time_elapsed":1970282,"internal_node_id":"0.0-39.0"},{"result":153,"points":3,"place":0,"phase":0,"sequence":20,"prices":[176,186,178,217,163,181,187,166,153,209],"times":[4586,590,456,527,1760,717,1855,863,976],"next_num":9,"trial_type":"ticket-choose","trial_index":40,"time_elapsed":1999921,"internal_node_id":"0.0-40.0"},{"result":167,"points":1,"place":2,"phase":0,"sequence":21,"prices":[165,175,187,209,177,180,188,167,154,208],"times":[1588,1872,318,471,526,496,482,1881],"next_num":8,"trial_type":"ticket-choose","trial_index":41,"time_elapsed":2012026,"internal_node_id":"0.0-41.0"},{"result":169,"points":1,"place":2,"phase":0,"sequence":22,"prices":[178,175,186,212,167,179,187,169,209,153],"times":[1277,440,775,2448,750,568,512,1033],"next_num":8,"trial_type":"ticket-choose","trial_index":42,"time_elapsed":2023162,"internal_node_id":"0.0-42.0"},{"result":161,"points":2,"place":1,"phase":0,"sequence":23,"prices":[200,173,182,169,207,165,152,202,161,204],"times":[1065,784,500,2047,864,955,469,1399,863],"next_num":9,"trial_type":"ticket-choose","trial_index":43,"time_elapsed":2036578,"internal_node_id":"0.0-43.0"},{"result":147,"points":3,"place":0,"phase":0,"sequence":24,"prices":[181,214,169,147,182,193,178,184,176,179],"times":[1598,623,806,1079],"next_num":4,"trial_type":"ticket-choose","trial_index":44,"time_elapsed":2043995,"internal_node_id":"0.0-44.0"},{"result":158,"points":1,"place":3,"phase":0,"sequence":25,"prices":[200,207,155,158,156,168,167,135,178,177],"times":[1374,559,354,868],"next_num":4,"trial_type":"ticket-choose","trial_index":45,"time_elapsed":2050234,"internal_node_id":"0.0-45.0"},{"result":159,"points":3,"place":0,"phase":0,"sequence":26,"prices":[183,179,188,165,168,173,205,159,187,191],"times":[1164,1631,517,488,406,528,592,1111],"next_num":8,"trial_type":"ticket-choose","trial_index":46,"time_elapsed":2060585,"internal_node_id":"0.0-46.0"},{"result":150,"points":3,"place":0,"phase":0,"sequence":27,"prices":[190,150,175,161,188,207,157,194,178,199],"times":[5721,1055],"next_num":2,"trial_type":"ticket-choose","trial_index":47,"time_elapsed":2069754,"internal_node_id":"0.0-47.0"},{"result":164,"points":3,"place":0,"phase":0,"sequence":28,"prices":[199,191,188,174,167,193,189,164,176,170],"times":[1317,543,536,597,871,655,1335,1549],"next_num":8,"trial_type":"ticket-choose","trial_index":48,"time_elapsed":2080802,"internal_node_id":"0.0-48.0"},{"result":202,"points":0,"place":8,"phase":0,"sequence":29,"prices":[196,171,170,184,187,165,211,169,201,202],"times":[1522,599,454,509,620,496,2606,688,568,599],"next_num":11,"trial_type":"ticket-choose","trial_index":49,"time_elapsed":2093810,"internal_node_id":"0.0-49.0"},{"result":161,"points":3,"place":0,"phase":0,"sequence":30,"prices":[193,174,224,165,187,190,224,161,194,195],"times":[1234,702,623,2952,529,598,583,1044],"next_num":8,"trial_type":"ticket-choose","trial_index":50,"time_elapsed":2105797,"internal_node_id":"0.0-50.0"},{"result":158,"points":2,"place":1,"phase":0,"sequence":31,"prices":[158,175,186,211,177,180,187,166,209,153],"times":[1438],"next_num":1,"trial_type":"ticket-choose","trial_index":51,"time_elapsed":2109474,"internal_node_id":"0.0-51.0"},{"result":168,"points":1,"place":2,"phase":0,"sequence":32,"prices":[167,174,186,211,178,181,188,168,208,156],"times":[1378,631,487,575,3649,675,567,2181],"next_num":8,"trial_type":"ticket-choose","trial_index":52,"time_elapsed":2123090,"internal_node_id":"0.0-52.0"},{"result":186,"points":1,"place":4,"phase":0,"sequence":33,"prices":[220,173,201,197,169,205,198,183,178,186],"times":[1557,542,2046,875,690,535,656,679,614,1062],"next_num":10,"trial_type":"ticket-choose","trial_index":53,"time_elapsed":2136387,"internal_node_id":"0.0-53.0"},{"result":184,"points":1,"place":4,"phase":0,"sequence":34,"prices":[193,181,175,181,185,165,224,199,218,184],"times":[4874,574,558,488,493,654,582,655,1940,1352],"next_num":10,"trial_type":"ticket-choose","trial_index":54,"time_elapsed":2152531,"internal_node_id":"0.0-54.0"},{"result":168,"points":1,"place":2,"phase":0,"sequence":35,"prices":[178,175,185,215,167,181,186,168,208,156],"times":[1530,1284,490,559,527,703,584,2013],"next_num":8,"trial_type":"ticket-choose","trial_index":55,"time_elapsed":2164019,"internal_node_id":"0.0-55.0"},{"result":165,"points":1,"place":2,"phase":0,"sequence":36,"prices":[163,175,187,209,176,180,188,165,154,208],"times":[1731,501,480,558,603,605,1050,2427],"next_num":8,"trial_type":"ticket-choose","trial_index":56,"time_elapsed":2175619,"internal_node_id":"0.0-56.0"},{"result":158,"points":3,"place":0,"phase":0,"sequence":37,"prices":[214,184,226,192,215,158,199,175,176,208],"times":[7128,550,502,521,612,1031],"next_num":6,"trial_type":"ticket-choose","trial_index":57,"time_elapsed":2191682,"internal_node_id":"0.0-57.0"},{"result":153,"points":2,"place":1,"phase":0,"sequence":38,"prices":[167,153,172,185,195,143,184,211,177,227],"times":[4114,973],"next_num":2,"trial_type":"ticket-choose","trial_index":58,"time_elapsed":2198981,"internal_node_id":"0.0-58.0"},{"result":157,"points":3,"place":0,"phase":0,"sequence":39,"prices":[201,187,157,184,198,179,188,185,178,170],"times":[1208,1919,1119],"next_num":3,"trial_type":"ticket-choose","trial_index":59,"time_elapsed":2205762,"internal_node_id":"0.0-59.0"},{"result":153,"points":3,"place":0,"phase":0,"sequence":40,"prices":[163,174,186,212,176,181,187,166,153,209],"times":[1226,760,131054,542,446,494,478,526,784],"next_num":9,"trial_type":"ticket-choose","trial_index":60,"time_elapsed":2345675,"internal_node_id":"0.0-60.0"},{"result":158,"points":2,"place":1,"phase":0,"sequence":41,"prices":[177,176,187,225,158,181,187,165,208,153],"times":[1097,415,430,687,1750],"next_num":5,"trial_type":"ticket-choose","trial_index":61,"time_elapsed":2352843,"internal_node_id":"0.0-61.0"},{"result":166,"points":1,"place":2,"phase":0,"sequence":42,"prices":[163,199,196,199,185,195,227,163,177,166],"times":[1128,958,488,454,476,502,518,1454,799,892],"next_num":10,"trial_type":"ticket-choose","trial_index":62,"time_elapsed":2364275,"internal_node_id":"0.0-62.0"},{"result":153,"points":3,"place":0,"phase":0,"sequence":43,"prices":[165,174,186,212,177,181,187,166,153,209],"times":[1060,503,511,582,510,543,479,566,1950],"next_num":9,"trial_type":"ticket-choose","trial_index":63,"time_elapsed":2374730,"internal_node_id":"0.0-63.0"},{"result":153,"points":3,"place":0,"phase":0,"sequence":44,"prices":[177,175,186,221,158,180,187,166,209,153],"times":[1173,622,295,438,431,566,542,534,711,566],"next_num":10,"trial_type":"ticket-choose","trial_index":64,"time_elapsed":2384371,"internal_node_id":"0.0-64.0"},{"result":158,"points":2,"place":1,"phase":0,"sequence":45,"prices":[177,175,186,209,158,181,188,167,208,154],"times":[906,559,454,455,880],"next_num":5,"trial_type":"ticket-choose","trial_index":65,"time_elapsed":2390314,"internal_node_id":"0.0-65.0"},{"result":153,"points":3,"place":0,"phase":0,"sequence":46,"prices":[177,174,186,217,165,181,187,166,153,209],"times":[964,414,342,362,405,535,550,1254,880],"next_num":9,"trial_type":"ticket-choose","trial_index":66,"time_elapsed":2399691,"internal_node_id":"0.0-66.0"},{"result":153,"points":3,"place":0,"phase":0,"sequence":47,"prices":[176,175,186,210,163,179,187,166,153,208],"times":[1134,516,519,599,1030,534,582,1014,950],"next_num":9,"trial_type":"ticket-choose","trial_index":67,"time_elapsed":2410290,"internal_node_id":"0.0-67.0"},{"result":149,"points":3,"place":0,"phase":0,"sequence":48,"prices":[180,156,149,160,168,186,172,198,176,195],"times":[1087,1245,1103],"next_num":3,"trial_type":"ticket-choose","trial_index":68,"time_elapsed":2416147,"internal_node_id":"0.0-68.0"},{"result":154,"points":3,"place":0,"phase":0,"sequence":49,"prices":[176,187,179,209,163,180,188,165,154,208],"times":[1220,471,447,647,702,518,503,886,966],"next_num":9,"trial_type":"ticket-choose","trial_index":69,"time_elapsed":2426155,"internal_node_id":"0.0-69.0"},{"responses":[{"value":3,"offby":2,"category":"$115 - $130","category_index":0},{"value":6,"offby":1,"category":"$131 - $145","category_index":1},{"value":11,"offby":-1,"category":"$146 - $160","category_index":2},{"value":22,"offby":0,"category":"$161 - $175","category_index":3},{"value":31,"offby":-3,"category":"$176 - $190","category_index":4},{"value":15,"offby":0,"category":"$191 - $205","category_index":5},{"value":12,"offby":1,"category":"$206 - $220","category_index":6}],"phase":1,"number":1,"trial_type":"bar-choose","trial_index":70,"time_elapsed":2458166,"internal_node_id":"0.0-70.0"},{"rt":61555,"url":"\/christiane\/tickets\/utils\/testing2.html","trial_type":"point_update","trial_index":71,"time_elapsed":2520909,"internal_node_id":"0.0-71.0"},{"phase":1,"order":[6,20,3,39,36,2,29,47,37,25,31,10,1,44,49,19,30,9,12,27,17,7,5,26,48,41,33,40,45,28,32,18,0,42,24,4,13,46,35,43,14,23,38,8,21,22,11,15,34,16],"trial_type":"store_order","trial_index":72,"time_elapsed":2521911,"internal_node_id":"0.0-72.0"},{"result":184,"points":1,"place":4,"phase":1,"sequence":0,"prices":[193,165,175,181,185,224,180,199,218,184],"times":[1269,446,486,478,526,566,510,511,742,886],"next_num":10,"trial_type":"ticket-choose","trial_index":73,"time_elapsed":2532073,"internal_node_id":"0.0-73.0"},{"result":153,"points":3,"place":0,"phase":1,"sequence":1,"prices":[175,186,178,212,179,187,167,169,209,153],"times":[1108,470,478,550,463,487,575,660,769,606],"next_num":10,"trial_type":"ticket-choose","trial_index":74,"time_elapsed":2542035,"internal_node_id":"0.0-74.0"},{"result":165,"points":1,"place":2,"phase":1,"sequence":2,"prices":[175,187,176,209,180,188,163,165,154,208],"times":[1142,375,405,510,498,595,813,1024],"next_num":8,"trial_type":"ticket-choose","trial_index":75,"time_elapsed":2550763,"internal_node_id":"0.0-75.0"},{"result":165,"points":3,"place":0,"phase":1,"sequence":3,"prices":[189,167,180,197,165,168,172,213,178,171],"times":[830,356,431,500,954],"next_num":5,"trial_type":"ticket-choose","trial_index":76,"time_elapsed":2556651,"internal_node_id":"0.0-76.0"},{"result":166,"points":2,"place":1,"phase":1,"sequence":4,"prices":[168,199,196,198,185,195,227,163,177,166],"times":[801,694,467,422,462,510,554,504,668,566],"next_num":10,"trial_type":"ticket-choose","trial_index":77,"time_elapsed":2566035,"internal_node_id":"0.0-77.0"},{"result":152,"points":3,"place":0,"phase":1,"sequence":5,"prices":[200,181,203,152,175,171,160,154,176,191],"times":[1797,1213,518,952],"next_num":4,"trial_type":"ticket-choose","trial_index":78,"time_elapsed":2577658,"internal_node_id":"0.0-78.0"},{"result":163,"points":2,"place":1,"phase":1,"sequence":6,"prices":[174,186,176,217,181,187,163,166,153,209],"times":[1450,366,478,566,486,509,1766],"next_num":7,"trial_type":"ticket-choose","trial_index":79,"time_elapsed":2586451,"internal_node_id":"0.0-79.0"},{"result":156,"points":3,"place":0,"phase":1,"sequence":7,"prices":[174,186,167,211,181,188,178,168,208,156],"times":[1159,471,406,406,478,490,569,1102,854,406],"next_num":10,"trial_type":"ticket-choose","trial_index":80,"time_elapsed":2596627,"internal_node_id":"0.0-80.0"},{"result":158,"points":2,"place":1,"phase":1,"sequence":8,"prices":[176,187,177,225,181,187,158,165,208,153],"times":[1131,542,505,474,526,525,839],"next_num":7,"trial_type":"ticket-choose","trial_index":81,"time_elapsed":2604155,"internal_node_id":"0.0-81.0"},{"result":185,"points":1,"place":4,"phase":1,"sequence":9,"prices":[196,165,170,184,187,211,171,201,202,185],"times":[1389,463,430,422,439,462,469,502,662,582],"next_num":10,"trial_type":"ticket-choose","trial_index":82,"time_elapsed":2613756,"internal_node_id":"0.0-82.0"},{"result":158,"points":2,"place":1,"phase":1,"sequence":10,"prices":[175,186,158,211,180,187,177,166,209,153],"times":[985,366,1630],"next_num":3,"trial_type":"ticket-choose","trial_index":83,"time_elapsed":2619020,"internal_node_id":"0.0-83.0"},{"result":163,"points":2,"place":1,"phase":1,"sequence":11,"prices":[174,186,163,212,181,187,176,166,153,209],"times":[1210,559,1087],"next_num":3,"trial_type":"ticket-choose","trial_index":84,"time_elapsed":2624264,"internal_node_id":"0.0-84.0"},{"result":153,"points":3,"place":0,"phase":1,"sequence":12,"prices":[174,186,177,217,181,187,165,166,153,209],"times":[823,415,454,478,487,471,509,443,966],"next_num":9,"trial_type":"ticket-choose","trial_index":85,"time_elapsed":2632836,"internal_node_id":"0.0-85.0"},{"result":163,"points":2,"place":1,"phase":1,"sequence":13,"prices":[175,186,176,210,179,187,163,166,153,208],"times":[936,439,318,431,455,510,1023],"next_num":7,"trial_type":"ticket-choose","trial_index":86,"time_elapsed":2640211,"internal_node_id":"0.0-86.0"},{"result":179,"points":1,"place":4,"phase":1,"sequence":14,"prices":[181,215,169,147,182,193,177,184,176,179],"times":[24955,534,486,406,694,510,967,566,535,655],"next_num":10,"trial_type":"ticket-choose","trial_index":87,"time_elapsed":2674203,"internal_node_id":"0.0-87.0"},{"result":163,"points":2,"place":1,"phase":1,"sequence":15,"prices":[175,186,163,214,179,187,176,166,153,208],"times":[991,496,1015],"next_num":3,"trial_type":"ticket-choose","trial_index":88,"time_elapsed":2679003,"internal_node_id":"0.0-88.0"},{"result":197,"points":0,"place":8,"phase":1,"sequence":16,"prices":[192,165,171,178,188,217,172,195,197,186],"times":[949,527,551,430,502,542,519,726,838],"next_num":9,"trial_type":"ticket-choose","trial_index":89,"time_elapsed":2688204,"internal_node_id":"0.0-89.0"},{"result":158,"points":2,"place":1,"phase":1,"sequence":17,"prices":[175,186,177,209,181,188,158,167,208,154],"times":[1232,561,461,553,550,552,935],"next_num":7,"trial_type":"ticket-choose","trial_index":90,"time_elapsed":2696259,"internal_node_id":"0.0-90.0"},{"result":155,"points":2,"place":1,"phase":1,"sequence":18,"prices":[181,155,148,161,168,187,172,199,176,194],"times":[1200,1198],"next_num":2,"trial_type":"ticket-choose","trial_index":91,"time_elapsed":2701035,"internal_node_id":"0.0-91.0"},{"result":170,"points":1,"place":3,"phase":1,"sequence":19,"prices":[183,182,192,168,173,205,167,187,165,170],"times":[768,491,665,422,470,504,487,519,487,1123],"next_num":10,"trial_type":"ticket-choose","trial_index":92,"time_elapsed":2711932,"internal_node_id":"0.0-92.0"},{"result":165,"points":2,"place":1,"phase":1,"sequence":20,"prices":[175,187,165,209,180,188,177,166,154,208],"times":[15774,472,1015],"next_num":3,"trial_type":"ticket-choose","trial_index":93,"time_elapsed":2731556,"internal_node_id":"0.0-93.0"},{"result":166,"points":1,"place":2,"phase":1,"sequence":21,"prices":[175,186,165,214,179,187,177,166,153,208],"times":[9720,639,677,551,565,581,2975,1072],"next_num":8,"trial_type":"ticket-choose","trial_index":94,"time_elapsed":2751963,"internal_node_id":"0.0-94.0"},{"result":165,"points":3,"place":0,"phase":1,"sequence":22,"prices":[193,169,171,187,190,224,174,194,165,188],"times":[1829,12754,536,462,478,510,542,566,1230],"next_num":9,"trial_type":"ticket-choose","trial_index":95,"time_elapsed":2774428,"internal_node_id":"0.0-95.0"},{"result":168,"points":1,"place":2,"phase":1,"sequence":23,"prices":[175,185,167,224,181,186,178,168,208,156],"times":[984,421,647,559,480,509,479,1083],"next_num":8,"trial_type":"ticket-choose","trial_index":96,"time_elapsed":2782914,"internal_node_id":"0.0-96.0"},{"result":154,"points":3,"place":0,"phase":1,"sequence":24,"prices":[175,187,177,209,180,188,165,165,154,208],"times":[1064,494,574,654,654,502,614,1047,942],"next_num":9,"trial_type":"ticket-choose","trial_index":97,"time_elapsed":2793099,"internal_node_id":"0.0-97.0"},{"result":150,"points":3,"place":0,"phase":1,"sequence":25,"prices":[189,150,175,160,188,207,158,194,178,199],"times":[1541,1206],"next_num":2,"trial_type":"ticket-choose","trial_index":98,"time_elapsed":2798924,"internal_node_id":"0.0-98.0"},{"result":157,"points":3,"place":0,"phase":1,"sequence":26,"prices":[201,187,157,184,198,179,188,185,178,170],"times":[775,606,926],"next_num":3,"trial_type":"ticket-choose","trial_index":99,"time_elapsed":2803771,"internal_node_id":"0.0-99.0"},{"result":149,"points":2,"place":1,"phase":1,"sequence":27,"prices":[180,159,149,175,185,141,163,174,178,207],"times":[735,447,1758],"next_num":3,"trial_type":"ticket-choose","trial_index":100,"time_elapsed":2809172,"internal_node_id":"0.0-100.0"},{"result":158,"points":3,"place":0,"phase":1,"sequence":28,"prices":[210,184,226,193,215,158,199,175,176,208],"times":[665,509,486,512,586,1055],"next_num":6,"trial_type":"ticket-choose","trial_index":101,"time_elapsed":2815929,"internal_node_id":"0.0-101.0"},{"result":161,"points":3,"place":0,"phase":1,"sequence":29,"prices":[200,165,165,173,182,207,161,202,204,180],"times":[596,404,473,535,566,574,943],"next_num":7,"trial_type":"ticket-choose","trial_index":102,"time_elapsed":2823181,"internal_node_id":"0.0-102.0"},{"result":143,"points":3,"place":0,"phase":1,"sequence":30,"prices":[222,173,202,197,143,205,198,183,178,186],"times":[747,553,544,479,926],"next_num":5,"trial_type":"ticket-choose","trial_index":103,"time_elapsed":2829298,"internal_node_id":"0.0-103.0"},{"result":154,"points":3,"place":0,"phase":1,"sequence":31,"prices":[188,200,165,172,198,174,177,154,177,180],"times":[793,519,511,518,495,527,823,838],"next_num":8,"trial_type":"ticket-choose","trial_index":104,"time_elapsed":2837742,"internal_node_id":"0.0-104.0"},{"result":156,"points":3,"place":0,"phase":1,"sequence":32,"prices":[174,186,178,217,181,188,167,168,208,156],"times":[931,494,470,534,510,567,774,805,854,510],"next_num":10,"trial_type":"ticket-choose","trial_index":105,"time_elapsed":2847987,"internal_node_id":"0.0-105.0"},{"result":158,"points":2,"place":1,"phase":1,"sequence":33,"prices":[175,186,158,209,181,188,177,167,208,154],"times":[801,455,817],"next_num":3,"trial_type":"ticket-choose","trial_index":106,"time_elapsed":2852260,"internal_node_id":"0.0-106.0"},{"result":165,"points":3,"place":0,"phase":1,"sequence":34,"prices":[191,172,169,175,182,203,170,195,165,176],"times":[647,494,510,470,526,599,566,582,1214],"next_num":9,"trial_type":"ticket-choose","trial_index":107,"time_elapsed":2861460,"internal_node_id":"0.0-107.0"},{"result":153,"points":3,"place":0,"phase":1,"sequence":35,"prices":[174,186,165,212,181,187,177,167,153,209],"times":[1059,534,558,527,541,518,583,663,974],"next_num":9,"trial_type":"ticket-choose","trial_index":108,"time_elapsed":2871047,"internal_node_id":"0.0-108.0"},{"result":164,"points":3,"place":0,"phase":1,"sequence":36,"prices":[212,192,188,184,167,193,189,164,176,170],"times":[1048,1861,550,518,726,574,590,1110],"next_num":8,"trial_type":"ticket-choose","trial_index":109,"time_elapsed":2881523,"internal_node_id":"0.0-109.0"},{"result":152,"points":3,"place":0,"phase":1,"sequence":37,"prices":[198,193,169,163,202,182,152,164,177,171],"times":[1108,479,439,735,551,534,966],"next_num":7,"trial_type":"ticket-choose","trial_index":110,"time_elapsed":2889635,"internal_node_id":"0.0-110.0"},{"result":154,"points":2,"place":1,"phase":1,"sequence":38,"prices":[168,154,172,185,195,144,184,211,177,227],"times":[1087,914],"next_num":2,"trial_type":"ticket-choose","trial_index":111,"time_elapsed":2893731,"internal_node_id":"0.0-111.0"},{"result":153,"points":3,"place":0,"phase":1,"sequence":39,"prices":[175,186,177,210,179,187,165,166,153,208],"times":[637,470,462,526,479,485,663,518,856],"next_num":9,"trial_type":"ticket-choose","trial_index":112,"time_elapsed":2902427,"internal_node_id":"0.0-112.0"},{"result":179,"points":1,"place":4,"phase":1,"sequence":40,"prices":[201,165,162,166,185,214,165,202,204,179],"times":[813,675,564,494,542,718,558,630,510,662],"next_num":10,"trial_type":"ticket-choose","trial_index":113,"time_elapsed":2912476,"internal_node_id":"0.0-113.0"},{"result":154,"points":3,"place":0,"phase":1,"sequence":41,"prices":[175,187,163,209,180,188,176,165,154,208],"times":[909,534,516,544,519,487,539,807,895],"next_num":9,"trial_type":"ticket-choose","trial_index":114,"time_elapsed":2923435,"internal_node_id":"0.0-114.0"},{"result":153,"points":3,"place":0,"phase":1,"sequence":42,"prices":[175,186,167,225,179,187,178,169,209,153],"times":[856,494,566,530,506,478,494,726,829,400],"next_num":10,"trial_type":"ticket-choose","trial_index":115,"time_elapsed":2933091,"internal_node_id":"0.0-115.0"},{"result":156,"points":3,"place":0,"phase":1,"sequence":43,"prices":[175,185,178,215,181,186,167,168,208,156],"times":[1007,458,422,750,487,461,486,536,530,780],"next_num":10,"trial_type":"ticket-choose","trial_index":116,"time_elapsed":2942956,"internal_node_id":"0.0-116.0"},{"result":158,"points":2,"place":1,"phase":1,"sequence":44,"prices":[175,186,177,221,180,187,158,166,209,153],"times":[1836,359,462,470,470,525,934],"next_num":7,"trial_type":"ticket-choose","trial_index":117,"time_elapsed":2951179,"internal_node_id":"0.0-117.0"},{"result":165,"points":3,"place":0,"phase":1,"sequence":45,"prices":[171,203,175,170,167,220,192,186,165,165],"times":[1011,500,464,526,447,495,534,470,1006],"next_num":9,"trial_type":"ticket-choose","trial_index":118,"time_elapsed":2960227,"internal_node_id":"0.0-118.0"},{"result":165,"points":3,"place":0,"phase":1,"sequence":46,"prices":[185,170,182,201,173,199,171,188,165,168],"times":[830,526,422,540,502,463,510,654,1238],"next_num":9,"trial_type":"ticket-choose","trial_index":119,"time_elapsed":2969476,"internal_node_id":"0.0-119.0"},{"result":153,"points":3,"place":0,"phase":1,"sequence":47,"prices":[176,187,158,210,181,187,177,165,208,153],"times":[1105,695,382,511,534,590,694,606,806,625],"next_num":10,"trial_type":"ticket-choose","trial_index":120,"time_elapsed":2979700,"internal_node_id":"0.0-120.0"},{"result":148,"points":3,"place":0,"phase":1,"sequence":48,"prices":[183,163,185,180,166,148,160,186,176,184],"times":[1127,438,462,486,694,942],"next_num":6,"trial_type":"ticket-choose","trial_index":121,"time_elapsed":2987027,"internal_node_id":"0.0-121.0"},{"result":155,"points":2,"place":1,"phase":1,"sequence":49,"prices":[201,207,155,158,156,165,167,135,178,177],"times":[820,399,926],"next_num":3,"trial_type":"ticket-choose","trial_index":122,"time_elapsed":2991779,"internal_node_id":"0.0-122.0"},{"responses":[{"value":2,"offby":1,"category":"$115 - $130","category_index":0},{"value":6,"offby":1,"category":"$131 - $145","category_index":1},{"value":14,"offby":2,"category":"$146 - $160","category_index":2},{"value":28,"offby":6,"category":"$161 - $175","category_index":3},{"value":33,"offby":-1,"category":"$176 - $190","category_index":4},{"value":11,"offby":-4,"category":"$191 - $205","category_index":5},{"value":6,"offby":-5,"category":"$206 - $220","category_index":6}],"phase":1,"number":1,"trial_type":"bar-choose","trial_index":123,"time_elapsed":3030327,"internal_node_id":"0.0-123.0"},{"special_comment":"no","trial_type":"special_sequence","trial_index":124,"time_elapsed":3036348,"internal_node_id":"0.0-124.0"},{"during":"Talking with a friend","bonus":304,"trial_type":"final","trial_index":125,"time_elapsed":3069456,"internal_node_id":"0.0-125.0"}],"bonus":304}