{"start_time":"2017-05-24 12:06:14","end_time":"2017-05-24 12:41:46","points_phase0":104,"points_phase1":101,"phase_order":0,"age":44,"gender":"m","tries":1,"during":"Nothing","worker_id":"A3L0DCUXI7X3A9","assignment_id":"31QTRG6Q2U6TTUADRT3Q5IBKBJ7YP7","data":[{"rt":17473,"url":"\/christiane\/tickets\/utils\/consent.html","trial_type":"html","trial_index":0,"time_elapsed":17562,"internal_node_id":"0.0-0.0"},{"age":44,"gender":"m","trial_type":"age","trial_index":1,"time_elapsed":29210,"internal_node_id":"0.0-1.0"},{"worker_id":"A3L0DCUXI7X3A9","trial_type":"workerid","trial_index":2,"time_elapsed":41450,"internal_node_id":"0.0-2.0"},{"tries":1,"trial_type":"instructions_check","trial_index":3,"time_elapsed":87921,"internal_node_id":"0.0-3.0"},{"rt":66102,"url":"\/christiane\/tickets\/utils\/start.html","trial_type":"html","trial_index":4,"time_elapsed":155129,"internal_node_id":"0.0-4.0"},{"trial_type":"number-animation","trial_index":5,"time_elapsed":173457,"internal_node_id":"0.0-5.0"},{"phase":0,"sequence":0,"avg":181,"response":178,"trial_type":"training_avg","trial_index":6,"time_elapsed":191065,"internal_node_id":"0.0-6.0"},{"trial_type":"number-animation","trial_index":7,"time_elapsed":203817,"internal_node_id":"0.0-7.0"},{"phase":0,"sequence":1,"avg":188,"response":190,"trial_type":"training_avg","trial_index":8,"time_elapsed":211881,"internal_node_id":"0.0-8.0"},{"trial_type":"number-animation","trial_index":9,"time_elapsed":222721,"internal_node_id":"0.0-9.0"},{"phase":0,"sequence":2,"avg":188,"response":175,"trial_type":"training_avg","trial_index":10,"time_elapsed":229001,"internal_node_id":"0.0-10.0"},{"trial_type":"number-animation","trial_index":11,"time_elapsed":240881,"internal_node_id":"0.0-11.0"},{"phase":0,"sequence":3,"avg":177,"response":180,"trial_type":"training_avg","trial_index":12,"time_elapsed":249689,"internal_node_id":"0.0-12.0"},{"trial_type":"number-animation","trial_index":13,"time_elapsed":262961,"internal_node_id":"0.0-13.0"},{"phase":0,"sequence":4,"avg":182,"response":170,"trial_type":"training_avg","trial_index":14,"time_elapsed":268673,"internal_node_id":"0.0-14.0"},{"responses":[{"value":0,"offby":-1,"category":"$115 - $130","category_index":0},{"value":1,"offby":-4,"category":"$131 - $145","category_index":1},{"value":5,"offby":-7,"category":"$146 - $160","category_index":2},{"value":15,"offby":-7,"category":"$161 - $175","category_index":3},{"value":60,"offby":26,"category":"$176 - $190","category_index":4},{"value":15,"offby":0,"category":"$191 - $205","category_index":5},{"value":4,"offby":-7,"category":"$206 - $220","category_index":6}],"phase":0,"number":0,"trial_type":"bar-choose","trial_index":15,"time_elapsed":345338,"internal_node_id":"0.0-15.0"},{"rt":285374,"url":"\/christiane\/tickets\/utils\/testing.html","trial_type":"html","trial_index":16,"time_elapsed":631817,"internal_node_id":"0.0-16.0"},{"phase":0,"order":[4,14,33,23,41,20,17,27,18,49,6,25,12,44,1,7,47,13,9,0,26,36,34,39,28,35,46,10,30,3,29,11,37,40,38,21,2,48,8,32,42,45,5,22,24,16,43,31,15,19],"trial_type":"store_order","trial_index":17,"time_elapsed":632819,"internal_node_id":"0.0-17.0"},{"result":165,"points":2,"place":1,"phase":0,"sequence":-1,"prices":[184,180,224,165,181,199,185,193,218,146],"times":[2018,1143,942,3167],"next_num":4,"trial_type":"ticket-choose","trial_index":18,"time_elapsed":643593,"internal_node_id":"0.0-18.0"},{"rt":19013,"url":"\/christiane\/tickets\/utils\/testing_after.html","trial_type":"html","trial_index":19,"time_elapsed":663714,"internal_node_id":"0.0-19.0"},{"result":167,"points":2,"place":1,"phase":0,"sequence":0,"prices":[175,185,178,215,181,186,167,168,208,156],"times":[1907,862,1336,783,703,679,3959],"next_num":7,"trial_type":"ticket-choose","trial_index":20,"time_elapsed":678129,"internal_node_id":"0.0-20.0"},{"result":163,"points":2,"place":1,"phase":0,"sequence":1,"prices":[174,186,163,212,181,187,176,166,153,209],"times":[1453,678,1519],"next_num":3,"trial_type":"ticket-choose","trial_index":21,"time_elapsed":684801,"internal_node_id":"0.0-21.0"},{"result":168,"points":1,"place":2,"phase":0,"sequence":2,"prices":[183,182,192,168,173,205,167,187,165,170],"times":[1123,743,767,1407],"next_num":4,"trial_type":"ticket-choose","trial_index":22,"time_elapsed":692145,"internal_node_id":"0.0-22.0"},{"result":158,"points":2,"place":1,"phase":0,"sequence":3,"prices":[176,187,177,225,181,187,158,165,208,153],"times":[2907,638,742,631,775,671,1254],"next_num":7,"trial_type":"ticket-choose","trial_index":23,"time_elapsed":703561,"internal_node_id":"0.0-23.0"},{"result":155,"points":2,"place":1,"phase":0,"sequence":4,"prices":[201,207,155,158,156,165,167,135,178,177],"times":[1347,654,1279],"next_num":3,"trial_type":"ticket-choose","trial_index":24,"time_elapsed":710081,"internal_node_id":"0.0-24.0"},{"result":158,"points":2,"place":1,"phase":0,"sequence":5,"prices":[176,187,158,210,181,187,177,165,208,153],"times":[1506,647,1486],"next_num":3,"trial_type":"ticket-choose","trial_index":25,"time_elapsed":716465,"internal_node_id":"0.0-25.0"},{"result":163,"points":2,"place":1,"phase":0,"sequence":6,"prices":[174,186,176,217,181,187,163,166,153,209],"times":[1562,630,591,822,726,639,1087],"next_num":7,"trial_type":"ticket-choose","trial_index":26,"time_elapsed":726145,"internal_node_id":"0.0-26.0"},{"result":165,"points":3,"place":0,"phase":0,"sequence":7,"prices":[192,165,171,178,188,217,172,195,197,186],"times":[1723,2511],"next_num":2,"trial_type":"ticket-choose","trial_index":27,"time_elapsed":734505,"internal_node_id":"0.0-27.0"},{"result":158,"points":2,"place":1,"phase":0,"sequence":8,"prices":[175,186,158,211,180,187,177,166,209,153],"times":[1359,623,1424],"next_num":3,"trial_type":"ticket-choose","trial_index":28,"time_elapsed":740689,"internal_node_id":"0.0-28.0"},{"result":163,"points":1,"place":2,"phase":0,"sequence":9,"prices":[183,163,185,180,166,148,160,186,176,184],"times":[1057,1063],"next_num":2,"trial_type":"ticket-choose","trial_index":29,"time_elapsed":745473,"internal_node_id":"0.0-29.0"},{"result":165,"points":2,"place":1,"phase":0,"sequence":10,"prices":[175,186,165,214,179,187,177,166,153,208],"times":[913,695,1334],"next_num":3,"trial_type":"ticket-choose","trial_index":30,"time_elapsed":751233,"internal_node_id":"0.0-30.0"},{"result":165,"points":2,"place":1,"phase":0,"sequence":11,"prices":[201,165,162,166,185,214,165,202,204,179],"times":[875,1183],"next_num":2,"trial_type":"ticket-choose","trial_index":31,"time_elapsed":755801,"internal_node_id":"0.0-31.0"},{"result":163,"points":2,"place":1,"phase":0,"sequence":12,"prices":[175,186,163,214,179,187,176,166,153,208],"times":[1075,607,1126],"next_num":3,"trial_type":"ticket-choose","trial_index":32,"time_elapsed":761242,"internal_node_id":"0.0-32.0"},{"result":159,"points":1,"place":2,"phase":0,"sequence":13,"prices":[180,159,149,175,185,141,163,174,178,207],"times":[1091,1055],"next_num":2,"trial_type":"ticket-choose","trial_index":33,"time_elapsed":766153,"internal_node_id":"0.0-33.0"},{"result":167,"points":2,"place":1,"phase":0,"sequence":14,"prices":[175,185,167,224,181,186,178,168,208,156],"times":[1240,847,2086],"next_num":3,"trial_type":"ticket-choose","trial_index":34,"time_elapsed":773193,"internal_node_id":"0.0-34.0"},{"result":165,"points":2,"place":1,"phase":0,"sequence":15,"prices":[175,187,165,209,180,188,177,166,154,208],"times":[1154,695,1318],"next_num":3,"trial_type":"ticket-choose","trial_index":35,"time_elapsed":779178,"internal_node_id":"0.0-35.0"},{"result":152,"points":3,"place":0,"phase":0,"sequence":16,"prices":[200,181,203,152,175,171,160,154,176,191],"times":[1104,735,646,1102],"next_num":4,"trial_type":"ticket-choose","trial_index":36,"time_elapsed":787041,"internal_node_id":"0.0-36.0"},{"result":163,"points":2,"place":1,"phase":0,"sequence":17,"prices":[175,187,163,209,180,188,176,165,154,208],"times":[2072,639,1206],"next_num":3,"trial_type":"ticket-choose","trial_index":37,"time_elapsed":793697,"internal_node_id":"0.0-37.0"},{"result":165,"points":2,"place":1,"phase":0,"sequence":18,"prices":[175,186,177,210,179,187,165,166,153,208],"times":[1003,695,783,1142,663,830,1287],"next_num":7,"trial_type":"ticket-choose","trial_index":38,"time_elapsed":803665,"internal_node_id":"0.0-38.0"},{"result":156,"points":3,"place":0,"phase":0,"sequence":19,"prices":[174,186,167,211,181,188,178,168,208,156],"times":[2139,598,5517,647,639,671,1022,2855,903,1046],"next_num":10,"trial_type":"ticket-choose","trial_index":39,"time_elapsed":827873,"internal_node_id":"0.0-39.0"},{"result":165,"points":2,"place":1,"phase":0,"sequence":20,"prices":[200,165,165,173,182,207,161,202,204,180],"times":[1459,1215],"next_num":2,"trial_type":"ticket-choose","trial_index":40,"time_elapsed":833049,"internal_node_id":"0.0-40.0"},{"result":165,"points":2,"place":1,"phase":0,"sequence":21,"prices":[188,200,165,172,198,174,177,154,177,180],"times":[1051,686,1126],"next_num":3,"trial_type":"ticket-choose","trial_index":41,"time_elapsed":838609,"internal_node_id":"0.0-41.0"},{"result":155,"points":2,"place":1,"phase":0,"sequence":22,"prices":[181,155,148,161,168,187,172,199,176,194],"times":[1026,998],"next_num":2,"trial_type":"ticket-choose","trial_index":42,"time_elapsed":843137,"internal_node_id":"0.0-42.0"},{"result":167,"points":2,"place":1,"phase":0,"sequence":23,"prices":[189,167,180,197,165,168,172,213,178,171],"times":[1012,1463],"next_num":2,"trial_type":"ticket-choose","trial_index":43,"time_elapsed":848049,"internal_node_id":"0.0-43.0"},{"result":165,"points":3,"place":0,"phase":0,"sequence":24,"prices":[196,165,170,184,187,211,171,201,202,185],"times":[1137,1071],"next_num":2,"trial_type":"ticket-choose","trial_index":44,"time_elapsed":853529,"internal_node_id":"0.0-44.0"},{"result":168,"points":1,"place":2,"phase":0,"sequence":25,"prices":[168,154,172,185,195,144,184,211,177,227],"times":[2945],"next_num":1,"trial_type":"ticket-choose","trial_index":45,"time_elapsed":859073,"internal_node_id":"0.0-45.0"},{"result":158,"points":3,"place":0,"phase":0,"sequence":26,"prices":[210,184,226,193,215,158,199,175,176,208],"times":[1128,663,855,671,719,1094],"next_num":6,"trial_type":"ticket-choose","trial_index":46,"time_elapsed":867673,"internal_node_id":"0.0-46.0"},{"result":165,"points":2,"place":1,"phase":0,"sequence":27,"prices":[175,187,177,209,180,188,165,165,154,208],"times":[2530,1542,631,663,646,655,1095],"next_num":7,"trial_type":"ticket-choose","trial_index":47,"time_elapsed":879113,"internal_node_id":"0.0-47.0"},{"result":169,"points":2,"place":1,"phase":0,"sequence":28,"prices":[191,172,169,175,182,203,170,195,165,176],"times":[969,1198,1791],"next_num":3,"trial_type":"ticket-choose","trial_index":48,"time_elapsed":885833,"internal_node_id":"0.0-48.0"},{"result":167,"points":2,"place":1,"phase":0,"sequence":29,"prices":[174,186,178,217,181,188,167,168,208,156],"times":[1019,638,999,654,710,1031,1367],"next_num":7,"trial_type":"ticket-choose","trial_index":49,"time_elapsed":895705,"internal_node_id":"0.0-49.0"},{"result":165,"points":3,"place":0,"phase":0,"sequence":30,"prices":[185,170,182,201,173,199,171,188,165,168],"times":[1016,839,1046,646,695,703,1182,703,1110],"next_num":9,"trial_type":"ticket-choose","trial_index":50,"time_elapsed":907721,"internal_node_id":"0.0-50.0"},{"result":165,"points":2,"place":1,"phase":0,"sequence":31,"prices":[174,186,177,217,181,187,165,166,153,209],"times":[2257,935,718,710,854,623,1118],"next_num":7,"trial_type":"ticket-choose","trial_index":51,"time_elapsed":918441,"internal_node_id":"0.0-51.0"},{"result":169,"points":1,"place":3,"phase":0,"sequence":32,"prices":[198,193,169,163,202,182,152,164,177,171],"times":[3500,639,1216],"next_num":3,"trial_type":"ticket-choose","trial_index":52,"time_elapsed":930641,"internal_node_id":"0.0-52.0"},{"result":150,"points":3,"place":0,"phase":0,"sequence":33,"prices":[189,150,175,160,188,207,158,194,178,199],"times":[1347,1159],"next_num":2,"trial_type":"ticket-choose","trial_index":53,"time_elapsed":935841,"internal_node_id":"0.0-53.0"},{"result":168,"points":1,"place":2,"phase":0,"sequence":34,"prices":[168,199,196,198,185,195,227,163,177,166],"times":[2595],"next_num":1,"trial_type":"ticket-choose","trial_index":54,"time_elapsed":940706,"internal_node_id":"0.0-54.0"},{"result":158,"points":2,"place":1,"phase":0,"sequence":35,"prices":[175,186,177,221,180,187,158,166,209,153],"times":[986,646,823,647,742,622,1142],"next_num":7,"trial_type":"ticket-choose","trial_index":55,"time_elapsed":949826,"internal_node_id":"0.0-55.0"},{"result":153,"points":3,"place":0,"phase":0,"sequence":36,"prices":[175,186,167,225,179,187,178,169,209,153],"times":[914,807,623,671,670,750,767,1639,966,1061],"next_num":10,"trial_type":"ticket-choose","trial_index":56,"time_elapsed":964617,"internal_node_id":"0.0-56.0"},{"result":169,"points":2,"place":1,"phase":0,"sequence":37,"prices":[181,215,169,147,182,193,177,184,176,179],"times":[1754,758,1527],"next_num":3,"trial_type":"ticket-choose","trial_index":57,"time_elapsed":971377,"internal_node_id":"0.0-57.0"},{"result":165,"points":2,"place":1,"phase":0,"sequence":38,"prices":[174,186,165,212,181,187,177,167,153,209],"times":[1277,639,1158],"next_num":3,"trial_type":"ticket-choose","trial_index":58,"time_elapsed":977281,"internal_node_id":"0.0-58.0"},{"result":169,"points":2,"place":1,"phase":0,"sequence":39,"prices":[193,169,171,187,190,224,174,194,165,188],"times":[1188,1222],"next_num":2,"trial_type":"ticket-choose","trial_index":59,"time_elapsed":982058,"internal_node_id":"0.0-59.0"},{"result":143,"points":3,"place":0,"phase":0,"sequence":40,"prices":[222,173,202,197,143,205,198,183,178,186],"times":[818,766,638,878,1239],"next_num":5,"trial_type":"ticket-choose","trial_index":60,"time_elapsed":989537,"internal_node_id":"0.0-60.0"},{"result":167,"points":2,"place":1,"phase":0,"sequence":41,"prices":[212,192,188,184,167,193,189,164,176,170],"times":[1235,727,678,623,1175],"next_num":5,"trial_type":"ticket-choose","trial_index":61,"time_elapsed":997041,"internal_node_id":"0.0-61.0"},{"result":167,"points":2,"place":1,"phase":0,"sequence":42,"prices":[175,186,178,212,179,187,167,169,209,153],"times":[1154,623,791,655,749,751,1144],"next_num":7,"trial_type":"ticket-choose","trial_index":62,"time_elapsed":1006393,"internal_node_id":"0.0-62.0"},{"result":158,"points":2,"place":1,"phase":0,"sequence":43,"prices":[175,186,177,209,181,188,158,167,208,154],"times":[1379,671,847,638,3583,807,1118],"next_num":7,"trial_type":"ticket-choose","trial_index":63,"time_elapsed":1018921,"internal_node_id":"0.0-63.0"},{"result":165,"points":3,"place":0,"phase":0,"sequence":44,"prices":[193,165,175,181,185,224,180,199,218,184],"times":[1241,1175],"next_num":2,"trial_type":"ticket-choose","trial_index":64,"time_elapsed":1024073,"internal_node_id":"0.0-64.0"},{"result":163,"points":2,"place":1,"phase":0,"sequence":45,"prices":[175,187,176,209,180,188,163,165,154,208],"times":[882,679,711,630,727,870,1127],"next_num":7,"trial_type":"ticket-choose","trial_index":65,"time_elapsed":1033098,"internal_node_id":"0.0-65.0"},{"result":157,"points":3,"place":0,"phase":0,"sequence":46,"prices":[201,187,157,184,198,179,188,185,178,170],"times":[1298,695,1167],"next_num":3,"trial_type":"ticket-choose","trial_index":66,"time_elapsed":1038953,"internal_node_id":"0.0-66.0"},{"result":167,"points":1,"place":2,"phase":0,"sequence":47,"prices":[171,203,175,170,167,220,192,186,165,165],"times":[1425,806,662,718,1095],"next_num":5,"trial_type":"ticket-choose","trial_index":67,"time_elapsed":1046713,"internal_node_id":"0.0-67.0"},{"result":163,"points":2,"place":1,"phase":0,"sequence":48,"prices":[175,186,176,210,179,187,163,166,153,208],"times":[939,678,911,790,799,799,1030],"next_num":7,"trial_type":"ticket-choose","trial_index":68,"time_elapsed":1056113,"internal_node_id":"0.0-68.0"},{"result":158,"points":2,"place":1,"phase":0,"sequence":49,"prices":[175,186,158,209,181,188,177,167,208,154],"times":[1611,734,1078],"next_num":3,"trial_type":"ticket-choose","trial_index":69,"time_elapsed":1062145,"internal_node_id":"0.0-69.0"},{"responses":[{"value":0,"offby":-1,"category":"$115 - $130","category_index":0},{"value":0,"offby":-5,"category":"$131 - $145","category_index":1},{"value":5,"offby":-7,"category":"$146 - $160","category_index":2},{"value":20,"offby":-2,"category":"$161 - $175","category_index":3},{"value":50,"offby":16,"category":"$176 - $190","category_index":4},{"value":20,"offby":5,"category":"$191 - $205","category_index":5},{"value":5,"offby":-6,"category":"$206 - $220","category_index":6}],"phase":1,"number":1,"trial_type":"bar-choose","trial_index":70,"time_elapsed":1106634,"internal_node_id":"0.0-70.0"},{"rt":479904,"url":"\/christiane\/tickets\/utils\/testing2.html","trial_type":"point_update","trial_index":71,"time_elapsed":1587755,"internal_node_id":"0.0-71.0"},{"phase":1,"order":[20,14,32,31,12,29,38,44,7,35,15,17,22,45,37,6,18,11,19,3,9,2,49,34,8,41,43,42,28,0,23,46,25,27,4,24,13,40,36,33,16,21,30,47,39,26,48,1,10,5],"trial_type":"store_order","trial_index":72,"time_elapsed":1588756,"internal_node_id":"0.0-72.0"},{"result":158,"points":2,"place":1,"phase":1,"sequence":0,"prices":[158,176,187,210,177,181,187,165,208,153],"times":[2277],"next_num":1,"trial_type":"ticket-choose","trial_index":73,"time_elapsed":1593721,"internal_node_id":"0.0-73.0"},{"result":163,"points":2,"place":1,"phase":1,"sequence":1,"prices":[163,174,186,212,176,181,187,166,153,209],"times":[1715],"next_num":1,"trial_type":"ticket-choose","trial_index":74,"time_elapsed":1597721,"internal_node_id":"0.0-74.0"},{"result":165,"points":2,"place":1,"phase":1,"sequence":2,"prices":[193,174,224,165,187,190,224,161,194,195],"times":[1493,966,614,1263],"next_num":4,"trial_type":"ticket-choose","trial_index":75,"time_elapsed":1604937,"internal_node_id":"0.0-75.0"},{"result":169,"points":0,"place":5,"phase":1,"sequence":3,"prices":[171,169,186,165,163,167,220,148,187,165],"times":[1439,1382],"next_num":2,"trial_type":"ticket-choose","trial_index":76,"time_elapsed":1610817,"internal_node_id":"0.0-76.0"},{"result":163,"points":2,"place":1,"phase":1,"sequence":4,"prices":[163,175,186,214,176,179,187,166,153,208],"times":[1779],"next_num":1,"trial_type":"ticket-choose","trial_index":77,"time_elapsed":1614817,"internal_node_id":"0.0-77.0"},{"result":165,"points":1,"place":2,"phase":1,"sequence":5,"prices":[185,179,191,165,161,173,199,150,188,168],"times":[1530,991,639,1549],"next_num":4,"trial_type":"ticket-choose","trial_index":78,"time_elapsed":1622402,"internal_node_id":"0.0-78.0"},{"result":163,"points":3,"place":0,"phase":1,"sequence":6,"prices":[163,199,196,199,185,195,227,163,177,166],"times":[1243],"next_num":1,"trial_type":"ticket-choose","trial_index":79,"time_elapsed":1626369,"internal_node_id":"0.0-79.0"},{"result":159,"points":1,"place":2,"phase":1,"sequence":7,"prices":[181,159,149,175,185,151,163,174,178,207],"times":[1371,1152],"next_num":2,"trial_type":"ticket-choose","trial_index":80,"time_elapsed":1632297,"internal_node_id":"0.0-80.0"},{"result":165,"points":2,"place":1,"phase":1,"sequence":8,"prices":[165,175,187,209,177,180,188,167,154,208],"times":[1275],"next_num":1,"trial_type":"ticket-choose","trial_index":81,"time_elapsed":1635897,"internal_node_id":"0.0-81.0"},{"result":167,"points":1,"place":2,"phase":1,"sequence":9,"prices":[167,153,172,185,195,143,184,211,177,227],"times":[1178],"next_num":1,"trial_type":"ticket-choose","trial_index":82,"time_elapsed":1639393,"internal_node_id":"0.0-82.0"},{"result":163,"points":2,"place":1,"phase":1,"sequence":10,"prices":[176,175,186,210,163,179,187,166,153,208],"times":[1091,654,671,663,1086],"next_num":5,"trial_type":"ticket-choose","trial_index":83,"time_elapsed":1646817,"internal_node_id":"0.0-83.0"},{"result":163,"points":2,"place":1,"phase":1,"sequence":11,"prices":[176,186,178,217,163,181,187,166,153,209],"times":[1563,662,639,621,1182],"next_num":5,"trial_type":"ticket-choose","trial_index":84,"time_elapsed":1654585,"internal_node_id":"0.0-84.0"},{"result":158,"points":2,"place":1,"phase":1,"sequence":12,"prices":[177,175,186,209,158,181,188,167,208,154],"times":[1332,695,654,607,1087],"next_num":5,"trial_type":"ticket-choose","trial_index":85,"time_elapsed":1662001,"internal_node_id":"0.0-85.0"},{"result":167,"points":2,"place":1,"phase":1,"sequence":13,"prices":[199,191,188,174,167,193,189,164,176,170],"times":[1170,660,606,799,1119],"next_num":5,"trial_type":"ticket-choose","trial_index":86,"time_elapsed":1669353,"internal_node_id":"0.0-86.0"},{"result":165,"points":1,"place":2,"phase":1,"sequence":14,"prices":[199,193,169,165,202,182,151,164,176,171],"times":[930,711,3094,1240],"next_num":4,"trial_type":"ticket-choose","trial_index":87,"time_elapsed":1679434,"internal_node_id":"0.0-87.0"},{"result":165,"points":2,"place":1,"phase":1,"sequence":15,"prices":[165,175,186,214,177,179,187,166,153,208],"times":[28603],"next_num":1,"trial_type":"ticket-choose","trial_index":88,"time_elapsed":1710481,"internal_node_id":"0.0-88.0"},{"result":158,"points":2,"place":1,"phase":1,"sequence":16,"prices":[158,175,186,211,177,180,187,166,209,153],"times":[1416],"next_num":1,"trial_type":"ticket-choose","trial_index":89,"time_elapsed":1714258,"internal_node_id":"0.0-89.0"},{"result":165,"points":2,"place":1,"phase":1,"sequence":17,"prices":[177,174,186,217,165,181,187,166,153,209],"times":[1330,806,694,639,1567],"next_num":5,"trial_type":"ticket-choose","trial_index":90,"time_elapsed":1722361,"internal_node_id":"0.0-90.0"},{"result":158,"points":2,"place":1,"phase":1,"sequence":18,"prices":[158,175,186,209,177,181,188,167,208,154],"times":[1243],"next_num":1,"trial_type":"ticket-choose","trial_index":91,"time_elapsed":1725818,"internal_node_id":"0.0-91.0"},{"result":156,"points":3,"place":0,"phase":1,"sequence":19,"prices":[178,174,186,217,167,181,188,168,208,156],"times":[1210,687,630,687,671,782,767,1744,774,991],"next_num":10,"trial_type":"ticket-choose","trial_index":92,"time_elapsed":1739890,"internal_node_id":"0.0-92.0"},{"result":165,"points":2,"place":1,"phase":1,"sequence":20,"prices":[177,175,186,210,165,179,187,166,153,208],"times":[26083,839,863,760,1566],"next_num":5,"trial_type":"ticket-choose","trial_index":93,"time_elapsed":1773161,"internal_node_id":"0.0-93.0"},{"result":167,"points":2,"place":1,"phase":1,"sequence":21,"prices":[167,175,186,225,178,179,187,169,209,153],"times":[1394],"next_num":1,"trial_type":"ticket-choose","trial_index":94,"time_elapsed":1776754,"internal_node_id":"0.0-94.0"},{"result":163,"points":1,"place":2,"phase":1,"sequence":22,"prices":[173,163,185,181,166,148,160,185,176,184],"times":[1050,983],"next_num":2,"trial_type":"ticket-choose","trial_index":95,"time_elapsed":1781729,"internal_node_id":"0.0-95.0"},{"result":156,"points":2,"place":1,"phase":1,"sequence":23,"prices":[180,156,149,160,168,186,172,198,176,195],"times":[1058,999],"next_num":2,"trial_type":"ticket-choose","trial_index":96,"time_elapsed":1786210,"internal_node_id":"0.0-96.0"},{"result":165,"points":2,"place":1,"phase":1,"sequence":24,"prices":[165,174,186,212,177,181,187,166,153,209],"times":[3091],"next_num":1,"trial_type":"ticket-choose","trial_index":97,"time_elapsed":1791545,"internal_node_id":"0.0-97.0"},{"result":155,"points":2,"place":1,"phase":1,"sequence":25,"prices":[200,207,155,158,156,168,167,135,178,177],"times":[1088,664,1062],"next_num":3,"trial_type":"ticket-choose","trial_index":98,"time_elapsed":1797017,"internal_node_id":"0.0-98.0"},{"result":157,"points":3,"place":0,"phase":1,"sequence":26,"prices":[201,187,157,184,198,179,188,185,178,170],"times":[977,734,1055],"next_num":3,"trial_type":"ticket-choose","trial_index":99,"time_elapsed":1803194,"internal_node_id":"0.0-99.0"},{"result":169,"points":3,"place":0,"phase":1,"sequence":27,"prices":[220,173,201,197,169,205,198,183,178,186],"times":[1259,926,687,647,1064],"next_num":5,"trial_type":"ticket-choose","trial_index":100,"time_elapsed":1810986,"internal_node_id":"0.0-100.0"},{"result":165,"points":3,"place":0,"phase":1,"sequence":28,"prices":[196,171,170,184,187,165,211,169,201,202],"times":[1185,927,743,734,734,1438],"next_num":6,"trial_type":"ticket-choose","trial_index":101,"time_elapsed":1820866,"internal_node_id":"0.0-101.0"},{"result":167,"points":2,"place":1,"phase":1,"sequence":29,"prices":[167,174,186,211,178,181,188,168,208,156],"times":[2015],"next_num":1,"trial_type":"ticket-choose","trial_index":102,"time_elapsed":1825129,"internal_node_id":"0.0-102.0"},{"result":158,"points":2,"place":1,"phase":1,"sequence":30,"prices":[177,176,187,225,158,181,187,165,208,153],"times":[58380,751,629,695,1119],"next_num":5,"trial_type":"ticket-choose","trial_index":103,"time_elapsed":1889946,"internal_node_id":"0.0-103.0"},{"result":158,"points":3,"place":0,"phase":1,"sequence":31,"prices":[214,184,226,192,215,158,199,175,176,208],"times":[4786,966,694,727,701,1223],"next_num":6,"trial_type":"ticket-choose","trial_index":104,"time_elapsed":1902457,"internal_node_id":"0.0-104.0"},{"result":166,"points":1,"place":3,"phase":1,"sequence":32,"prices":[201,204,179,166,185,165,214,156,202,165],"times":[1290,1030,847,1494],"next_num":4,"trial_type":"ticket-choose","trial_index":105,"time_elapsed":1910001,"internal_node_id":"0.0-105.0"},{"result":165,"points":3,"place":0,"phase":1,"sequence":33,"prices":[192,172,171,178,188,165,217,168,195,197],"times":[1170,1119,694,727,927,1325],"next_num":6,"trial_type":"ticket-choose","trial_index":106,"time_elapsed":1928177,"internal_node_id":"0.0-106.0"},{"result":167,"points":2,"place":1,"phase":1,"sequence":34,"prices":[178,175,185,215,167,181,186,168,208,156],"times":[1738,869,742,958,1543],"next_num":5,"trial_type":"ticket-choose","trial_index":107,"time_elapsed":1937041,"internal_node_id":"0.0-107.0"},{"result":165,"points":3,"place":0,"phase":1,"sequence":35,"prices":[193,181,175,181,185,165,224,199,218,184],"times":[961,623,670,631,582,1160],"next_num":6,"trial_type":"ticket-choose","trial_index":108,"time_elapsed":1944921,"internal_node_id":"0.0-108.0"},{"result":163,"points":2,"place":1,"phase":1,"sequence":36,"prices":[163,175,187,209,176,180,188,165,154,208],"times":[1258],"next_num":1,"trial_type":"ticket-choose","trial_index":109,"time_elapsed":1948554,"internal_node_id":"0.0-109.0"},{"result":150,"points":3,"place":0,"phase":1,"sequence":37,"prices":[190,150,175,161,188,207,157,194,178,199],"times":[1040,1128],"next_num":2,"trial_type":"ticket-choose","trial_index":110,"time_elapsed":1953170,"internal_node_id":"0.0-110.0"},{"result":165,"points":2,"place":1,"phase":1,"sequence":38,"prices":[187,201,165,172,196,174,178,154,172,180],"times":[867,670,2678],"next_num":3,"trial_type":"ticket-choose","trial_index":111,"time_elapsed":1961466,"internal_node_id":"0.0-111.0"},{"result":165,"points":2,"place":1,"phase":1,"sequence":39,"prices":[183,179,188,165,168,173,205,159,187,191],"times":[1250,574,550,1144],"next_num":4,"trial_type":"ticket-choose","trial_index":112,"time_elapsed":1967826,"internal_node_id":"0.0-112.0"},{"result":163,"points":2,"place":1,"phase":1,"sequence":40,"prices":[176,187,179,209,163,180,188,165,154,208],"times":[1138,1150,656,654,1110],"next_num":5,"trial_type":"ticket-choose","trial_index":113,"time_elapsed":1975537,"internal_node_id":"0.0-113.0"},{"result":158,"points":2,"place":1,"phase":1,"sequence":41,"prices":[177,175,186,221,158,180,187,166,209,153],"times":[859,631,637,647,1120],"next_num":5,"trial_type":"ticket-choose","trial_index":114,"time_elapsed":1982426,"internal_node_id":"0.0-114.0"},{"result":165,"points":2,"place":1,"phase":1,"sequence":42,"prices":[191,170,182,165,175,182,203,157,195,200],"times":[922,726,686,1222],"next_num":4,"trial_type":"ticket-choose","trial_index":115,"time_elapsed":1988721,"internal_node_id":"0.0-115.0"},{"result":152,"points":3,"place":0,"phase":1,"sequence":43,"prices":[200,180,203,152,175,170,160,154,176,191],"times":[867,727,694,1064],"next_num":4,"trial_type":"ticket-choose","trial_index":116,"time_elapsed":1994881,"internal_node_id":"0.0-116.0"},{"result":167,"points":2,"place":1,"phase":1,"sequence":44,"prices":[189,167,180,197,165,168,172,213,178,171],"times":[961,1143],"next_num":2,"trial_type":"ticket-choose","trial_index":117,"time_elapsed":1999434,"internal_node_id":"0.0-117.0"},{"result":169,"points":1,"place":3,"phase":1,"sequence":45,"prices":[200,173,182,169,207,165,152,202,161,204],"times":[850,1062,630,1885],"next_num":4,"trial_type":"ticket-choose","trial_index":118,"time_elapsed":2007010,"internal_node_id":"0.0-118.0"},{"result":147,"points":3,"place":0,"phase":1,"sequence":46,"prices":[181,214,169,147,182,193,178,184,176,179],"times":[642,598,758,1262],"next_num":4,"trial_type":"ticket-choose","trial_index":119,"time_elapsed":2013025,"internal_node_id":"0.0-119.0"},{"result":168,"points":1,"place":2,"phase":1,"sequence":47,"prices":[167,175,185,224,178,181,186,168,208,156],"times":[953,1439,614,614,887,831,639,1311],"next_num":8,"trial_type":"ticket-choose","trial_index":120,"time_elapsed":2023977,"internal_node_id":"0.0-120.0"},{"result":165,"points":2,"place":1,"phase":1,"sequence":48,"prices":[177,175,187,209,165,180,188,165,154,208],"times":[1523,639,608,630,1071],"next_num":5,"trial_type":"ticket-choose","trial_index":121,"time_elapsed":2032202,"internal_node_id":"0.0-121.0"},{"result":167,"points":2,"place":1,"phase":1,"sequence":49,"prices":[178,175,186,212,167,179,187,169,209,153],"times":[1203,872,648,886,1023],"next_num":5,"trial_type":"ticket-choose","trial_index":122,"time_elapsed":2040401,"internal_node_id":"0.0-122.0"},{"responses":[{"value":0,"offby":-1,"category":"$115 - $130","category_index":0},{"value":0,"offby":-5,"category":"$131 - $145","category_index":1},{"value":5,"offby":-7,"category":"$146 - $160","category_index":2},{"value":25,"offby":3,"category":"$161 - $175","category_index":3},{"value":40,"offby":6,"category":"$176 - $190","category_index":4},{"value":25,"offby":10,"category":"$191 - $205","category_index":5},{"value":5,"offby":-6,"category":"$206 - $220","category_index":6}],"phase":1,"number":1,"trial_type":"bar-choose","trial_index":123,"time_elapsed":2073450,"internal_node_id":"0.0-123.0"},{"special_comment":"They seemed to fall into the same basic cost range.","trial_type":"special_sequence","trial_index":124,"time_elapsed":2100938,"internal_node_id":"0.0-124.0"},{"during":"Nothing","bonus":272,"trial_type":"final","trial_index":125,"time_elapsed":2129787,"internal_node_id":"0.0-125.0"}],"bonus":272}