{"start_time":"2017-05-24 13:45:13","end_time":"2017-05-24 14:12:16","points_phase0":104,"points_phase1":98,"phase_order":0,"age":30,"gender":"m","tries":1,"during":"Nothing","worker_id":"A3O7X46E3REM7I","assignment_id":"32KTQ2V7RE887Q5SR1JIPXOYX5C9MY","data":[{"rt":3809,"url":"\/christiane\/tickets\/utils\/consent.html","trial_type":"html","trial_index":0,"time_elapsed":3893,"internal_node_id":"0.0-0.0"},{"age":30,"gender":"m","trial_type":"age","trial_index":1,"time_elapsed":11470,"internal_node_id":"0.0-1.0"},{"worker_id":"A3O7X46E3REM7I","trial_type":"workerid","trial_index":2,"time_elapsed":24013,"internal_node_id":"0.0-2.0"},{"tries":1,"trial_type":"instructions_check","trial_index":3,"time_elapsed":159159,"internal_node_id":"0.0-3.0"},{"rt":21912,"url":"\/christiane\/tickets\/utils\/start.html","trial_type":"html","trial_index":4,"time_elapsed":182182,"internal_node_id":"0.0-4.0"},{"trial_type":"number-animation","trial_index":5,"time_elapsed":265795,"internal_node_id":"0.0-5.0"},{"phase":0,"sequence":0,"avg":181,"response":175,"trial_type":"training_avg","trial_index":6,"time_elapsed":284150,"internal_node_id":"0.0-6.0"},{"trial_type":"number-animation","trial_index":7,"time_elapsed":300901,"internal_node_id":"0.0-7.0"},{"phase":0,"sequence":1,"avg":188,"response":185,"trial_type":"training_avg","trial_index":8,"time_elapsed":312130,"internal_node_id":"0.0-8.0"},{"trial_type":"number-animation","trial_index":9,"time_elapsed":327134,"internal_node_id":"0.0-9.0"},{"phase":0,"sequence":2,"avg":188,"response":188,"trial_type":"training_avg","trial_index":10,"time_elapsed":338250,"internal_node_id":"0.0-10.0"},{"trial_type":"number-animation","trial_index":11,"time_elapsed":349860,"internal_node_id":"0.0-11.0"},{"phase":0,"sequence":3,"avg":177,"response":188,"trial_type":"training_avg","trial_index":12,"time_elapsed":359354,"internal_node_id":"0.0-12.0"},{"trial_type":"number-animation","trial_index":13,"time_elapsed":373914,"internal_node_id":"0.0-13.0"},{"phase":0,"sequence":4,"avg":182,"response":177,"trial_type":"training_avg","trial_index":14,"time_elapsed":383736,"internal_node_id":"0.0-14.0"},{"responses":[{"value":0,"offby":-1,"category":"$115 - $130","category_index":0},{"value":0,"offby":-5,"category":"$131 - $145","category_index":1},{"value":10,"offby":-2,"category":"$146 - $160","category_index":2},{"value":80,"offby":58,"category":"$161 - $175","category_index":3},{"value":10,"offby":-24,"category":"$176 - $190","category_index":4},{"value":0,"offby":-15,"category":"$191 - $205","category_index":5},{"value":0,"offby":-11,"category":"$206 - $220","category_index":6}],"phase":0,"number":0,"trial_type":"bar-choose","trial_index":15,"time_elapsed":513690,"internal_node_id":"0.0-15.0"},{"rt":12784,"url":"\/christiane\/tickets\/utils\/testing.html","trial_type":"html","trial_index":16,"time_elapsed":527600,"internal_node_id":"0.0-16.0"},{"phase":0,"order":[47,28,10,40,30,12,48,4,22,24,9,2,19,13,25,43,1,36,20,17,42,46,15,38,23,44,7,18,32,39,16,26,49,3,34,31,33,6,27,21,11,35,29,37,41,14,5,8,45,0],"trial_type":"store_order","trial_index":17,"time_elapsed":528605,"internal_node_id":"0.0-17.0"},{"result":184,"points":1,"place":4,"phase":0,"sequence":-1,"prices":[184,180,224,165,181,199,185,193,218,146],"times":[6187],"next_num":1,"trial_type":"ticket-choose","trial_index":18,"time_elapsed":539682,"internal_node_id":"0.0-18.0"},{"rt":3236,"url":"\/christiane\/tickets\/utils\/testing_after.html","trial_type":"html","trial_index":19,"time_elapsed":544028,"internal_node_id":"0.0-19.0"},{"result":152,"points":3,"place":0,"phase":0,"sequence":0,"prices":[200,181,203,152,175,171,160,154,176,191],"times":[2782,2165,781,1730],"next_num":4,"trial_type":"ticket-choose","trial_index":20,"time_elapsed":556747,"internal_node_id":"0.0-20.0"},{"result":165,"points":3,"place":0,"phase":0,"sequence":1,"prices":[196,165,170,184,187,211,171,201,202,185],"times":[2533,1611],"next_num":2,"trial_type":"ticket-choose","trial_index":21,"time_elapsed":563884,"internal_node_id":"0.0-21.0"},{"result":165,"points":2,"place":1,"phase":0,"sequence":2,"prices":[175,187,177,209,180,188,165,165,154,208],"times":[1452,641,678,727,635,963,1425],"next_num":7,"trial_type":"ticket-choose","trial_index":22,"time_elapsed":574189,"internal_node_id":"0.0-22.0"},{"result":150,"points":3,"place":0,"phase":0,"sequence":3,"prices":[189,150,175,160,188,207,158,194,178,199],"times":[2067,1445],"next_num":2,"trial_type":"ticket-choose","trial_index":23,"time_elapsed":580391,"internal_node_id":"0.0-23.0"},{"result":169,"points":2,"place":1,"phase":0,"sequence":4,"prices":[191,172,169,175,182,203,170,195,165,176],"times":[1115,606,1639],"next_num":3,"trial_type":"ticket-choose","trial_index":24,"time_elapsed":586870,"internal_node_id":"0.0-24.0"},{"result":163,"points":2,"place":1,"phase":0,"sequence":5,"prices":[175,186,163,214,179,187,176,166,153,208],"times":[2085,719,1381],"next_num":3,"trial_type":"ticket-choose","trial_index":25,"time_elapsed":593712,"internal_node_id":"0.0-25.0"},{"result":147,"points":3,"place":0,"phase":0,"sequence":6,"prices":[181,215,169,147,182,193,177,184,176,179],"times":[3726,616,738,1538],"next_num":4,"trial_type":"ticket-choose","trial_index":26,"time_elapsed":603280,"internal_node_id":"0.0-26.0"},{"result":168,"points":1,"place":2,"phase":0,"sequence":7,"prices":[175,185,178,215,181,186,167,168,208,156],"times":[3953,591,612,951,731,710,707,1332],"next_num":8,"trial_type":"ticket-choose","trial_index":27,"time_elapsed":617628,"internal_node_id":"0.0-27.0"},{"result":158,"points":2,"place":1,"phase":0,"sequence":8,"prices":[175,186,177,209,181,188,158,167,208,154],"times":[2093,654,696,692,612,655,1291],"next_num":7,"trial_type":"ticket-choose","trial_index":28,"time_elapsed":627718,"internal_node_id":"0.0-28.0"},{"result":165,"points":3,"place":0,"phase":0,"sequence":9,"prices":[193,165,175,181,185,224,180,199,218,184],"times":[1627,1300],"next_num":2,"trial_type":"ticket-choose","trial_index":29,"time_elapsed":633141,"internal_node_id":"0.0-29.0"},{"result":165,"points":2,"place":1,"phase":0,"sequence":10,"prices":[175,186,177,210,179,187,165,166,153,208],"times":[1490,674,928,600,931,664,1238],"next_num":7,"trial_type":"ticket-choose","trial_index":30,"time_elapsed":643025,"internal_node_id":"0.0-30.0"},{"result":167,"points":2,"place":1,"phase":0,"sequence":11,"prices":[175,186,167,225,179,187,178,169,209,153],"times":[1583,736,1166],"next_num":3,"trial_type":"ticket-choose","trial_index":31,"time_elapsed":649075,"internal_node_id":"0.0-31.0"},{"result":158,"points":2,"place":1,"phase":0,"sequence":12,"prices":[175,186,158,209,181,188,177,167,208,154],"times":[3631,593,1322],"next_num":3,"trial_type":"ticket-choose","trial_index":32,"time_elapsed":657341,"internal_node_id":"0.0-32.0"},{"result":163,"points":2,"place":1,"phase":0,"sequence":13,"prices":[175,187,163,209,180,188,176,165,154,208],"times":[1102,529,1237],"next_num":3,"trial_type":"ticket-choose","trial_index":33,"time_elapsed":662903,"internal_node_id":"0.0-33.0"},{"result":165,"points":2,"place":1,"phase":0,"sequence":14,"prices":[201,165,162,166,185,214,165,202,204,179],"times":[1446,1349],"next_num":2,"trial_type":"ticket-choose","trial_index":34,"time_elapsed":668084,"internal_node_id":"0.0-34.0"},{"result":157,"points":3,"place":0,"phase":0,"sequence":15,"prices":[201,187,157,184,198,179,188,185,178,170],"times":[1643,750,1198],"next_num":3,"trial_type":"ticket-choose","trial_index":35,"time_elapsed":674381,"internal_node_id":"0.0-35.0"},{"result":167,"points":2,"place":1,"phase":0,"sequence":16,"prices":[175,185,167,224,181,186,178,168,208,156],"times":[1531,667,1162],"next_num":3,"trial_type":"ticket-choose","trial_index":36,"time_elapsed":680134,"internal_node_id":"0.0-36.0"},{"result":165,"points":2,"place":1,"phase":0,"sequence":17,"prices":[188,200,165,172,198,174,177,154,177,180],"times":[1358,739,1143],"next_num":3,"trial_type":"ticket-choose","trial_index":37,"time_elapsed":685836,"internal_node_id":"0.0-37.0"},{"result":158,"points":2,"place":1,"phase":0,"sequence":18,"prices":[176,187,158,210,181,187,177,165,208,153],"times":[1178,562,1262],"next_num":3,"trial_type":"ticket-choose","trial_index":38,"time_elapsed":691566,"internal_node_id":"0.0-38.0"},{"result":163,"points":2,"place":1,"phase":0,"sequence":19,"prices":[174,186,176,217,181,187,163,166,153,209],"times":[1153,713,577,606,659,588,1431],"next_num":7,"trial_type":"ticket-choose","trial_index":39,"time_elapsed":700937,"internal_node_id":"0.0-39.0"},{"result":143,"points":3,"place":0,"phase":0,"sequence":20,"prices":[222,173,202,197,143,205,198,183,178,186],"times":[1649,726,588,652,1363],"next_num":5,"trial_type":"ticket-choose","trial_index":40,"time_elapsed":709352,"internal_node_id":"0.0-40.0"},{"result":158,"points":3,"place":0,"phase":0,"sequence":21,"prices":[210,184,226,193,215,158,199,175,176,208],"times":[1659,1943,557,632,598,2045],"next_num":6,"trial_type":"ticket-choose","trial_index":41,"time_elapsed":719961,"internal_node_id":"0.0-41.0"},{"result":163,"points":2,"place":1,"phase":0,"sequence":22,"prices":[175,186,176,210,179,187,163,166,153,208],"times":[935,548,605,630,695,653,1328],"next_num":7,"trial_type":"ticket-choose","trial_index":42,"time_elapsed":728683,"internal_node_id":"0.0-42.0"},{"result":168,"points":1,"place":2,"phase":0,"sequence":23,"prices":[168,199,196,198,185,195,227,163,177,166],"times":[1635],"next_num":1,"trial_type":"ticket-choose","trial_index":43,"time_elapsed":733429,"internal_node_id":"0.0-43.0"},{"result":158,"points":2,"place":1,"phase":0,"sequence":24,"prices":[176,187,177,225,181,187,158,165,208,153],"times":[1160,638,594,563,688,583,1177],"next_num":7,"trial_type":"ticket-choose","trial_index":44,"time_elapsed":742405,"internal_node_id":"0.0-44.0"},{"result":159,"points":1,"place":2,"phase":0,"sequence":25,"prices":[180,159,149,175,185,141,163,174,178,207],"times":[1715,1210],"next_num":2,"trial_type":"ticket-choose","trial_index":45,"time_elapsed":747832,"internal_node_id":"0.0-45.0"},{"result":165,"points":2,"place":1,"phase":0,"sequence":26,"prices":[175,187,165,209,180,188,177,166,154,208],"times":[967,581,1310],"next_num":3,"trial_type":"ticket-choose","trial_index":46,"time_elapsed":753275,"internal_node_id":"0.0-46.0"},{"result":153,"points":3,"place":0,"phase":0,"sequence":27,"prices":[175,186,158,211,180,187,177,166,209,153],"times":[1843,504,466,1125,638,602,1192,1991,834,1444],"next_num":10,"trial_type":"ticket-choose","trial_index":47,"time_elapsed":767999,"internal_node_id":"0.0-47.0"},{"result":165,"points":3,"place":0,"phase":0,"sequence":28,"prices":[193,169,171,187,190,224,174,194,165,188],"times":[4728,1739,600,534,612,772,686,783,1387],"next_num":9,"trial_type":"ticket-choose","trial_index":48,"time_elapsed":785137,"internal_node_id":"0.0-48.0"},{"result":165,"points":3,"place":0,"phase":0,"sequence":29,"prices":[189,167,180,197,165,168,172,213,178,171],"times":[1581,1497,859,592,1267],"next_num":5,"trial_type":"ticket-choose","trial_index":49,"time_elapsed":794209,"internal_node_id":"0.0-49.0"},{"result":163,"points":2,"place":1,"phase":0,"sequence":30,"prices":[175,187,176,209,180,188,163,165,154,208],"times":[1845,608,764,740,833,1026,1402],"next_num":7,"trial_type":"ticket-choose","trial_index":50,"time_elapsed":805099,"internal_node_id":"0.0-50.0"},{"result":165,"points":2,"place":1,"phase":0,"sequence":31,"prices":[200,165,165,173,182,207,161,202,204,180],"times":[1457,1291],"next_num":2,"trial_type":"ticket-choose","trial_index":51,"time_elapsed":810285,"internal_node_id":"0.0-51.0"},{"result":163,"points":1,"place":2,"phase":0,"sequence":32,"prices":[183,163,185,180,166,148,160,186,176,184],"times":[1956,1149],"next_num":2,"trial_type":"ticket-choose","trial_index":52,"time_elapsed":815879,"internal_node_id":"0.0-52.0"},{"result":168,"points":1,"place":2,"phase":0,"sequence":33,"prices":[174,186,178,217,181,188,167,168,208,156],"times":[1299,558,590,625,610,590,1204,1947],"next_num":8,"trial_type":"ticket-choose","trial_index":53,"time_elapsed":827040,"internal_node_id":"0.0-53.0"},{"result":176,"points":0,"place":5,"phase":0,"sequence":34,"prices":[181,155,148,161,168,187,172,199,176,194],"times":[1338,591,488,913,837,682,1056,716,2126],"next_num":9,"trial_type":"ticket-choose","trial_index":54,"time_elapsed":840419,"internal_node_id":"0.0-54.0"},{"result":165,"points":3,"place":0,"phase":0,"sequence":35,"prices":[171,203,175,170,167,220,192,186,165,165],"times":[1416,1285,701,781,939,804,787,971,1423],"next_num":9,"trial_type":"ticket-choose","trial_index":55,"time_elapsed":853632,"internal_node_id":"0.0-55.0"},{"result":168,"points":1,"place":2,"phase":0,"sequence":36,"prices":[183,182,192,168,173,205,167,187,165,170],"times":[1330,10601,830,1768],"next_num":4,"trial_type":"ticket-choose","trial_index":56,"time_elapsed":871060,"internal_node_id":"0.0-56.0"},{"result":166,"points":1,"place":2,"phase":0,"sequence":37,"prices":[175,186,165,214,179,187,177,166,153,208],"times":[1288,581,511,829,575,580,613,1407],"next_num":8,"trial_type":"ticket-choose","trial_index":57,"time_elapsed":881042,"internal_node_id":"0.0-57.0"},{"result":165,"points":3,"place":0,"phase":0,"sequence":38,"prices":[192,165,171,178,188,217,172,195,197,186],"times":[2027,1699],"next_num":2,"trial_type":"ticket-choose","trial_index":58,"time_elapsed":887221,"internal_node_id":"0.0-58.0"},{"result":158,"points":2,"place":1,"phase":0,"sequence":39,"prices":[175,186,177,221,180,187,158,166,209,153],"times":[1423,624,743,626,618,733,1366],"next_num":7,"trial_type":"ticket-choose","trial_index":59,"time_elapsed":896975,"internal_node_id":"0.0-59.0"},{"result":165,"points":2,"place":1,"phase":0,"sequence":40,"prices":[174,186,177,217,181,187,165,166,153,209],"times":[1335,2155,2004,771,1108,750,1358],"next_num":7,"trial_type":"ticket-choose","trial_index":60,"time_elapsed":909999,"internal_node_id":"0.0-60.0"},{"result":154,"points":2,"place":1,"phase":0,"sequence":41,"prices":[168,154,172,185,195,144,184,211,177,227],"times":[2135,1329],"next_num":2,"trial_type":"ticket-choose","trial_index":61,"time_elapsed":915811,"internal_node_id":"0.0-61.0"},{"result":165,"points":3,"place":0,"phase":0,"sequence":42,"prices":[185,170,182,201,173,199,171,188,165,168],"times":[1225,736,609,704,829,866,821,981,1281],"next_num":9,"trial_type":"ticket-choose","trial_index":62,"time_elapsed":927568,"internal_node_id":"0.0-62.0"},{"result":169,"points":1,"place":3,"phase":0,"sequence":43,"prices":[198,193,169,163,202,182,152,164,177,171],"times":[1958,702,1930],"next_num":3,"trial_type":"ticket-choose","trial_index":63,"time_elapsed":934759,"internal_node_id":"0.0-63.0"},{"result":155,"points":2,"place":1,"phase":0,"sequence":44,"prices":[201,207,155,158,156,165,167,135,178,177],"times":[1401,619,1861],"next_num":3,"trial_type":"ticket-choose","trial_index":64,"time_elapsed":941246,"internal_node_id":"0.0-64.0"},{"result":163,"points":2,"place":1,"phase":0,"sequence":45,"prices":[174,186,163,212,181,187,176,166,153,209],"times":[6532,688,1351],"next_num":3,"trial_type":"ticket-choose","trial_index":65,"time_elapsed":952475,"internal_node_id":"0.0-65.0"},{"result":167,"points":2,"place":1,"phase":0,"sequence":46,"prices":[175,186,178,212,179,187,167,169,209,153],"times":[3811,712,774,939,736,695,1425],"next_num":7,"trial_type":"ticket-choose","trial_index":66,"time_elapsed":965509,"internal_node_id":"0.0-66.0"},{"result":165,"points":2,"place":1,"phase":0,"sequence":47,"prices":[174,186,165,212,181,187,177,167,153,209],"times":[2095,871,1322],"next_num":3,"trial_type":"ticket-choose","trial_index":67,"time_elapsed":972227,"internal_node_id":"0.0-67.0"},{"result":164,"points":3,"place":0,"phase":0,"sequence":48,"prices":[212,192,188,184,167,193,189,164,176,170],"times":[2367,987,1011,694,2823,3670,842,1294],"next_num":8,"trial_type":"ticket-choose","trial_index":68,"time_elapsed":990192,"internal_node_id":"0.0-68.0"},{"result":168,"points":1,"place":2,"phase":0,"sequence":49,"prices":[174,186,167,211,181,188,178,168,208,156],"times":[2986,722,754,773,661,678,806,1402],"next_num":8,"trial_type":"ticket-choose","trial_index":69,"time_elapsed":1002733,"internal_node_id":"0.0-69.0"},{"responses":[{"value":0,"offby":-1,"category":"$115 - $130","category_index":0},{"value":0,"offby":-5,"category":"$131 - $145","category_index":1},{"value":40,"offby":28,"category":"$146 - $160","category_index":2},{"value":30,"offby":8,"category":"$161 - $175","category_index":3},{"value":20,"offby":-14,"category":"$176 - $190","category_index":4},{"value":10,"offby":-5,"category":"$191 - $205","category_index":5},{"value":0,"offby":-11,"category":"$206 - $220","category_index":6}],"phase":1,"number":1,"trial_type":"bar-choose","trial_index":70,"time_elapsed":1057944,"internal_node_id":"0.0-70.0"},{"rt":28383,"url":"\/christiane\/tickets\/utils\/testing2.html","trial_type":"point_update","trial_index":71,"time_elapsed":1087579,"internal_node_id":"0.0-71.0"},{"phase":1,"order":[32,18,27,31,9,46,35,47,38,30,33,49,8,0,25,45,11,48,7,21,29,20,3,44,28,40,2,43,41,10,1,12,39,26,15,22,37,14,16,4,19,6,36,34,17,42,23,5,13,24],"trial_type":"store_order","trial_index":72,"time_elapsed":1088585,"internal_node_id":"0.0-72.0"},{"result":161,"points":3,"place":0,"phase":1,"sequence":0,"prices":[193,174,224,165,187,190,224,161,194,195],"times":[2145,734,681,1171,576,607,783,1289],"next_num":8,"trial_type":"ticket-choose","trial_index":73,"time_elapsed":1100187,"internal_node_id":"0.0-73.0"},{"result":158,"points":2,"place":1,"phase":1,"sequence":1,"prices":[158,175,186,211,177,180,187,166,209,153],"times":[1755],"next_num":1,"trial_type":"ticket-choose","trial_index":74,"time_elapsed":1103989,"internal_node_id":"0.0-74.0"},{"result":165,"points":3,"place":0,"phase":1,"sequence":2,"prices":[192,172,171,178,188,165,217,168,195,197],"times":[1272,589,637,642,670,1289],"next_num":6,"trial_type":"ticket-choose","trial_index":75,"time_elapsed":1112430,"internal_node_id":"0.0-75.0"},{"result":165,"points":1,"place":2,"phase":1,"sequence":3,"prices":[171,169,186,165,163,167,220,148,187,165],"times":[1559,771,693,1317],"next_num":4,"trial_type":"ticket-choose","trial_index":76,"time_elapsed":1119734,"internal_node_id":"0.0-76.0"},{"result":166,"points":1,"place":2,"phase":1,"sequence":4,"prices":[177,175,186,210,165,179,187,166,153,208],"times":[1152,677,627,616,865,628,653,2123],"next_num":8,"trial_type":"ticket-choose","trial_index":77,"time_elapsed":1130587,"internal_node_id":"0.0-77.0"},{"result":158,"points":3,"place":0,"phase":1,"sequence":5,"prices":[214,184,226,192,215,158,199,175,176,208],"times":[1654,642,676,659,985,1424],"next_num":6,"trial_type":"ticket-choose","trial_index":78,"time_elapsed":1139920,"internal_node_id":"0.0-78.0"},{"result":153,"points":2,"place":1,"phase":1,"sequence":6,"prices":[167,153,172,185,195,143,184,211,177,227],"times":[2325,1453],"next_num":2,"trial_type":"ticket-choose","trial_index":79,"time_elapsed":1145927,"internal_node_id":"0.0-79.0"},{"result":152,"points":3,"place":0,"phase":1,"sequence":7,"prices":[200,180,203,152,175,170,160,154,176,191],"times":[1362,961,768,1419],"next_num":4,"trial_type":"ticket-choose","trial_index":80,"time_elapsed":1153155,"internal_node_id":"0.0-80.0"},{"result":163,"points":3,"place":0,"phase":1,"sequence":8,"prices":[163,199,196,199,185,195,227,163,177,166],"times":[1752,648,651,652,678,709,1411,1480],"next_num":8,"trial_type":"ticket-choose","trial_index":81,"time_elapsed":1164804,"internal_node_id":"0.0-81.0"},{"result":157,"points":3,"place":0,"phase":1,"sequence":9,"prices":[191,170,182,165,175,182,203,157,195,200],"times":[1773,631,582,1399,640,598,621,1389],"next_num":8,"trial_type":"ticket-choose","trial_index":82,"time_elapsed":1175995,"internal_node_id":"0.0-82.0"},{"result":159,"points":3,"place":0,"phase":1,"sequence":10,"prices":[183,179,188,165,168,173,205,159,187,191],"times":[1558,576,549,712,567,741,900,1648],"next_num":8,"trial_type":"ticket-choose","trial_index":83,"time_elapsed":1187951,"internal_node_id":"0.0-83.0"},{"result":184,"points":0,"place":7,"phase":1,"sequence":11,"prices":[173,163,185,181,166,148,160,185,176,184],"times":[12417,2268,511,518,1070,649,859,674,1123,1272],"next_num":10,"trial_type":"ticket-choose","trial_index":84,"time_elapsed":1213629,"internal_node_id":"0.0-84.0"},{"result":153,"points":3,"place":0,"phase":1,"sequence":12,"prices":[165,174,186,212,177,181,187,166,153,209],"times":[1824,590,526,743,664,613,659,1464,1218],"next_num":9,"trial_type":"ticket-choose","trial_index":85,"time_elapsed":1225735,"internal_node_id":"0.0-85.0"},{"result":156,"points":3,"place":0,"phase":1,"sequence":13,"prices":[167,174,186,211,178,181,188,168,208,156],"times":[1628,638,575,591,625,603,613,818,1143,1222],"next_num":10,"trial_type":"ticket-choose","trial_index":86,"time_elapsed":1238725,"internal_node_id":"0.0-86.0"},{"result":156,"points":3,"place":0,"phase":1,"sequence":14,"prices":[201,204,179,166,185,165,214,156,202,165],"times":[1186,560,650,930,621,1033,749,1860],"next_num":8,"trial_type":"ticket-choose","trial_index":87,"time_elapsed":1250269,"internal_node_id":"0.0-87.0"},{"result":170,"points":1,"place":2,"phase":1,"sequence":15,"prices":[199,191,188,174,167,193,189,164,176,170],"times":[1944,781,622,764,1083,630,674,964,777,1271],"next_num":10,"trial_type":"ticket-choose","trial_index":88,"time_elapsed":1264047,"internal_node_id":"0.0-88.0"},{"result":166,"points":1,"place":2,"phase":1,"sequence":16,"prices":[177,174,186,217,165,181,187,166,153,209],"times":[1874,526,1517,552,792,604,783,1582],"next_num":8,"trial_type":"ticket-choose","trial_index":89,"time_elapsed":1276152,"internal_node_id":"0.0-89.0"},{"result":179,"points":1,"place":4,"phase":1,"sequence":17,"prices":[181,214,169,147,182,193,178,184,176,179],"times":[1241,601,992,589,843,634,946,694,965,1212],"next_num":10,"trial_type":"ticket-choose","trial_index":90,"time_elapsed":1289028,"internal_node_id":"0.0-90.0"},{"result":154,"points":3,"place":0,"phase":1,"sequence":18,"prices":[165,175,187,209,177,180,188,167,154,208],"times":[2081,580,593,620,601,676,618,1547,1709],"next_num":9,"trial_type":"ticket-choose","trial_index":91,"time_elapsed":1302834,"internal_node_id":"0.0-91.0"},{"result":158,"points":2,"place":1,"phase":1,"sequence":19,"prices":[177,175,186,221,158,180,187,166,209,153],"times":[2346,1188,626,581,1251],"next_num":5,"trial_type":"ticket-choose","trial_index":92,"time_elapsed":1312345,"internal_node_id":"0.0-92.0"},{"result":161,"points":2,"place":1,"phase":1,"sequence":20,"prices":[185,179,191,165,161,173,199,150,188,168],"times":[1357,767,557,607,1304],"next_num":5,"trial_type":"ticket-choose","trial_index":93,"time_elapsed":1319813,"internal_node_id":"0.0-93.0"},{"result":158,"points":2,"place":1,"phase":1,"sequence":21,"prices":[158,176,187,210,177,181,187,165,208,153],"times":[2115],"next_num":1,"trial_type":"ticket-choose","trial_index":94,"time_elapsed":1323803,"internal_node_id":"0.0-94.0"},{"result":168,"points":1,"place":2,"phase":1,"sequence":22,"prices":[178,174,186,217,167,181,188,168,208,156],"times":[1538,768,669,634,857,632,661,1431],"next_num":8,"trial_type":"ticket-choose","trial_index":95,"time_elapsed":1334607,"internal_node_id":"0.0-95.0"},{"result":159,"points":1,"place":2,"phase":1,"sequence":23,"prices":[181,159,149,175,185,151,163,174,178,207],"times":[1319,1392],"next_num":2,"trial_type":"ticket-choose","trial_index":96,"time_elapsed":1339428,"internal_node_id":"0.0-96.0"},{"result":165,"points":3,"place":0,"phase":1,"sequence":24,"prices":[196,171,170,184,187,165,211,169,201,202],"times":[1058,675,682,622,587,1500],"next_num":6,"trial_type":"ticket-choose","trial_index":97,"time_elapsed":1347831,"internal_node_id":"0.0-97.0"},{"result":150,"points":3,"place":0,"phase":1,"sequence":25,"prices":[190,150,175,161,188,207,157,194,178,199],"times":[1177,1506],"next_num":2,"trial_type":"ticket-choose","trial_index":98,"time_elapsed":1352565,"internal_node_id":"0.0-98.0"},{"result":169,"points":1,"place":2,"phase":1,"sequence":26,"prices":[167,175,186,225,178,179,187,169,209,153],"times":[1436,653,573,621,698,615,800,1216],"next_num":8,"trial_type":"ticket-choose","trial_index":99,"time_elapsed":1363052,"internal_node_id":"0.0-99.0"},{"result":157,"points":3,"place":0,"phase":1,"sequence":27,"prices":[201,187,157,184,198,179,188,185,178,170],"times":[1743,671,1317],"next_num":3,"trial_type":"ticket-choose","trial_index":100,"time_elapsed":1369367,"internal_node_id":"0.0-100.0"},{"result":155,"points":2,"place":1,"phase":1,"sequence":28,"prices":[200,207,155,158,156,168,167,135,178,177],"times":[1412,789,1303],"next_num":3,"trial_type":"ticket-choose","trial_index":101,"time_elapsed":1375303,"internal_node_id":"0.0-101.0"},{"result":165,"points":2,"place":1,"phase":1,"sequence":29,"prices":[177,175,187,209,165,180,188,165,154,208],"times":[2192,681,674,858,1655],"next_num":5,"trial_type":"ticket-choose","trial_index":102,"time_elapsed":1384246,"internal_node_id":"0.0-102.0"},{"result":168,"points":1,"place":2,"phase":1,"sequence":30,"prices":[167,175,185,224,178,181,186,168,208,156],"times":[1616,652,658,678,822,677,672,2370],"next_num":8,"trial_type":"ticket-choose","trial_index":103,"time_elapsed":1395927,"internal_node_id":"0.0-103.0"},{"result":166,"points":1,"place":2,"phase":1,"sequence":31,"prices":[163,175,186,214,176,179,187,166,153,208],"times":[2283,543,585,598,844,564,631,1829],"next_num":8,"trial_type":"ticket-choose","trial_index":104,"time_elapsed":1407267,"internal_node_id":"0.0-104.0"},{"result":165,"points":3,"place":0,"phase":1,"sequence":32,"prices":[189,167,180,197,165,168,172,213,178,171],"times":[1446,737,485,611,1548],"next_num":5,"trial_type":"ticket-choose","trial_index":105,"time_elapsed":1414968,"internal_node_id":"0.0-105.0"},{"result":165,"points":1,"place":2,"phase":1,"sequence":33,"prices":[200,173,182,169,207,165,152,202,161,204],"times":[1769,645,553,1461,590,1266],"next_num":6,"trial_type":"ticket-choose","trial_index":106,"time_elapsed":1424461,"internal_node_id":"0.0-106.0"},{"result":166,"points":1,"place":2,"phase":1,"sequence":34,"prices":[176,175,186,210,163,179,187,166,153,208],"times":[1196,712,611,636,1539,582,651,1530],"next_num":8,"trial_type":"ticket-choose","trial_index":107,"time_elapsed":1435399,"internal_node_id":"0.0-107.0"},{"result":158,"points":2,"place":1,"phase":1,"sequence":35,"prices":[177,175,186,209,158,181,188,167,208,154],"times":[2229,575,545,562,1233],"next_num":5,"trial_type":"ticket-choose","trial_index":108,"time_elapsed":1443326,"internal_node_id":"0.0-108.0"},{"result":165,"points":1,"place":2,"phase":1,"sequence":36,"prices":[199,193,169,165,202,182,151,164,176,171],"times":[1252,589,1397,1220],"next_num":4,"trial_type":"ticket-choose","trial_index":109,"time_elapsed":1450413,"internal_node_id":"0.0-109.0"},{"result":163,"points":2,"place":1,"phase":1,"sequence":37,"prices":[163,174,186,212,176,181,187,166,153,209],"times":[1723],"next_num":1,"trial_type":"ticket-choose","trial_index":110,"time_elapsed":1454125,"internal_node_id":"0.0-110.0"},{"result":163,"points":2,"place":1,"phase":1,"sequence":38,"prices":[176,187,179,209,163,180,188,165,154,208],"times":[1401,648,991,745,1555],"next_num":5,"trial_type":"ticket-choose","trial_index":111,"time_elapsed":1462305,"internal_node_id":"0.0-111.0"},{"result":168,"points":1,"place":2,"phase":1,"sequence":39,"prices":[178,175,185,215,167,181,186,168,208,156],"times":[1382,660,650,621,1209,680,600,1780],"next_num":8,"trial_type":"ticket-choose","trial_index":112,"time_elapsed":1473335,"internal_node_id":"0.0-112.0"},{"result":158,"points":2,"place":1,"phase":1,"sequence":40,"prices":[158,175,186,209,177,181,188,167,208,154],"times":[1400],"next_num":1,"trial_type":"ticket-choose","trial_index":113,"time_elapsed":1476621,"internal_node_id":"0.0-113.0"},{"result":165,"points":2,"place":1,"phase":1,"sequence":41,"prices":[165,175,186,214,177,179,187,166,153,208],"times":[1632],"next_num":1,"trial_type":"ticket-choose","trial_index":114,"time_elapsed":1480231,"internal_node_id":"0.0-114.0"},{"result":165,"points":2,"place":1,"phase":1,"sequence":42,"prices":[187,201,165,172,196,174,178,154,172,180],"times":[3331,705,1473],"next_num":3,"trial_type":"ticket-choose","trial_index":115,"time_elapsed":1488203,"internal_node_id":"0.0-115.0"},{"result":156,"points":2,"place":1,"phase":1,"sequence":43,"prices":[180,156,149,160,168,186,172,198,176,195],"times":[1635,1150],"next_num":2,"trial_type":"ticket-choose","trial_index":116,"time_elapsed":1493075,"internal_node_id":"0.0-116.0"},{"result":163,"points":2,"place":1,"phase":1,"sequence":44,"prices":[176,186,178,217,163,181,187,166,153,209],"times":[1341,677,655,660,1295],"next_num":5,"trial_type":"ticket-choose","trial_index":117,"time_elapsed":1500469,"internal_node_id":"0.0-117.0"},{"result":186,"points":1,"place":4,"phase":1,"sequence":45,"prices":[220,173,201,197,169,205,198,183,178,186],"times":[1041,666,599,707,1513,590,615,737,975,1216],"next_num":10,"trial_type":"ticket-choose","trial_index":118,"time_elapsed":1514200,"internal_node_id":"0.0-118.0"},{"result":158,"points":2,"place":1,"phase":1,"sequence":46,"prices":[177,176,187,225,158,181,187,165,208,153],"times":[1274,635,619,632,1272],"next_num":5,"trial_type":"ticket-choose","trial_index":119,"time_elapsed":1521357,"internal_node_id":"0.0-119.0"},{"result":167,"points":2,"place":1,"phase":1,"sequence":47,"prices":[178,175,186,212,167,179,187,169,209,153],"times":[1785,1029,597,635,1501],"next_num":5,"trial_type":"ticket-choose","trial_index":120,"time_elapsed":1529708,"internal_node_id":"0.0-120.0"},{"result":165,"points":1,"place":2,"phase":1,"sequence":48,"prices":[163,175,187,209,176,180,188,165,154,208],"times":[1912,524,523,519,606,638,732,2115],"next_num":8,"trial_type":"ticket-choose","trial_index":121,"time_elapsed":1540764,"internal_node_id":"0.0-121.0"},{"result":165,"points":3,"place":0,"phase":1,"sequence":49,"prices":[193,181,175,181,185,165,224,199,218,184],"times":[2260,556,563,600,632,2547],"next_num":6,"trial_type":"ticket-choose","trial_index":122,"time_elapsed":1551249,"internal_node_id":"0.0-122.0"},{"responses":[{"value":0,"offby":-1,"category":"$115 - $130","category_index":0},{"value":10,"offby":5,"category":"$131 - $145","category_index":1},{"value":20,"offby":8,"category":"$146 - $160","category_index":2},{"value":30,"offby":8,"category":"$161 - $175","category_index":3},{"value":30,"offby":-4,"category":"$176 - $190","category_index":4},{"value":10,"offby":-5,"category":"$191 - $205","category_index":5},{"value":0,"offby":-11,"category":"$206 - $220","category_index":6}],"phase":1,"number":1,"trial_type":"bar-choose","trial_index":123,"time_elapsed":1587296,"internal_node_id":"0.0-123.0"},{"special_comment":"No, not really.","trial_type":"special_sequence","trial_index":124,"time_elapsed":1599103,"internal_node_id":"0.0-124.0"},{"during":"Nothing","bonus":268,"trial_type":"final","trial_index":125,"time_elapsed":1620004,"internal_node_id":"0.0-125.0"}],"bonus":268}