{"start_time":"2017-05-24 16:20:44","end_time":"2017-05-24 16:44:25","points_phase0":112,"points_phase1":120,"phase_order":0,"age":42,"gender":"m","tries":1,"during":"Nothing","worker_id":"A3PRZRK9IC5CBI","assignment_id":"36WLNQG7803TJVSC8N9V3VEFC45BE4","data":[{"rt":9131,"url":"\/christiane\/tickets\/utils\/consent.html","trial_type":"html","trial_index":0,"time_elapsed":9230,"internal_node_id":"0.0-0.0"},{"age":42,"gender":"m","trial_type":"age","trial_index":1,"time_elapsed":15438,"internal_node_id":"0.0-1.0"},{"worker_id":"A3PRZRK9IC5CBI","trial_type":"workerid","trial_index":2,"time_elapsed":28821,"internal_node_id":"0.0-2.0"},{"tries":1,"trial_type":"instructions_check","trial_index":3,"time_elapsed":51677,"internal_node_id":"0.0-3.0"},{"rt":18585,"url":"\/christiane\/tickets\/utils\/start.html","trial_type":"html","trial_index":4,"time_elapsed":71413,"internal_node_id":"0.0-4.0"},{"trial_type":"number-animation","trial_index":5,"time_elapsed":94932,"internal_node_id":"0.0-5.0"},{"phase":0,"sequence":0,"avg":181,"response":180,"trial_type":"training_avg","trial_index":6,"time_elapsed":110124,"internal_node_id":"0.0-6.0"},{"trial_type":"number-animation","trial_index":7,"time_elapsed":130084,"internal_node_id":"0.0-7.0"},{"phase":0,"sequence":1,"avg":188,"response":177,"trial_type":"training_avg","trial_index":8,"time_elapsed":141972,"internal_node_id":"0.0-8.0"},{"trial_type":"number-animation","trial_index":9,"time_elapsed":154147,"internal_node_id":"0.0-9.0"},{"phase":0,"sequence":2,"avg":188,"response":185,"trial_type":"training_avg","trial_index":10,"time_elapsed":161676,"internal_node_id":"0.0-10.0"},{"trial_type":"number-animation","trial_index":11,"time_elapsed":173059,"internal_node_id":"0.0-11.0"},{"phase":0,"sequence":3,"avg":177,"response":180,"trial_type":"training_avg","trial_index":12,"time_elapsed":180508,"internal_node_id":"0.0-12.0"},{"trial_type":"number-animation","trial_index":13,"time_elapsed":190459,"internal_node_id":"0.0-13.0"},{"phase":0,"sequence":4,"avg":182,"response":180,"trial_type":"training_avg","trial_index":14,"time_elapsed":197964,"internal_node_id":"0.0-14.0"},{"responses":[{"value":0,"offby":-1,"category":"$115 - $130","category_index":0},{"value":5,"offby":0,"category":"$131 - $145","category_index":1},{"value":10,"offby":-2,"category":"$146 - $160","category_index":2},{"value":20,"offby":-2,"category":"$161 - $175","category_index":3},{"value":50,"offby":16,"category":"$176 - $190","category_index":4},{"value":10,"offby":-5,"category":"$191 - $205","category_index":5},{"value":5,"offby":-6,"category":"$206 - $220","category_index":6}],"phase":0,"number":0,"trial_type":"bar-choose","trial_index":15,"time_elapsed":268174,"internal_node_id":"0.0-15.0"},{"rt":19910,"url":"\/christiane\/tickets\/utils\/testing.html","trial_type":"html","trial_index":16,"time_elapsed":289236,"internal_node_id":"0.0-16.0"},{"phase":0,"order":[44,35,32,41,3,23,12,27,33,43,10,14,26,31,45,15,4,0,42,1,46,16,22,30,20,7,6,49,8,2,39,13,25,19,38,18,28,17,47,5,37,40,9,24,29,34,21,48,11,36],"trial_type":"store_order","trial_index":17,"time_elapsed":290237,"internal_node_id":"0.0-17.0"},{"result":165,"points":2,"place":1,"phase":0,"sequence":-1,"prices":[184,180,224,165,181,199,185,193,218,146],"times":[1976,1238,870,1775],"next_num":4,"trial_type":"ticket-choose","trial_index":18,"time_elapsed":299820,"internal_node_id":"0.0-18.0"},{"rt":27912,"url":"\/christiane\/tickets\/utils\/testing_after.html","trial_type":"html","trial_index":19,"time_elapsed":328884,"internal_node_id":"0.0-19.0"},{"result":159,"points":1,"place":2,"phase":0,"sequence":0,"prices":[180,159,149,175,185,141,163,174,178,207],"times":[1929,1352],"next_num":2,"trial_type":"ticket-choose","trial_index":20,"time_elapsed":336619,"internal_node_id":"0.0-20.0"},{"result":154,"points":2,"place":1,"phase":0,"sequence":1,"prices":[168,154,172,185,195,144,184,211,177,227],"times":[1208,1336],"next_num":2,"trial_type":"ticket-choose","trial_index":21,"time_elapsed":341955,"internal_node_id":"0.0-21.0"},{"result":165,"points":3,"place":0,"phase":0,"sequence":2,"prices":[193,169,171,187,190,224,174,194,165,188],"times":[856,726,679,919,701,814,1415,679,1272],"next_num":9,"trial_type":"ticket-choose","trial_index":22,"time_elapsed":358292,"internal_node_id":"0.0-22.0"},{"result":155,"points":2,"place":1,"phase":0,"sequence":3,"prices":[201,207,155,158,156,165,167,135,178,177],"times":[832,526,1255],"next_num":3,"trial_type":"ticket-choose","trial_index":23,"time_elapsed":363595,"internal_node_id":"0.0-23.0"},{"result":156,"points":3,"place":0,"phase":0,"sequence":4,"prices":[174,186,178,217,181,188,167,168,208,156],"times":[936,527,663,686,624,799,1382,910,646,1080],"next_num":10,"trial_type":"ticket-choose","trial_index":24,"time_elapsed":375875,"internal_node_id":"0.0-24.0"},{"result":158,"points":2,"place":1,"phase":0,"sequence":5,"prices":[176,187,177,225,181,187,158,165,208,153],"times":[1193,486,535,549,591,567,1263],"next_num":7,"trial_type":"ticket-choose","trial_index":25,"time_elapsed":384739,"internal_node_id":"0.0-25.0"},{"result":166,"points":1,"place":2,"phase":0,"sequence":6,"prices":[175,186,163,214,179,187,176,166,153,208],"times":[1433,542,502,512,558,766,766,2415],"next_num":8,"trial_type":"ticket-choose","trial_index":26,"time_elapsed":396004,"internal_node_id":"0.0-26.0"},{"result":186,"points":1,"place":4,"phase":0,"sequence":7,"prices":[192,165,171,178,188,217,172,195,197,186],"times":[705,654,463,486,615,535,686,631,863,1392],"next_num":10,"trial_type":"ticket-choose","trial_index":27,"time_elapsed":407836,"internal_node_id":"0.0-27.0"},{"result":167,"points":2,"place":1,"phase":0,"sequence":8,"prices":[183,182,192,168,173,205,167,187,165,170],"times":[1224,471,454,878,487,822,2855],"next_num":7,"trial_type":"ticket-choose","trial_index":28,"time_elapsed":418532,"internal_node_id":"0.0-28.0"},{"result":157,"points":3,"place":0,"phase":0,"sequence":9,"prices":[201,187,157,184,198,179,188,185,178,170],"times":[593,406,1096],"next_num":3,"trial_type":"ticket-choose","trial_index":29,"time_elapsed":423365,"internal_node_id":"0.0-29.0"},{"result":165,"points":2,"place":1,"phase":0,"sequence":10,"prices":[175,187,177,209,180,188,165,165,154,208],"times":[665,454,414,503,470,446,2183],"next_num":7,"trial_type":"ticket-choose","trial_index":30,"time_elapsed":431741,"internal_node_id":"0.0-30.0"},{"result":166,"points":1,"place":2,"phase":0,"sequence":11,"prices":[174,186,163,212,181,187,176,166,153,209],"times":[760,558,582,463,486,510,591,2302],"next_num":8,"trial_type":"ticket-choose","trial_index":31,"time_elapsed":441509,"internal_node_id":"0.0-31.0"},{"result":161,"points":3,"place":0,"phase":0,"sequence":12,"prices":[200,165,165,173,182,207,161,202,204,180],"times":[601,671,455,526,487,567,1271],"next_num":7,"trial_type":"ticket-choose","trial_index":32,"time_elapsed":449493,"internal_node_id":"0.0-32.0"},{"result":165,"points":3,"place":0,"phase":0,"sequence":13,"prices":[171,203,175,170,167,220,192,186,165,165],"times":[753,431,398,455,832,702,534,590,1198],"next_num":9,"trial_type":"ticket-choose","trial_index":33,"time_elapsed":459067,"internal_node_id":"0.0-33.0"},{"result":164,"points":3,"place":0,"phase":0,"sequence":14,"prices":[212,192,188,184,167,193,189,164,176,170],"times":[845,327,414,462,799,543,478,1334],"next_num":8,"trial_type":"ticket-choose","trial_index":34,"time_elapsed":467755,"internal_node_id":"0.0-34.0"},{"result":163,"points":2,"place":1,"phase":0,"sequence":15,"prices":[175,186,176,210,179,187,163,166,153,208],"times":[937,398,975,271,374,431,1335],"next_num":7,"trial_type":"ticket-choose","trial_index":35,"time_elapsed":475707,"internal_node_id":"0.0-35.0"},{"result":156,"points":3,"place":0,"phase":0,"sequence":16,"prices":[175,185,178,215,181,186,167,168,208,156],"times":[489,559,334,278,438,534,1751,870,1048,1021],"next_num":10,"trial_type":"ticket-choose","trial_index":36,"time_elapsed":487236,"internal_node_id":"0.0-36.0"},{"result":156,"points":3,"place":0,"phase":0,"sequence":17,"prices":[174,186,167,211,181,188,178,168,208,156],"times":[761,358,366,446,509,502,893,838,1159,975],"next_num":10,"trial_type":"ticket-choose","trial_index":37,"time_elapsed":498827,"internal_node_id":"0.0-37.0"},{"result":186,"points":1,"place":4,"phase":0,"sequence":18,"prices":[222,173,202,197,143,205,198,183,178,186],"times":[1146,439,598,3095,350,1294,542,559,815,1055],"next_num":10,"trial_type":"ticket-choose","trial_index":38,"time_elapsed":512835,"internal_node_id":"0.0-38.0"},{"result":156,"points":3,"place":0,"phase":0,"sequence":19,"prices":[175,185,167,224,181,186,178,168,208,156],"times":[553,436,559,606,526,575,510,942,822,975],"next_num":10,"trial_type":"ticket-choose","trial_index":39,"time_elapsed":524931,"internal_node_id":"0.0-39.0"},{"result":158,"points":3,"place":0,"phase":0,"sequence":20,"prices":[210,184,226,193,215,158,199,175,176,208],"times":[536,480,678,526,495,1368],"next_num":6,"trial_type":"ticket-choose","trial_index":40,"time_elapsed":531987,"internal_node_id":"0.0-40.0"},{"result":154,"points":3,"place":0,"phase":0,"sequence":21,"prices":[175,187,176,209,180,188,163,165,154,208],"times":[602,415,431,471,510,559,1471,694,1311],"next_num":9,"trial_type":"ticket-choose","trial_index":41,"time_elapsed":542011,"internal_node_id":"0.0-41.0"},{"result":158,"points":2,"place":1,"phase":0,"sequence":22,"prices":[175,186,177,209,181,188,158,167,208,154],"times":[13792,581,414,719,878,622,1333],"next_num":7,"trial_type":"ticket-choose","trial_index":42,"time_elapsed":563731,"internal_node_id":"0.0-42.0"},{"result":176,"points":0,"place":5,"phase":0,"sequence":23,"prices":[191,172,169,175,182,203,170,195,165,176],"times":[609,928,630,486,502,566,606,679,1598,1215],"next_num":10,"trial_type":"ticket-choose","trial_index":43,"time_elapsed":575523,"internal_node_id":"0.0-43.0"},{"result":158,"points":2,"place":1,"phase":0,"sequence":24,"prices":[176,187,158,210,181,187,177,165,208,153],"times":[786,381,1318],"next_num":3,"trial_type":"ticket-choose","trial_index":44,"time_elapsed":580573,"internal_node_id":"0.0-44.0"},{"result":154,"points":3,"place":0,"phase":0,"sequence":25,"prices":[175,187,165,209,180,188,177,166,154,208],"times":[649,437,574,471,566,471,518,782,1318],"next_num":9,"trial_type":"ticket-choose","trial_index":45,"time_elapsed":589861,"internal_node_id":"0.0-45.0"},{"result":153,"points":3,"place":0,"phase":0,"sequence":26,"prices":[175,186,165,214,179,187,177,166,153,208],"times":[808,414,445,511,455,478,646,654,1463],"next_num":9,"trial_type":"ticket-choose","trial_index":46,"time_elapsed":600029,"internal_node_id":"0.0-46.0"},{"result":148,"points":3,"place":0,"phase":0,"sequence":27,"prices":[183,163,185,180,166,148,160,186,176,184],"times":[672,326,462,423,382,1520],"next_num":6,"trial_type":"ticket-choose","trial_index":47,"time_elapsed":606917,"internal_node_id":"0.0-47.0"},{"result":153,"points":3,"place":0,"phase":0,"sequence":28,"prices":[174,186,165,212,181,187,177,167,153,209],"times":[1019,342,342,319,430,447,503,422,1079],"next_num":9,"trial_type":"ticket-choose","trial_index":48,"time_elapsed":616604,"internal_node_id":"0.0-48.0"},{"result":153,"points":3,"place":0,"phase":0,"sequence":29,"prices":[175,186,167,225,179,187,178,169,209,153],"times":[585,286,320,397,478,478,758,879,927,1006],"next_num":10,"trial_type":"ticket-choose","trial_index":49,"time_elapsed":626780,"internal_node_id":"0.0-49.0"},{"result":171,"points":1,"place":3,"phase":0,"sequence":30,"prices":[189,167,180,197,165,168,172,213,178,171],"times":[767,343,463,478,974,671,1159,543,863,1087],"next_num":10,"trial_type":"ticket-choose","trial_index":50,"time_elapsed":638099,"internal_node_id":"0.0-50.0"},{"result":154,"points":3,"place":0,"phase":0,"sequence":31,"prices":[175,187,163,209,180,188,176,165,154,208],"times":[26280,437,1390,470,398,534,551,1006,1063],"next_num":9,"trial_type":"ticket-choose","trial_index":51,"time_elapsed":673940,"internal_node_id":"0.0-51.0"},{"result":179,"points":1,"place":4,"phase":0,"sequence":32,"prices":[201,165,162,166,185,214,165,202,204,179],"times":[953,398,367,615,527,567,991,808,647,1071],"next_num":10,"trial_type":"ticket-choose","trial_index":52,"time_elapsed":685299,"internal_node_id":"0.0-52.0"},{"result":158,"points":2,"place":1,"phase":0,"sequence":33,"prices":[175,186,158,209,181,188,177,167,208,154],"times":[545,430,1430],"next_num":3,"trial_type":"ticket-choose","trial_index":53,"time_elapsed":690107,"internal_node_id":"0.0-53.0"},{"result":163,"points":3,"place":0,"phase":0,"sequence":34,"prices":[168,199,196,198,185,195,227,163,177,166],"times":[1736,318,375,471,519,494,567,1055],"next_num":8,"trial_type":"ticket-choose","trial_index":54,"time_elapsed":699107,"internal_node_id":"0.0-54.0"},{"result":153,"points":3,"place":0,"phase":0,"sequence":35,"prices":[175,186,158,211,180,187,177,166,209,153],"times":[537,302,278,446,366,462,566,1158,447,1071],"next_num":10,"trial_type":"ticket-choose","trial_index":55,"time_elapsed":708547,"internal_node_id":"0.0-55.0"},{"result":185,"points":1,"place":4,"phase":0,"sequence":36,"prices":[196,165,170,184,187,211,171,201,202,185],"times":[529,310,391,519,446,495,471,847,493,1055],"next_num":10,"trial_type":"ticket-choose","trial_index":56,"time_elapsed":717996,"internal_node_id":"0.0-56.0"},{"result":163,"points":2,"place":1,"phase":0,"sequence":37,"prices":[174,186,176,217,181,187,163,166,153,209],"times":[810,462,477,607,558,607,1199],"next_num":7,"trial_type":"ticket-choose","trial_index":57,"time_elapsed":725971,"internal_node_id":"0.0-57.0"},{"result":152,"points":3,"place":0,"phase":0,"sequence":38,"prices":[200,181,203,152,175,171,160,154,176,191],"times":[705,527,560,1191],"next_num":4,"trial_type":"ticket-choose","trial_index":58,"time_elapsed":731451,"internal_node_id":"0.0-58.0"},{"result":153,"points":3,"place":0,"phase":0,"sequence":39,"prices":[175,186,178,212,179,187,167,169,209,153],"times":[730,341,318,422,431,415,871,871,590,975],"next_num":10,"trial_type":"ticket-choose","trial_index":59,"time_elapsed":740860,"internal_node_id":"0.0-59.0"},{"result":152,"points":3,"place":0,"phase":0,"sequence":40,"prices":[198,193,169,163,202,182,152,164,177,171],"times":[1169,527,351,414,511,503,1168],"next_num":7,"trial_type":"ticket-choose","trial_index":60,"time_elapsed":748659,"internal_node_id":"0.0-60.0"},{"result":199,"points":0,"place":8,"phase":0,"sequence":41,"prices":[189,150,175,160,188,207,158,194,178,199],"times":[904,328,1134,311,543,527,919,518,551,1064],"next_num":10,"trial_type":"ticket-choose","trial_index":61,"time_elapsed":759596,"internal_node_id":"0.0-61.0"},{"result":153,"points":3,"place":0,"phase":0,"sequence":42,"prices":[175,186,177,210,179,187,165,166,153,208],"times":[497,399,479,439,630,566,998,631,1111],"next_num":9,"trial_type":"ticket-choose","trial_index":62,"time_elapsed":769092,"internal_node_id":"0.0-62.0"},{"result":184,"points":1,"place":4,"phase":0,"sequence":43,"prices":[193,165,175,181,185,224,180,199,218,184],"times":[936,671,630,478,526,686,503,582,599,920],"next_num":10,"trial_type":"ticket-choose","trial_index":63,"time_elapsed":779605,"internal_node_id":"0.0-63.0"},{"result":165,"points":3,"place":0,"phase":0,"sequence":44,"prices":[185,170,182,201,173,199,171,188,165,168],"times":[10703,422,478,422,487,542,486,582,1167],"next_num":9,"trial_type":"ticket-choose","trial_index":64,"time_elapsed":798565,"internal_node_id":"0.0-64.0"},{"result":194,"points":0,"place":8,"phase":0,"sequence":45,"prices":[181,155,148,161,168,187,172,199,176,194],"times":[776,512,2429,1023,382,382,367,470,422,590],"next_num":11,"trial_type":"ticket-choose","trial_index":65,"time_elapsed":812157,"internal_node_id":"0.0-65.0"},{"result":158,"points":2,"place":1,"phase":0,"sequence":46,"prices":[175,186,177,221,180,187,158,166,209,153],"times":[513,375,487,671,495,749,1086],"next_num":7,"trial_type":"ticket-choose","trial_index":66,"time_elapsed":819763,"internal_node_id":"0.0-66.0"},{"result":147,"points":3,"place":0,"phase":0,"sequence":47,"prices":[181,215,169,147,182,193,177,184,176,179],"times":[464,430,431,1207],"next_num":4,"trial_type":"ticket-choose","trial_index":67,"time_elapsed":825588,"internal_node_id":"0.0-67.0"},{"result":153,"points":3,"place":0,"phase":0,"sequence":48,"prices":[174,186,177,217,181,187,165,166,153,209],"times":[416,399,391,439,519,438,486,1776,1159],"next_num":9,"trial_type":"ticket-choose","trial_index":68,"time_elapsed":835059,"internal_node_id":"0.0-68.0"},{"result":154,"points":3,"place":0,"phase":0,"sequence":49,"prices":[188,200,165,172,198,174,177,154,177,180],"times":[729,446,966,463,518,590,599,1176],"next_num":8,"trial_type":"ticket-choose","trial_index":69,"time_elapsed":843828,"internal_node_id":"0.0-69.0"},{"responses":[{"value":0,"offby":-1,"category":"$115 - $130","category_index":0},{"value":0,"offby":-5,"category":"$131 - $145","category_index":1},{"value":7,"offby":-5,"category":"$146 - $160","category_index":2},{"value":15,"offby":-7,"category":"$161 - $175","category_index":3},{"value":70,"offby":36,"category":"$176 - $190","category_index":4},{"value":5,"offby":-10,"category":"$191 - $205","category_index":5},{"value":3,"offby":-8,"category":"$206 - $220","category_index":6}],"phase":1,"number":1,"trial_type":"bar-choose","trial_index":70,"time_elapsed":894381,"internal_node_id":"0.0-70.0"},{"rt":27854,"url":"\/christiane\/tickets\/utils\/testing2.html","trial_type":"point_update","trial_index":71,"time_elapsed":923532,"internal_node_id":"0.0-71.0"},{"phase":1,"order":[45,6,10,2,26,5,41,39,25,47,13,4,23,3,44,22,40,12,28,29,36,21,46,35,33,16,34,24,11,17,14,15,19,38,18,30,0,9,49,20,7,1,48,8,37,42,43,27,31,32],"trial_type":"store_order","trial_index":72,"time_elapsed":924533,"internal_node_id":"0.0-72.0"},{"result":164,"points":3,"place":0,"phase":1,"sequence":0,"prices":[199,191,188,174,167,193,189,164,176,170],"times":[568,423,471,790,870,503,550,1392],"next_num":8,"trial_type":"ticket-choose","trial_index":73,"time_elapsed":933884,"internal_node_id":"0.0-73.0"},{"result":153,"points":3,"place":0,"phase":1,"sequence":1,"prices":[165,175,186,214,177,179,187,166,153,208],"times":[807,351,318,480,464,455,655,1102,1207],"next_num":9,"trial_type":"ticket-choose","trial_index":74,"time_elapsed":943371,"internal_node_id":"0.0-74.0"},{"result":165,"points":2,"place":1,"phase":1,"sequence":2,"prices":[177,175,187,209,165,180,188,165,154,208],"times":[574,518,431,422,376,382,414,2440],"next_num":8,"trial_type":"ticket-choose","trial_index":75,"time_elapsed":952644,"internal_node_id":"0.0-75.0"},{"result":153,"points":3,"place":0,"phase":1,"sequence":3,"prices":[167,175,186,225,178,179,187,169,209,153],"times":[890,336,318,384,448,535,605,655,742,807],"next_num":10,"trial_type":"ticket-choose","trial_index":76,"time_elapsed":962011,"internal_node_id":"0.0-76.0"},{"result":152,"points":3,"place":0,"phase":1,"sequence":4,"prices":[200,173,182,169,207,165,152,202,161,204],"times":[576,272,366,447,502,1247,1024],"next_num":7,"trial_type":"ticket-choose","trial_index":77,"time_elapsed":969339,"internal_node_id":"0.0-77.0"},{"result":153,"points":3,"place":0,"phase":1,"sequence":5,"prices":[178,175,186,212,167,179,187,169,209,153],"times":[736,423,391,510,727,407,486,638,550,831],"next_num":10,"trial_type":"ticket-choose","trial_index":78,"time_elapsed":978555,"internal_node_id":"0.0-78.0"},{"result":155,"points":2,"place":1,"phase":1,"sequence":6,"prices":[200,207,155,158,156,168,167,135,178,177],"times":[23049,407,1071],"next_num":3,"trial_type":"ticket-choose","trial_index":79,"time_elapsed":1005564,"internal_node_id":"0.0-79.0"},{"result":171,"points":1,"place":3,"phase":1,"sequence":7,"prices":[189,167,180,197,165,168,172,213,178,171],"times":[544,319,342,270,559,463,542,486,688,910],"next_num":10,"trial_type":"ticket-choose","trial_index":80,"time_elapsed":1014516,"internal_node_id":"0.0-80.0"},{"result":156,"points":3,"place":0,"phase":1,"sequence":8,"prices":[201,204,179,166,185,165,214,156,202,165],"times":[553,334,383,422,423,855,463,1070],"next_num":8,"trial_type":"ticket-choose","trial_index":81,"time_elapsed":1022220,"internal_node_id":"0.0-81.0"},{"result":191,"points":0,"place":7,"phase":1,"sequence":9,"prices":[200,180,203,152,175,170,160,154,176,191],"times":[721,302,310,376,871,552,454,439,775,1375],"next_num":10,"trial_type":"ticket-choose","trial_index":82,"time_elapsed":1032333,"internal_node_id":"0.0-82.0"},{"result":165,"points":1,"place":2,"phase":1,"sequence":10,"prices":[163,175,187,209,176,180,188,165,154,208],"times":[521,360,294,365,487,551,519,1430],"next_num":8,"trial_type":"ticket-choose","trial_index":83,"time_elapsed":1040261,"internal_node_id":"0.0-83.0"},{"result":156,"points":3,"place":0,"phase":1,"sequence":11,"prices":[178,175,185,215,167,181,186,168,208,156],"times":[512,335,375,422,367,559,438,791,551,968],"next_num":10,"trial_type":"ticket-choose","trial_index":84,"time_elapsed":1049204,"internal_node_id":"0.0-84.0"},{"result":153,"points":3,"place":0,"phase":1,"sequence":12,"prices":[177,176,187,225,158,181,187,165,208,153],"times":[503,390,486,560,2023,510,400,710,512,679],"next_num":10,"trial_type":"ticket-choose","trial_index":85,"time_elapsed":1059509,"internal_node_id":"0.0-85.0"},{"result":156,"points":3,"place":0,"phase":1,"sequence":13,"prices":[178,174,186,217,167,181,188,168,208,156],"times":[670,319,383,391,638,415,471,591,614,767],"next_num":10,"trial_type":"ticket-choose","trial_index":86,"time_elapsed":1068227,"internal_node_id":"0.0-86.0"},{"result":163,"points":1,"place":3,"phase":1,"sequence":14,"prices":[181,159,149,175,185,151,163,174,178,207],"times":[575,320,510,782,247,431,1319],"next_num":7,"trial_type":"ticket-choose","trial_index":87,"time_elapsed":1076676,"internal_node_id":"0.0-87.0"},{"result":154,"points":3,"place":0,"phase":1,"sequence":15,"prices":[177,175,186,209,158,181,188,167,208,154],"times":[3945,367,352,446,1166,431,390,504,511,735],"next_num":10,"trial_type":"ticket-choose","trial_index":88,"time_elapsed":1089059,"internal_node_id":"0.0-88.0"},{"result":157,"points":2,"place":1,"phase":1,"sequence":16,"prices":[190,150,175,161,188,207,157,194,178,199],"times":[497,270,662,271,455,502,1015],"next_num":7,"trial_type":"ticket-choose","trial_index":89,"time_elapsed":1095716,"internal_node_id":"0.0-89.0"},{"result":153,"points":3,"place":0,"phase":1,"sequence":17,"prices":[163,175,186,214,176,179,187,166,153,208],"times":[528,416,430,502,687,503,422,495,1022],"next_num":9,"trial_type":"ticket-choose","trial_index":90,"time_elapsed":1104267,"internal_node_id":"0.0-90.0"},{"result":202,"points":0,"place":8,"phase":1,"sequence":18,"prices":[196,171,170,184,187,165,211,169,201,202],"times":[1152,534,230,390,502,647,367,623,534,1760],"next_num":10,"trial_type":"ticket-choose","trial_index":91,"time_elapsed":1114476,"internal_node_id":"0.0-91.0"},{"result":161,"points":2,"place":1,"phase":1,"sequence":19,"prices":[185,179,191,165,161,173,199,150,188,168],"times":[481,295,367,335,1567],"next_num":5,"trial_type":"ticket-choose","trial_index":92,"time_elapsed":1120307,"internal_node_id":"0.0-92.0"},{"result":154,"points":3,"place":0,"phase":1,"sequence":20,"prices":[187,201,165,172,196,174,178,154,172,180],"times":[512,286,654,462,479,550,439,1279],"next_num":8,"trial_type":"ticket-choose","trial_index":93,"time_elapsed":1128156,"internal_node_id":"0.0-93.0"},{"result":158,"points":2,"place":1,"phase":1,"sequence":21,"prices":[177,175,186,221,158,180,187,166,209,153],"times":[761,390,487,462,1152],"next_num":5,"trial_type":"ticket-choose","trial_index":94,"time_elapsed":1133996,"internal_node_id":"0.0-94.0"},{"result":208,"points":0,"place":6,"phase":1,"sequence":22,"prices":[214,184,226,192,215,158,199,175,176,208],"times":[409,903,415,415,350,343,374,543,542,949],"next_num":10,"trial_type":"ticket-choose","trial_index":95,"time_elapsed":1143220,"internal_node_id":"0.0-95.0"},{"result":153,"points":2,"place":1,"phase":1,"sequence":23,"prices":[167,153,172,185,195,143,184,211,177,227],"times":[442,1030],"next_num":2,"trial_type":"ticket-choose","trial_index":96,"time_elapsed":1147069,"internal_node_id":"0.0-96.0"},{"result":159,"points":3,"place":0,"phase":1,"sequence":24,"prices":[183,179,188,165,168,173,205,159,187,191],"times":[529,431,399,640,462,431,528,1592],"next_num":8,"trial_type":"ticket-choose","trial_index":97,"time_elapsed":1155572,"internal_node_id":"0.0-97.0"},{"result":154,"points":3,"place":0,"phase":1,"sequence":25,"prices":[176,187,179,209,163,180,188,165,154,208],"times":[537,375,374,326,343,375,454,609,1230],"next_num":9,"trial_type":"ticket-choose","trial_index":98,"time_elapsed":1163668,"internal_node_id":"0.0-98.0"},{"result":149,"points":3,"place":0,"phase":1,"sequence":26,"prices":[180,156,149,160,168,186,172,198,176,195],"times":[1217,318,1127],"next_num":3,"trial_type":"ticket-choose","trial_index":99,"time_elapsed":1168741,"internal_node_id":"0.0-99.0"},{"result":184,"points":1,"place":4,"phase":1,"sequence":27,"prices":[193,181,175,181,185,165,224,199,218,184],"times":[528,384,357,399,335,397,598,575,455,1047],"next_num":10,"trial_type":"ticket-choose","trial_index":100,"time_elapsed":1177524,"internal_node_id":"0.0-100.0"},{"result":153,"points":3,"place":0,"phase":1,"sequence":28,"prices":[177,174,186,217,165,181,187,166,153,209],"times":[721,493,399,382,399,479,415,464,1127],"next_num":9,"trial_type":"ticket-choose","trial_index":101,"time_elapsed":1185675,"internal_node_id":"0.0-101.0"},{"result":153,"points":3,"place":0,"phase":1,"sequence":29,"prices":[176,186,178,217,163,181,187,166,153,209],"times":[777,359,350,520,503,488,422,471,1232],"next_num":9,"trial_type":"ticket-choose","trial_index":102,"time_elapsed":1194067,"internal_node_id":"0.0-102.0"},{"result":153,"points":3,"place":0,"phase":1,"sequence":30,"prices":[163,174,186,212,176,181,187,166,153,209],"times":[602,494,407,407,406,414,439,502,1080],"next_num":9,"trial_type":"ticket-choose","trial_index":103,"time_elapsed":1202148,"internal_node_id":"0.0-103.0"},{"result":153,"points":3,"place":0,"phase":1,"sequence":31,"prices":[176,175,186,210,163,179,187,166,153,208],"times":[754,294,326,447,326,502,487,614,1088],"next_num":9,"trial_type":"ticket-choose","trial_index":104,"time_elapsed":1210307,"internal_node_id":"0.0-104.0"},{"result":154,"points":3,"place":0,"phase":1,"sequence":32,"prices":[158,175,186,209,177,181,188,167,208,154],"times":[873,438,400,471,621,455,743,639,1191,1112],"next_num":10,"trial_type":"ticket-choose","trial_index":105,"time_elapsed":1220755,"internal_node_id":"0.0-105.0"},{"result":163,"points":3,"place":0,"phase":1,"sequence":33,"prices":[163,199,196,199,185,195,227,163,177,166],"times":[1225,334,343,423,406,407,344,1966],"next_num":8,"trial_type":"ticket-choose","trial_index":106,"time_elapsed":1230507,"internal_node_id":"0.0-106.0"},{"result":158,"points":2,"place":1,"phase":1,"sequence":34,"prices":[158,175,186,211,177,180,187,166,209,153],"times":[1314],"next_num":1,"trial_type":"ticket-choose","trial_index":107,"time_elapsed":1233724,"internal_node_id":"0.0-107.0"},{"result":157,"points":3,"place":0,"phase":1,"sequence":35,"prices":[191,170,182,165,175,182,203,157,195,200],"times":[1104,294,359,319,461,503,614,1047],"next_num":8,"trial_type":"ticket-choose","trial_index":108,"time_elapsed":1241539,"internal_node_id":"0.0-108.0"},{"result":156,"points":3,"place":0,"phase":1,"sequence":36,"prices":[167,174,186,211,178,181,188,168,208,156],"times":[584,286,447,302,310,343,455,487,494,1070],"next_num":10,"trial_type":"ticket-choose","trial_index":109,"time_elapsed":1250107,"internal_node_id":"0.0-109.0"},{"result":153,"points":3,"place":0,"phase":1,"sequence":37,"prices":[177,175,186,210,165,179,187,166,153,208],"times":[617,310,271,350,335,510,534,632,1024],"next_num":9,"trial_type":"ticket-choose","trial_index":110,"time_elapsed":1258116,"internal_node_id":"0.0-110.0"},{"result":160,"points":2,"place":1,"phase":1,"sequence":38,"prices":[173,163,185,181,166,148,160,185,176,184],"times":[616,318,327,254,368,311,2032],"next_num":7,"trial_type":"ticket-choose","trial_index":111,"time_elapsed":1266780,"internal_node_id":"0.0-111.0"},{"result":158,"points":2,"place":1,"phase":1,"sequence":39,"prices":[158,176,187,210,177,181,187,165,208,153],"times":[1169],"next_num":1,"trial_type":"ticket-choose","trial_index":112,"time_elapsed":1269707,"internal_node_id":"0.0-112.0"},{"result":154,"points":3,"place":0,"phase":1,"sequence":40,"prices":[165,175,187,209,177,180,188,167,154,208],"times":[960,222,383,352,390,415,327,696,1078],"next_num":9,"trial_type":"ticket-choose","trial_index":113,"time_elapsed":1277859,"internal_node_id":"0.0-113.0"},{"result":156,"points":3,"place":0,"phase":1,"sequence":41,"prices":[167,175,185,224,178,181,186,168,208,156],"times":[985,366,294,382,438,439,406,286,583,935],"next_num":10,"trial_type":"ticket-choose","trial_index":114,"time_elapsed":1286436,"internal_node_id":"0.0-114.0"},{"result":147,"points":3,"place":0,"phase":1,"sequence":42,"prices":[181,214,169,147,182,193,178,184,176,179],"times":[658,295,350,1175],"next_num":4,"trial_type":"ticket-choose","trial_index":115,"time_elapsed":1291563,"internal_node_id":"0.0-115.0"},{"result":153,"points":3,"place":0,"phase":1,"sequence":43,"prices":[165,174,186,212,177,181,187,166,153,209],"times":[631,382,478,456,471,486,448,879,1054],"next_num":9,"trial_type":"ticket-choose","trial_index":116,"time_elapsed":1300315,"internal_node_id":"0.0-116.0"},{"result":165,"points":1,"place":2,"phase":1,"sequence":44,"prices":[199,193,169,165,202,182,151,164,176,171],"times":[728,550,1342,1150],"next_num":4,"trial_type":"ticket-choose","trial_index":117,"time_elapsed":1306547,"internal_node_id":"0.0-117.0"},{"result":186,"points":1,"place":4,"phase":1,"sequence":45,"prices":[220,173,201,197,169,205,198,183,178,186],"times":[535,711,342,446,576,598,655,664,790,1008],"next_num":10,"trial_type":"ticket-choose","trial_index":118,"time_elapsed":1316636,"internal_node_id":"0.0-118.0"},{"result":157,"points":3,"place":0,"phase":1,"sequence":46,"prices":[201,187,157,184,198,179,188,185,178,170],"times":[617,447,1071],"next_num":3,"trial_type":"ticket-choose","trial_index":119,"time_elapsed":1320931,"internal_node_id":"0.0-119.0"},{"result":165,"points":3,"place":0,"phase":1,"sequence":47,"prices":[192,172,171,178,188,165,217,168,195,197],"times":[633,326,543,494,464,1024],"next_num":6,"trial_type":"ticket-choose","trial_index":120,"time_elapsed":1327364,"internal_node_id":"0.0-120.0"},{"result":148,"points":3,"place":0,"phase":1,"sequence":48,"prices":[171,169,186,165,163,167,220,148,187,165],"times":[696,446,543,654,1048,654,575,1095],"next_num":8,"trial_type":"ticket-choose","trial_index":121,"time_elapsed":1336268,"internal_node_id":"0.0-121.0"},{"result":161,"points":3,"place":0,"phase":1,"sequence":49,"prices":[193,174,224,165,187,190,224,161,194,195],"times":[570,1206,470,744,454,495,694,1358],"next_num":8,"trial_type":"ticket-choose","trial_index":122,"time_elapsed":1345931,"internal_node_id":"0.0-122.0"},{"responses":[{"value":0,"offby":-1,"category":"$115 - $130","category_index":0},{"value":0,"offby":-5,"category":"$131 - $145","category_index":1},{"value":5,"offby":-7,"category":"$146 - $160","category_index":2},{"value":20,"offby":-2,"category":"$161 - $175","category_index":3},{"value":50,"offby":16,"category":"$176 - $190","category_index":4},{"value":20,"offby":5,"category":"$191 - $205","category_index":5},{"value":5,"offby":-6,"category":"$206 - $220","category_index":6}],"phase":1,"number":1,"trial_type":"bar-choose","trial_index":123,"time_elapsed":1373573,"internal_node_id":"0.0-123.0"},{"special_comment":"no","trial_type":"special_sequence","trial_index":124,"time_elapsed":1380772,"internal_node_id":"0.0-124.0"},{"during":"Nothing","bonus":308,"trial_type":"final","trial_index":125,"time_elapsed":1412343,"internal_node_id":"0.0-125.0"}],"bonus":308}