{"start_time":"2017-05-24 12:17:36","end_time":"2017-05-24 12:45:26","points_phase0":110,"points_phase1":113,"phase_order":1,"age":25,"gender":"f","tries":1,"during":"Nothing","worker_id":"A3R457FAWQXZN3","assignment_id":"3IJXV6UZ1YCSF7BN03LCOPHBMIYIRE","data":[{"rt":4676,"url":"\/christiane\/tickets\/utils\/consent.html","trial_type":"html","trial_index":0,"time_elapsed":4786,"internal_node_id":"0.0-0.0"},{"age":25,"gender":"f","trial_type":"age","trial_index":1,"time_elapsed":11836,"internal_node_id":"0.0-1.0"},{"worker_id":"A3R457FAWQXZN3","trial_type":"workerid","trial_index":2,"time_elapsed":21978,"internal_node_id":"0.0-2.0"},{"tries":1,"trial_type":"instructions_check","trial_index":3,"time_elapsed":42288,"internal_node_id":"0.0-3.0"},{"rt":6636,"url":"\/christiane\/tickets\/utils\/start.html","trial_type":"html","trial_index":4,"time_elapsed":50047,"internal_node_id":"0.0-4.0"},{"trial_type":"number-animation","trial_index":5,"time_elapsed":70888,"internal_node_id":"0.0-5.0"},{"phase":0,"sequence":0,"avg":181,"response":170,"trial_type":"training_avg","trial_index":6,"time_elapsed":80983,"internal_node_id":"0.0-6.0"},{"trial_type":"number-animation","trial_index":7,"time_elapsed":129710,"internal_node_id":"0.0-7.0"},{"phase":0,"sequence":1,"avg":188,"response":188,"trial_type":"training_avg","trial_index":8,"time_elapsed":140722,"internal_node_id":"0.0-8.0"},{"trial_type":"number-animation","trial_index":9,"time_elapsed":179802,"internal_node_id":"0.0-9.0"},{"phase":0,"sequence":2,"avg":188,"response":188,"trial_type":"training_avg","trial_index":10,"time_elapsed":189594,"internal_node_id":"0.0-10.0"},{"trial_type":"number-animation","trial_index":11,"time_elapsed":234130,"internal_node_id":"0.0-11.0"},{"phase":0,"sequence":3,"avg":177,"response":165,"trial_type":"training_avg","trial_index":12,"time_elapsed":279451,"internal_node_id":"0.0-12.0"},{"trial_type":"number-animation","trial_index":13,"time_elapsed":318008,"internal_node_id":"0.0-13.0"},{"phase":0,"sequence":4,"avg":182,"response":182,"trial_type":"training_avg","trial_index":14,"time_elapsed":328097,"internal_node_id":"0.0-14.0"},{"responses":[{"value":0,"offby":-1,"category":"$115 - $130","category_index":0},{"value":0,"offby":-5,"category":"$131 - $145","category_index":1},{"value":0,"offby":-12,"category":"$146 - $160","category_index":2},{"value":12,"offby":-10,"category":"$161 - $175","category_index":3},{"value":60,"offby":26,"category":"$176 - $190","category_index":4},{"value":18,"offby":3,"category":"$191 - $205","category_index":5},{"value":10,"offby":-1,"category":"$206 - $220","category_index":6}],"phase":0,"number":0,"trial_type":"bar-choose","trial_index":15,"time_elapsed":420761,"internal_node_id":"0.0-15.0"},{"rt":144503,"url":"\/christiane\/tickets\/utils\/testing.html","trial_type":"html","trial_index":16,"time_elapsed":567438,"internal_node_id":"0.0-16.0"},{"phase":0,"order":[5,37,7,41,24,30,32,16,22,49,6,42,10,1,18,4,28,12,36,44,9,17,39,3,2,33,19,40,14,20,26,0,31,38,34,45,13,46,23,29,27,43,35,21,48,8,25,15,11,47],"trial_type":"store_order","trial_index":17,"time_elapsed":568440,"internal_node_id":"0.0-17.0"},{"result":165,"points":2,"place":1,"phase":0,"sequence":-1,"prices":[184,180,224,165,181,199,185,193,218,146],"times":[3431,10268,845,1607],"next_num":4,"trial_type":"ticket-choose","trial_index":18,"time_elapsed":587674,"internal_node_id":"0.0-18.0"},{"rt":22599,"url":"\/christiane\/tickets\/utils\/testing_after.html","trial_type":"html","trial_index":19,"time_elapsed":611402,"internal_node_id":"0.0-19.0"},{"result":165,"points":2,"place":1,"phase":0,"sequence":0,"prices":[177,175,186,210,165,179,187,166,153,208],"times":[1528,566,597,973,1374],"next_num":5,"trial_type":"ticket-choose","trial_index":20,"time_elapsed":619677,"internal_node_id":"0.0-20.0"},{"result":167,"points":2,"place":1,"phase":0,"sequence":1,"prices":[178,174,186,217,167,181,188,168,208,156],"times":[1863,648,651,606,1604],"next_num":5,"trial_type":"ticket-choose","trial_index":21,"time_elapsed":627997,"internal_node_id":"0.0-21.0"},{"result":152,"points":3,"place":0,"phase":0,"sequence":2,"prices":[200,180,203,152,175,170,160,154,176,191],"times":[960,767,677,1173],"next_num":4,"trial_type":"ticket-choose","trial_index":22,"time_elapsed":634543,"internal_node_id":"0.0-22.0"},{"result":165,"points":2,"place":1,"phase":0,"sequence":3,"prices":[165,175,187,209,177,180,188,167,154,208],"times":[1795],"next_num":1,"trial_type":"ticket-choose","trial_index":23,"time_elapsed":638366,"internal_node_id":"0.0-23.0"},{"result":163,"points":3,"place":0,"phase":0,"sequence":4,"prices":[163,199,196,199,185,195,227,163,177,166],"times":[1491],"next_num":1,"trial_type":"ticket-choose","trial_index":24,"time_elapsed":642054,"internal_node_id":"0.0-24.0"},{"result":158,"points":3,"place":0,"phase":0,"sequence":5,"prices":[214,184,226,192,215,158,199,175,176,208],"times":[770,581,720,877,886,1136],"next_num":6,"trial_type":"ticket-choose","trial_index":25,"time_elapsed":650231,"internal_node_id":"0.0-25.0"},{"result":169,"points":2,"place":1,"phase":0,"sequence":6,"prices":[181,214,169,147,182,193,178,184,176,179],"times":[1139,618,1332],"next_num":3,"trial_type":"ticket-choose","trial_index":26,"time_elapsed":655943,"internal_node_id":"0.0-26.0"},{"result":159,"points":1,"place":2,"phase":0,"sequence":7,"prices":[181,159,149,175,185,151,163,174,178,207],"times":[3811,949],"next_num":2,"trial_type":"ticket-choose","trial_index":27,"time_elapsed":663614,"internal_node_id":"0.0-27.0"},{"result":158,"points":2,"place":1,"phase":0,"sequence":8,"prices":[177,176,187,225,158,181,187,165,208,153],"times":[2119,1679,693,638,1543],"next_num":5,"trial_type":"ticket-choose","trial_index":28,"time_elapsed":673255,"internal_node_id":"0.0-28.0"},{"result":165,"points":1,"place":2,"phase":0,"sequence":9,"prices":[171,169,186,165,163,167,220,148,187,165],"times":[1396,1134,758,1572],"next_num":4,"trial_type":"ticket-choose","trial_index":29,"time_elapsed":681300,"internal_node_id":"0.0-29.0"},{"result":165,"points":3,"place":0,"phase":0,"sequence":10,"prices":[193,181,175,181,185,165,224,199,218,184],"times":[842,939,893,734,973,1245],"next_num":6,"trial_type":"ticket-choose","trial_index":30,"time_elapsed":690412,"internal_node_id":"0.0-30.0"},{"result":165,"points":2,"place":1,"phase":0,"sequence":11,"prices":[183,179,188,165,168,173,205,159,187,191],"times":[1003,1159,790,4413],"next_num":4,"trial_type":"ticket-choose","trial_index":31,"time_elapsed":700594,"internal_node_id":"0.0-31.0"},{"result":165,"points":3,"place":0,"phase":0,"sequence":12,"prices":[189,167,180,197,165,168,172,213,178,171],"times":[1049,1232,566,629,1140],"next_num":5,"trial_type":"ticket-choose","trial_index":32,"time_elapsed":708252,"internal_node_id":"0.0-32.0"},{"result":165,"points":2,"place":1,"phase":0,"sequence":13,"prices":[165,174,186,212,177,181,187,166,153,209],"times":[4938],"next_num":1,"trial_type":"ticket-choose","trial_index":33,"time_elapsed":715276,"internal_node_id":"0.0-33.0"},{"result":156,"points":2,"place":1,"phase":0,"sequence":14,"prices":[180,156,149,160,168,186,172,198,176,195],"times":[1115,1712],"next_num":2,"trial_type":"ticket-choose","trial_index":34,"time_elapsed":720188,"internal_node_id":"0.0-34.0"},{"result":165,"points":1,"place":2,"phase":0,"sequence":15,"prices":[200,173,182,169,207,165,152,202,161,204],"times":[974,809,748,1903,579,1070],"next_num":6,"trial_type":"ticket-choose","trial_index":35,"time_elapsed":729640,"internal_node_id":"0.0-35.0"},{"result":166,"points":1,"place":3,"phase":0,"sequence":16,"prices":[201,204,179,166,185,165,214,156,202,165],"times":[787,512,893,1136],"next_num":4,"trial_type":"ticket-choose","trial_index":36,"time_elapsed":736201,"internal_node_id":"0.0-36.0"},{"result":163,"points":2,"place":1,"phase":0,"sequence":17,"prices":[176,186,178,217,163,181,187,166,153,209],"times":[2055,864,678,677,1238],"next_num":5,"trial_type":"ticket-choose","trial_index":37,"time_elapsed":744521,"internal_node_id":"0.0-37.0"},{"result":169,"points":3,"place":0,"phase":0,"sequence":18,"prices":[220,173,201,197,169,205,198,183,178,186],"times":[709,758,558,829,2942],"next_num":5,"trial_type":"ticket-choose","trial_index":38,"time_elapsed":753373,"internal_node_id":"0.0-38.0"},{"result":163,"points":2,"place":1,"phase":0,"sequence":19,"prices":[163,175,187,209,176,180,188,165,154,208],"times":[1260],"next_num":1,"trial_type":"ticket-choose","trial_index":39,"time_elapsed":756833,"internal_node_id":"0.0-39.0"},{"result":163,"points":2,"place":1,"phase":0,"sequence":20,"prices":[163,175,186,214,176,179,187,166,153,208],"times":[3800],"next_num":1,"trial_type":"ticket-choose","trial_index":40,"time_elapsed":762728,"internal_node_id":"0.0-40.0"},{"result":165,"points":3,"place":0,"phase":0,"sequence":21,"prices":[192,172,171,178,188,165,217,168,195,197],"times":[833,531,731,694,837,1920],"next_num":6,"trial_type":"ticket-choose","trial_index":41,"time_elapsed":771265,"internal_node_id":"0.0-41.0"},{"result":163,"points":1,"place":2,"phase":0,"sequence":22,"prices":[173,163,185,181,166,148,160,185,176,184],"times":[4273,1030],"next_num":2,"trial_type":"ticket-choose","trial_index":42,"time_elapsed":779016,"internal_node_id":"0.0-42.0"},{"result":165,"points":2,"place":1,"phase":0,"sequence":23,"prices":[193,174,224,165,187,190,224,161,194,195],"times":[1005,630,711,1023],"next_num":4,"trial_type":"ticket-choose","trial_index":43,"time_elapsed":785337,"internal_node_id":"0.0-43.0"},{"result":163,"points":2,"place":1,"phase":0,"sequence":24,"prices":[176,175,186,210,163,179,187,166,153,208],"times":[763,591,709,645,1029],"next_num":5,"trial_type":"ticket-choose","trial_index":44,"time_elapsed":792057,"internal_node_id":"0.0-44.0"},{"result":158,"points":2,"place":1,"phase":0,"sequence":25,"prices":[158,176,187,210,177,181,187,165,208,153],"times":[2172],"next_num":1,"trial_type":"ticket-choose","trial_index":45,"time_elapsed":796207,"internal_node_id":"0.0-45.0"},{"result":153,"points":2,"place":1,"phase":0,"sequence":26,"prices":[167,153,172,185,195,143,184,211,177,227],"times":[1028,1287],"next_num":2,"trial_type":"ticket-choose","trial_index":46,"time_elapsed":800612,"internal_node_id":"0.0-46.0"},{"result":166,"points":1,"place":2,"phase":0,"sequence":27,"prices":[163,174,186,212,176,181,187,166,153,209],"times":[736,548,549,606,901,637,583,1189],"next_num":8,"trial_type":"ticket-choose","trial_index":47,"time_elapsed":809828,"internal_node_id":"0.0-47.0"},{"result":150,"points":3,"place":0,"phase":0,"sequence":28,"prices":[190,150,175,161,188,207,157,194,178,199],"times":[732,990],"next_num":2,"trial_type":"ticket-choose","trial_index":48,"time_elapsed":813596,"internal_node_id":"0.0-48.0"},{"result":157,"points":3,"place":0,"phase":0,"sequence":29,"prices":[201,187,157,184,198,179,188,185,178,170],"times":[810,782,854],"next_num":3,"trial_type":"ticket-choose","trial_index":49,"time_elapsed":818541,"internal_node_id":"0.0-49.0"},{"result":153,"points":3,"place":0,"phase":0,"sequence":30,"prices":[167,175,186,225,178,179,187,169,209,153],"times":[1040,629,591,583,557,654,661,2118,565,708],"next_num":10,"trial_type":"ticket-choose","trial_index":50,"time_elapsed":835181,"internal_node_id":"0.0-50.0"},{"result":165,"points":2,"place":1,"phase":0,"sequence":31,"prices":[191,170,182,165,175,182,203,157,195,200],"times":[1053,878,591,1047],"next_num":4,"trial_type":"ticket-choose","trial_index":51,"time_elapsed":841309,"internal_node_id":"0.0-51.0"},{"result":156,"points":3,"place":0,"phase":0,"sequence":32,"prices":[167,175,185,224,178,181,186,168,208,156],"times":[1175,583,517,598,550,573,606,2213,552,711],"next_num":10,"trial_type":"ticket-choose","trial_index":52,"time_elapsed":853148,"internal_node_id":"0.0-52.0"},{"result":165,"points":2,"place":1,"phase":0,"sequence":33,"prices":[177,175,187,209,165,180,188,165,154,208],"times":[5013,582,590,655,1029,589,541,1758],"next_num":8,"trial_type":"ticket-choose","trial_index":53,"time_elapsed":867194,"internal_node_id":"0.0-53.0"},{"result":165,"points":1,"place":2,"phase":0,"sequence":34,"prices":[185,179,191,165,161,173,199,150,188,168],"times":[18007,753,558,1444],"next_num":4,"trial_type":"ticket-choose","trial_index":54,"time_elapsed":890603,"internal_node_id":"0.0-54.0"},{"result":153,"points":3,"place":0,"phase":0,"sequence":35,"prices":[165,175,186,214,177,179,187,166,153,208],"times":[1094,507,510,550,534,582,564,1536,1029],"next_num":9,"trial_type":"ticket-choose","trial_index":55,"time_elapsed":900937,"internal_node_id":"0.0-55.0"},{"result":156,"points":3,"place":0,"phase":0,"sequence":36,"prices":[167,174,186,211,178,181,188,168,208,156],"times":[4737,524,462,518,637,524,686,941,588,778],"next_num":10,"trial_type":"ticket-choose","trial_index":56,"time_elapsed":915222,"internal_node_id":"0.0-56.0"},{"result":165,"points":2,"place":1,"phase":0,"sequence":37,"prices":[187,201,165,172,196,174,178,154,172,180],"times":[672,541,1535],"next_num":3,"trial_type":"ticket-choose","trial_index":57,"time_elapsed":920318,"internal_node_id":"0.0-57.0"},{"result":167,"points":2,"place":1,"phase":0,"sequence":38,"prices":[199,191,188,174,167,193,189,164,176,170],"times":[622,679,604,702,3550],"next_num":5,"trial_type":"ticket-choose","trial_index":58,"time_elapsed":929231,"internal_node_id":"0.0-58.0"},{"result":153,"points":3,"place":0,"phase":0,"sequence":39,"prices":[177,174,186,217,165,181,187,166,153,209],"times":[618,490,678,661,965,582,549,510,780],"next_num":9,"trial_type":"ticket-choose","trial_index":59,"time_elapsed":944301,"internal_node_id":"0.0-59.0"},{"result":163,"points":2,"place":1,"phase":0,"sequence":40,"prices":[176,187,179,209,163,180,188,165,154,208],"times":[1640,510,573,624,1620],"next_num":5,"trial_type":"ticket-choose","trial_index":60,"time_elapsed":952030,"internal_node_id":"0.0-60.0"},{"result":155,"points":2,"place":1,"phase":0,"sequence":41,"prices":[200,207,155,158,156,168,167,135,178,177],"times":[1568,461,1101],"next_num":3,"trial_type":"ticket-choose","trial_index":61,"time_elapsed":957495,"internal_node_id":"0.0-61.0"},{"result":158,"points":2,"place":1,"phase":0,"sequence":42,"prices":[177,175,186,221,158,180,187,166,209,153],"times":[628,611,677,638,1023],"next_num":5,"trial_type":"ticket-choose","trial_index":62,"time_elapsed":963718,"internal_node_id":"0.0-62.0"},{"result":158,"points":2,"place":1,"phase":0,"sequence":43,"prices":[177,175,186,209,158,181,188,167,208,154],"times":[716,621,661,781,910],"next_num":5,"trial_type":"ticket-choose","trial_index":63,"time_elapsed":970070,"internal_node_id":"0.0-63.0"},{"result":151,"points":3,"place":0,"phase":0,"sequence":44,"prices":[199,193,169,165,202,182,151,164,176,171],"times":[985,567,709,710,842,655,1165],"next_num":7,"trial_type":"ticket-choose","trial_index":64,"time_elapsed":979114,"internal_node_id":"0.0-64.0"},{"result":158,"points":2,"place":1,"phase":0,"sequence":45,"prices":[158,175,186,211,177,180,187,166,209,153],"times":[5505],"next_num":1,"trial_type":"ticket-choose","trial_index":65,"time_elapsed":986659,"internal_node_id":"0.0-65.0"},{"result":165,"points":3,"place":0,"phase":0,"sequence":46,"prices":[196,171,170,184,187,165,211,169,201,202],"times":[1399,725,566,654,562,3379],"next_num":6,"trial_type":"ticket-choose","trial_index":66,"time_elapsed":997644,"internal_node_id":"0.0-66.0"},{"result":167,"points":2,"place":1,"phase":0,"sequence":47,"prices":[178,175,185,215,167,181,186,168,208,156],"times":[784,543,517,918,958],"next_num":5,"trial_type":"ticket-choose","trial_index":67,"time_elapsed":1004411,"internal_node_id":"0.0-67.0"},{"result":158,"points":2,"place":1,"phase":0,"sequence":48,"prices":[158,175,186,209,177,181,188,167,208,154],"times":[1501],"next_num":1,"trial_type":"ticket-choose","trial_index":68,"time_elapsed":1007835,"internal_node_id":"0.0-68.0"},{"result":153,"points":3,"place":0,"phase":0,"sequence":49,"prices":[178,175,186,212,167,179,187,169,209,153],"times":[1584,613,639,619,830,614,638,1013,638,774],"next_num":10,"trial_type":"ticket-choose","trial_index":69,"time_elapsed":1019835,"internal_node_id":"0.0-69.0"},{"responses":[{"value":2,"offby":1,"category":"$115 - $130","category_index":0},{"value":10,"offby":5,"category":"$131 - $145","category_index":1},{"value":22,"offby":10,"category":"$146 - $160","category_index":2},{"value":32,"offby":10,"category":"$161 - $175","category_index":3},{"value":22,"offby":-12,"category":"$176 - $190","category_index":4},{"value":10,"offby":-5,"category":"$191 - $205","category_index":5},{"value":2,"offby":-9,"category":"$206 - $220","category_index":6}],"phase":1,"number":1,"trial_type":"bar-choose","trial_index":70,"time_elapsed":1071643,"internal_node_id":"0.0-70.0"},{"rt":28468,"url":"\/christiane\/tickets\/utils\/testing2.html","trial_type":"point_update","trial_index":71,"time_elapsed":1101389,"internal_node_id":"0.0-71.0"},{"phase":1,"order":[9,3,47,7,38,46,48,44,23,31,24,33,39,8,34,26,25,17,42,13,12,27,49,32,15,20,35,14,40,43,2,30,1,10,29,6,0,36,45,11,16,41,21,22,37,18,28,4,19,5],"trial_type":"store_order","trial_index":72,"time_elapsed":1102392,"internal_node_id":"0.0-72.0"},{"result":167,"points":2,"place":1,"phase":1,"sequence":0,"prices":[175,186,178,212,179,187,167,169,209,153],"times":[1040,532,606,948,905,651,1191],"next_num":7,"trial_type":"ticket-choose","trial_index":73,"time_elapsed":1111404,"internal_node_id":"0.0-73.0"},{"result":163,"points":2,"place":1,"phase":1,"sequence":1,"prices":[198,193,169,163,202,182,152,164,177,171],"times":[1263,567,1054,1021],"next_num":4,"trial_type":"ticket-choose","trial_index":74,"time_elapsed":1117764,"internal_node_id":"0.0-74.0"},{"result":166,"points":1,"place":2,"phase":1,"sequence":2,"prices":[175,187,165,209,180,188,177,166,154,208],"times":[700,526,1126,519,557,589,558,2838],"next_num":8,"trial_type":"ticket-choose","trial_index":75,"time_elapsed":1128636,"internal_node_id":"0.0-75.0"},{"result":155,"points":2,"place":1,"phase":1,"sequence":3,"prices":[201,207,155,158,156,165,167,135,178,177],"times":[657,514,973],"next_num":3,"trial_type":"ticket-choose","trial_index":76,"time_elapsed":1133083,"internal_node_id":"0.0-76.0"},{"result":184,"points":1,"place":4,"phase":1,"sequence":4,"prices":[193,165,175,181,185,224,180,199,218,184],"times":[849,1310,524,566,699,710,790,621,606,798],"next_num":10,"trial_type":"ticket-choose","trial_index":77,"time_elapsed":1144572,"internal_node_id":"0.0-77.0"},{"result":165,"points":3,"place":0,"phase":1,"sequence":5,"prices":[191,172,169,175,182,203,170,195,165,176],"times":[801,564,671,573,670,870,518,630,1041],"next_num":9,"trial_type":"ticket-choose","trial_index":78,"time_elapsed":1154607,"internal_node_id":"0.0-78.0"},{"result":165,"points":3,"place":0,"phase":1,"sequence":6,"prices":[193,169,171,187,190,224,174,194,165,188],"times":[10501,923,646,982,608,541,662,685,1165],"next_num":9,"trial_type":"ticket-choose","trial_index":79,"time_elapsed":1175129,"internal_node_id":"0.0-79.0"},{"result":163,"points":2,"place":1,"phase":1,"sequence":7,"prices":[175,187,176,209,180,188,163,165,154,208],"times":[1453,555,564,790,551,549,909],"next_num":7,"trial_type":"ticket-choose","trial_index":80,"time_elapsed":1183647,"internal_node_id":"0.0-80.0"},{"result":158,"points":2,"place":1,"phase":1,"sequence":8,"prices":[175,186,177,209,181,188,158,167,208,154],"times":[1112,934,663,580,656,709,1207],"next_num":7,"trial_type":"ticket-choose","trial_index":81,"time_elapsed":1192752,"internal_node_id":"0.0-81.0"},{"result":163,"points":1,"place":2,"phase":1,"sequence":9,"prices":[183,163,185,180,166,148,160,186,176,184],"times":[706,1532],"next_num":2,"trial_type":"ticket-choose","trial_index":82,"time_elapsed":1196880,"internal_node_id":"0.0-82.0"},{"result":165,"points":2,"place":1,"phase":1,"sequence":10,"prices":[175,186,165,214,179,187,177,166,153,208],"times":[619,543,1054],"next_num":3,"trial_type":"ticket-choose","trial_index":83,"time_elapsed":1201423,"internal_node_id":"0.0-83.0"},{"result":143,"points":3,"place":0,"phase":1,"sequence":11,"prices":[222,173,202,197,143,205,198,183,178,186],"times":[620,639,621,582,1085],"next_num":5,"trial_type":"ticket-choose","trial_index":84,"time_elapsed":1207681,"internal_node_id":"0.0-84.0"},{"result":165,"points":2,"place":1,"phase":1,"sequence":12,"prices":[175,187,177,209,180,188,165,165,154,208],"times":[619,909,616,693,726,813,1069],"next_num":7,"trial_type":"ticket-choose","trial_index":85,"time_elapsed":1216260,"internal_node_id":"0.0-85.0"},{"result":156,"points":3,"place":0,"phase":1,"sequence":13,"prices":[175,185,167,224,181,186,178,168,208,156],"times":[1987,542,1548,447,580,618,566,1046,662,824],"next_num":10,"trial_type":"ticket-choose","trial_index":86,"time_elapsed":1228862,"internal_node_id":"0.0-86.0"},{"result":158,"points":2,"place":1,"phase":1,"sequence":14,"prices":[175,186,158,211,180,187,177,166,209,153],"times":[944,575,1164],"next_num":3,"trial_type":"ticket-choose","trial_index":87,"time_elapsed":1233982,"internal_node_id":"0.0-87.0"},{"result":156,"points":3,"place":0,"phase":1,"sequence":15,"prices":[175,185,178,215,181,186,167,168,208,156],"times":[976,710,659,717,806,669,1305,1009,638,926],"next_num":10,"trial_type":"ticket-choose","trial_index":88,"time_elapsed":1246174,"internal_node_id":"0.0-88.0"},{"result":165,"points":3,"place":0,"phase":1,"sequence":16,"prices":[196,165,170,184,187,211,171,201,202,185],"times":[14448,2430],"next_num":2,"trial_type":"ticket-choose","trial_index":89,"time_elapsed":1265910,"internal_node_id":"0.0-89.0"},{"result":163,"points":2,"place":1,"phase":1,"sequence":17,"prices":[175,186,163,214,179,187,176,166,153,208],"times":[2551,605,1238],"next_num":3,"trial_type":"ticket-choose","trial_index":90,"time_elapsed":1283367,"internal_node_id":"0.0-90.0"},{"result":165,"points":2,"place":1,"phase":1,"sequence":18,"prices":[188,200,165,172,198,174,177,154,177,180],"times":[1052,628,1062],"next_num":3,"trial_type":"ticket-choose","trial_index":91,"time_elapsed":1288518,"internal_node_id":"0.0-91.0"},{"result":159,"points":1,"place":2,"phase":1,"sequence":19,"prices":[180,159,149,175,185,141,163,174,178,207],"times":[763,998],"next_num":2,"trial_type":"ticket-choose","trial_index":92,"time_elapsed":1292341,"internal_node_id":"0.0-92.0"},{"result":165,"points":2,"place":1,"phase":1,"sequence":20,"prices":[175,186,177,210,179,187,165,166,153,208],"times":[648,549,608,627,542,590,3102],"next_num":7,"trial_type":"ticket-choose","trial_index":93,"time_elapsed":1302135,"internal_node_id":"0.0-93.0"},{"result":163,"points":2,"place":1,"phase":1,"sequence":21,"prices":[174,186,176,217,181,187,163,166,153,209],"times":[568,485,502,503,573,525,1349],"next_num":7,"trial_type":"ticket-choose","trial_index":94,"time_elapsed":1309862,"internal_node_id":"0.0-94.0"},{"result":165,"points":3,"place":0,"phase":1,"sequence":22,"prices":[189,167,180,197,165,168,172,213,178,171],"times":[1200,1508,591,631,1764],"next_num":5,"trial_type":"ticket-choose","trial_index":95,"time_elapsed":1318622,"internal_node_id":"0.0-95.0"},{"result":156,"points":3,"place":0,"phase":1,"sequence":23,"prices":[174,186,178,217,181,188,167,168,208,156],"times":[758,549,678,582,606,566,1909,830,919,774],"next_num":10,"trial_type":"ticket-choose","trial_index":96,"time_elapsed":1330710,"internal_node_id":"0.0-96.0"},{"result":153,"points":3,"place":0,"phase":1,"sequence":24,"prices":[175,186,167,225,179,187,178,169,209,153],"times":[1991,636,1239,589,1245,1366,686,972,646,702],"next_num":10,"trial_type":"ticket-choose","trial_index":97,"time_elapsed":1344711,"internal_node_id":"0.0-97.0"},{"result":170,"points":1,"place":3,"phase":1,"sequence":25,"prices":[183,182,192,168,173,205,167,187,165,170],"times":[735,438,390,354,711,571,711,732,677,751],"next_num":10,"trial_type":"ticket-choose","trial_index":98,"time_elapsed":1354415,"internal_node_id":"0.0-98.0"},{"result":158,"points":2,"place":1,"phase":1,"sequence":26,"prices":[175,186,158,209,181,188,177,167,208,154],"times":[774,510,910],"next_num":3,"trial_type":"ticket-choose","trial_index":99,"time_elapsed":1358847,"internal_node_id":"0.0-99.0"},{"result":150,"points":3,"place":0,"phase":1,"sequence":27,"prices":[189,150,175,160,188,207,158,194,178,199],"times":[628,935],"next_num":2,"trial_type":"ticket-choose","trial_index":100,"time_elapsed":1362479,"internal_node_id":"0.0-100.0"},{"result":163,"points":2,"place":1,"phase":1,"sequence":28,"prices":[174,186,163,212,181,187,176,166,153,209],"times":[1309,613,1525],"next_num":3,"trial_type":"ticket-choose","trial_index":101,"time_elapsed":1368222,"internal_node_id":"0.0-101.0"},{"result":165,"points":1,"place":2,"phase":1,"sequence":29,"prices":[176,187,158,210,181,187,177,165,208,153],"times":[669,502,549,1046,613,526,598,1109],"next_num":8,"trial_type":"ticket-choose","trial_index":102,"time_elapsed":1377119,"internal_node_id":"0.0-102.0"},{"result":161,"points":3,"place":0,"phase":1,"sequence":30,"prices":[200,165,165,173,182,207,161,202,204,180],"times":[1002,1533,2742,757,775,671,1068],"next_num":7,"trial_type":"ticket-choose","trial_index":103,"time_elapsed":1388879,"internal_node_id":"0.0-103.0"},{"result":156,"points":3,"place":0,"phase":1,"sequence":31,"prices":[174,186,167,211,181,188,178,168,208,156],"times":[1408,632,1022,572,646,565,798,1189,559,998],"next_num":10,"trial_type":"ticket-choose","trial_index":104,"time_elapsed":1400848,"internal_node_id":"0.0-104.0"},{"result":165,"points":3,"place":0,"phase":1,"sequence":32,"prices":[171,203,175,170,167,220,192,186,165,165],"times":[1326,1244,821,525,1001,614,667,719,3103,623],"next_num":10,"trial_type":"ticket-choose","trial_index":105,"time_elapsed":1416230,"internal_node_id":"0.0-105.0"},{"result":163,"points":3,"place":0,"phase":1,"sequence":33,"prices":[168,199,196,198,185,195,227,163,177,166],"times":[1805,526,503,524,567,622,717,2623],"next_num":8,"trial_type":"ticket-choose","trial_index":106,"time_elapsed":1427662,"internal_node_id":"0.0-106.0"},{"result":155,"points":2,"place":1,"phase":1,"sequence":34,"prices":[181,155,148,161,168,187,172,199,176,194],"times":[1395,870],"next_num":2,"trial_type":"ticket-choose","trial_index":107,"time_elapsed":1431927,"internal_node_id":"0.0-107.0"},{"result":170,"points":1,"place":2,"phase":1,"sequence":35,"prices":[212,192,188,184,167,193,189,164,176,170],"times":[935,567,534,543,1068,824,581,1982,463,631],"next_num":10,"trial_type":"ticket-choose","trial_index":108,"time_elapsed":1443743,"internal_node_id":"0.0-108.0"},{"result":163,"points":2,"place":1,"phase":1,"sequence":36,"prices":[175,187,163,209,180,188,176,165,154,208],"times":[758,768,1014],"next_num":3,"trial_type":"ticket-choose","trial_index":109,"time_elapsed":1448551,"internal_node_id":"0.0-109.0"},{"result":158,"points":3,"place":0,"phase":1,"sequence":37,"prices":[210,184,226,193,215,158,199,175,176,208],"times":[727,726,637,567,597,1076],"next_num":6,"trial_type":"ticket-choose","trial_index":110,"time_elapsed":1455775,"internal_node_id":"0.0-110.0"},{"result":158,"points":2,"place":1,"phase":1,"sequence":38,"prices":[176,187,177,225,181,187,158,165,208,153],"times":[970,926,526,596,643,594,1093],"next_num":7,"trial_type":"ticket-choose","trial_index":111,"time_elapsed":1464368,"internal_node_id":"0.0-111.0"},{"result":168,"points":2,"place":1,"phase":1,"sequence":39,"prices":[185,170,182,201,173,199,171,188,165,168],"times":[859,616,517,669,613,638,830,606,1697,517],"next_num":10,"trial_type":"ticket-choose","trial_index":112,"time_elapsed":1475641,"internal_node_id":"0.0-112.0"},{"result":186,"points":1,"place":4,"phase":1,"sequence":40,"prices":[192,165,171,178,188,217,172,195,197,186],"times":[1056,2390,501,565,574,647,614,926,682,947],"next_num":10,"trial_type":"ticket-choose","trial_index":113,"time_elapsed":1488565,"internal_node_id":"0.0-113.0"},{"result":157,"points":3,"place":0,"phase":1,"sequence":41,"prices":[201,187,157,184,198,179,188,185,178,170],"times":[684,624,1047],"next_num":3,"trial_type":"ticket-choose","trial_index":114,"time_elapsed":1493145,"internal_node_id":"0.0-114.0"},{"result":154,"points":2,"place":1,"phase":1,"sequence":42,"prices":[168,154,172,185,195,144,184,211,177,227],"times":[1385,973],"next_num":2,"trial_type":"ticket-choose","trial_index":115,"time_elapsed":1497609,"internal_node_id":"0.0-115.0"},{"result":158,"points":2,"place":1,"phase":1,"sequence":43,"prices":[175,186,177,221,180,187,158,166,209,153],"times":[1215,677,644,668,711,590,981],"next_num":7,"trial_type":"ticket-choose","trial_index":116,"time_elapsed":1506241,"internal_node_id":"0.0-116.0"},{"result":147,"points":3,"place":0,"phase":1,"sequence":44,"prices":[181,215,169,147,182,193,177,184,176,179],"times":[1383,582,1335,1070],"next_num":4,"trial_type":"ticket-choose","trial_index":117,"time_elapsed":1513273,"internal_node_id":"0.0-117.0"},{"result":153,"points":3,"place":0,"phase":1,"sequence":45,"prices":[174,186,165,212,181,187,177,167,153,209],"times":[1160,758,2165,574,590,534,598,910,1031],"next_num":9,"trial_type":"ticket-choose","trial_index":118,"time_elapsed":1525389,"internal_node_id":"0.0-118.0"},{"result":162,"points":3,"place":0,"phase":1,"sequence":46,"prices":[201,165,162,166,185,214,165,202,204,179],"times":[1301,1629,1189],"next_num":3,"trial_type":"ticket-choose","trial_index":119,"time_elapsed":1532061,"internal_node_id":"0.0-119.0"},{"result":163,"points":2,"place":1,"phase":1,"sequence":47,"prices":[175,186,176,210,179,187,163,166,153,208],"times":[1077,535,478,614,612,565,1350],"next_num":7,"trial_type":"ticket-choose","trial_index":120,"time_elapsed":1540477,"internal_node_id":"0.0-120.0"},{"result":153,"points":3,"place":0,"phase":1,"sequence":48,"prices":[174,186,177,217,181,187,165,166,153,209],"times":[793,575,550,652,668,553,3951,675,1126],"next_num":9,"trial_type":"ticket-choose","trial_index":121,"time_elapsed":1553618,"internal_node_id":"0.0-121.0"},{"result":152,"points":3,"place":0,"phase":1,"sequence":49,"prices":[200,181,203,152,175,171,160,154,176,191],"times":[987,647,671,966],"next_num":4,"trial_type":"ticket-choose","trial_index":122,"time_elapsed":1559510,"internal_node_id":"0.0-122.0"},{"responses":[{"value":1,"offby":0,"category":"$115 - $130","category_index":0},{"value":4,"offby":-1,"category":"$131 - $145","category_index":1},{"value":15,"offby":3,"category":"$146 - $160","category_index":2},{"value":20,"offby":-2,"category":"$161 - $175","category_index":3},{"value":28,"offby":-6,"category":"$176 - $190","category_index":4},{"value":25,"offby":10,"category":"$191 - $205","category_index":5},{"value":6,"offby":-5,"category":"$206 - $220","category_index":6}],"phase":1,"number":1,"trial_type":"bar-choose","trial_index":123,"time_elapsed":1629541,"internal_node_id":"0.0-123.0"},{"special_comment":"Nothing in particular. ","trial_type":"special_sequence","trial_index":124,"time_elapsed":1640322,"internal_node_id":"0.0-124.0"},{"during":"Nothing","bonus":296,"trial_type":"final","trial_index":125,"time_elapsed":1667197,"internal_node_id":"0.0-125.0"}],"bonus":296}