{"start_time":"2017-05-24 16:07:03","end_time":"2017-05-24 16:34:55","points_phase0":104,"points_phase1":111,"phase_order":1,"age":54,"gender":"f","tries":1,"during":"Other","worker_id":"A40LU73SS18IW","assignment_id":"3YMTUJH0DT9BNFP0J3O3U38A5MB4TH","data":[{"rt":24721,"url":"\/christiane\/tickets\/utils\/consent.html","trial_type":"html","trial_index":0,"time_elapsed":24883,"internal_node_id":"0.0-0.0"},{"age":54,"gender":"f","trial_type":"age","trial_index":1,"time_elapsed":30377,"internal_node_id":"0.0-1.0"},{"worker_id":"A40LU73SS18IW","trial_type":"workerid","trial_index":2,"time_elapsed":39353,"internal_node_id":"0.0-2.0"},{"tries":1,"trial_type":"instructions_check","trial_index":3,"time_elapsed":117049,"internal_node_id":"0.0-3.0"},{"rt":15658,"url":"\/christiane\/tickets\/utils\/start.html","trial_type":"html","trial_index":4,"time_elapsed":133859,"internal_node_id":"0.0-4.0"},{"trial_type":"number-animation","trial_index":5,"time_elapsed":167328,"internal_node_id":"0.0-5.0"},{"phase":0,"sequence":0,"avg":181,"response":170,"trial_type":"training_avg","trial_index":6,"time_elapsed":180033,"internal_node_id":"0.0-6.0"},{"trial_type":"number-animation","trial_index":7,"time_elapsed":207063,"internal_node_id":"0.0-7.0"},{"phase":0,"sequence":1,"avg":188,"response":180,"trial_type":"training_avg","trial_index":8,"time_elapsed":218094,"internal_node_id":"0.0-8.0"},{"trial_type":"number-animation","trial_index":9,"time_elapsed":243524,"internal_node_id":"0.0-9.0"},{"phase":0,"sequence":2,"avg":188,"response":185,"trial_type":"training_avg","trial_index":10,"time_elapsed":252336,"internal_node_id":"0.0-10.0"},{"trial_type":"number-animation","trial_index":11,"time_elapsed":279560,"internal_node_id":"0.0-11.0"},{"phase":0,"sequence":3,"avg":177,"response":170,"trial_type":"training_avg","trial_index":12,"time_elapsed":287209,"internal_node_id":"0.0-12.0"},{"trial_type":"number-animation","trial_index":13,"time_elapsed":313264,"internal_node_id":"0.0-13.0"},{"phase":0,"sequence":4,"avg":182,"response":180,"trial_type":"training_avg","trial_index":14,"time_elapsed":322770,"internal_node_id":"0.0-14.0"},{"responses":[{"value":0,"offby":-1,"category":"$115 - $130","category_index":0},{"value":0,"offby":-5,"category":"$131 - $145","category_index":1},{"value":5,"offby":-7,"category":"$146 - $160","category_index":2},{"value":25,"offby":3,"category":"$161 - $175","category_index":3},{"value":40,"offby":6,"category":"$176 - $190","category_index":4},{"value":20,"offby":5,"category":"$191 - $205","category_index":5},{"value":10,"offby":-1,"category":"$206 - $220","category_index":6}],"phase":0,"number":0,"trial_type":"bar-choose","trial_index":15,"time_elapsed":414707,"internal_node_id":"0.0-15.0"},{"rt":18121,"url":"\/christiane\/tickets\/utils\/testing.html","trial_type":"html","trial_index":16,"time_elapsed":433976,"internal_node_id":"0.0-16.0"},{"phase":0,"order":[19,9,22,35,31,29,21,8,33,34,16,40,1,43,23,15,11,0,5,25,20,38,36,48,24,14,13,27,39,46,47,3,7,30,10,17,4,42,26,28,18,41,12,45,37,6,49,44,2,32],"trial_type":"store_order","trial_index":17,"time_elapsed":434977,"internal_node_id":"0.0-17.0"},{"result":165,"points":2,"place":1,"phase":0,"sequence":-1,"prices":[184,180,224,165,181,199,185,193,218,146],"times":[3400,1600,1375,2102],"next_num":4,"trial_type":"ticket-choose","trial_index":18,"time_elapsed":448328,"internal_node_id":"0.0-18.0"},{"rt":38179,"url":"\/christiane\/tickets\/utils\/testing_after.html","trial_type":"html","trial_index":19,"time_elapsed":487678,"internal_node_id":"0.0-19.0"},{"result":165,"points":3,"place":0,"phase":0,"sequence":0,"prices":[189,167,180,197,165,168,172,213,178,171],"times":[1885,2366,1023,900,4968],"next_num":5,"trial_type":"ticket-choose","trial_index":20,"time_elapsed":503446,"internal_node_id":"0.0-20.0"},{"result":150,"points":3,"place":0,"phase":0,"sequence":1,"prices":[190,150,175,161,188,207,157,194,178,199],"times":[643,1731],"next_num":2,"trial_type":"ticket-choose","trial_index":21,"time_elapsed":508509,"internal_node_id":"0.0-21.0"},{"result":158,"points":2,"place":1,"phase":0,"sequence":2,"prices":[177,175,186,221,158,180,187,166,209,153],"times":[750,870,622,694,1514],"next_num":5,"trial_type":"ticket-choose","trial_index":22,"time_elapsed":516385,"internal_node_id":"0.0-22.0"},{"result":157,"points":3,"place":0,"phase":0,"sequence":3,"prices":[201,187,157,184,198,179,188,185,178,170],"times":[605,558,1415],"next_num":3,"trial_type":"ticket-choose","trial_index":23,"time_elapsed":521849,"internal_node_id":"0.0-23.0"},{"result":186,"points":1,"place":4,"phase":0,"sequence":4,"prices":[220,173,201,197,169,205,198,183,178,186],"times":[629,576,574,568,2344,1344,662,639,2661,1616],"next_num":11,"trial_type":"ticket-choose","trial_index":24,"time_elapsed":538409,"internal_node_id":"0.0-24.0"},{"result":156,"points":2,"place":1,"phase":0,"sequence":5,"prices":[180,156,149,160,168,186,172,198,176,195],"times":[662,1222],"next_num":2,"trial_type":"ticket-choose","trial_index":25,"time_elapsed":542833,"internal_node_id":"0.0-25.0"},{"result":166,"points":1,"place":2,"phase":0,"sequence":6,"prices":[158,175,186,211,177,180,187,166,209,153],"times":[689,953,607,511,535,599,510,1293],"next_num":8,"trial_type":"ticket-choose","trial_index":26,"time_elapsed":552297,"internal_node_id":"0.0-26.0"},{"result":153,"points":2,"place":1,"phase":0,"sequence":7,"prices":[167,153,172,185,195,143,184,211,177,227],"times":[1358,1092],"next_num":2,"trial_type":"ticket-choose","trial_index":27,"time_elapsed":557249,"internal_node_id":"0.0-27.0"},{"result":165,"points":2,"place":1,"phase":0,"sequence":8,"prices":[193,174,224,165,187,190,224,161,194,195],"times":[621,536,701,1399],"next_num":4,"trial_type":"ticket-choose","trial_index":28,"time_elapsed":563482,"internal_node_id":"0.0-28.0"},{"result":163,"points":2,"place":1,"phase":0,"sequence":9,"prices":[171,169,186,165,163,167,220,148,187,165],"times":[753,863,1839,6308,1311],"next_num":5,"trial_type":"ticket-choose","trial_index":29,"time_elapsed":578142,"internal_node_id":"0.0-29.0"},{"result":152,"points":3,"place":0,"phase":0,"sequence":10,"prices":[200,180,203,152,175,170,160,154,176,191],"times":[754,609,615,1231],"next_num":4,"trial_type":"ticket-choose","trial_index":30,"time_elapsed":584246,"internal_node_id":"0.0-30.0"},{"result":167,"points":1,"place":2,"phase":0,"sequence":11,"prices":[165,175,187,209,177,180,188,167,154,208],"times":[1469,685,1484,607,600,607,680,1335],"next_num":8,"trial_type":"ticket-choose","trial_index":31,"time_elapsed":595510,"internal_node_id":"0.0-31.0"},{"result":163,"points":2,"place":1,"phase":0,"sequence":12,"prices":[163,175,187,209,176,180,188,165,154,208],"times":[1710],"next_num":1,"trial_type":"ticket-choose","trial_index":32,"time_elapsed":599615,"internal_node_id":"0.0-32.0"},{"result":158,"points":2,"place":1,"phase":0,"sequence":13,"prices":[177,176,187,225,158,181,187,165,208,153],"times":[2716,839,574,625,1411],"next_num":5,"trial_type":"ticket-choose","trial_index":33,"time_elapsed":609262,"internal_node_id":"0.0-33.0"},{"result":151,"points":3,"place":0,"phase":0,"sequence":14,"prices":[199,193,169,165,202,182,151,164,176,171],"times":[780,591,734,759,684,601,1331],"next_num":7,"trial_type":"ticket-choose","trial_index":34,"time_elapsed":618319,"internal_node_id":"0.0-34.0"},{"result":164,"points":3,"place":0,"phase":0,"sequence":15,"prices":[199,191,188,174,167,193,189,164,176,170],"times":[870,847,590,670,759,631,712,1135],"next_num":8,"trial_type":"ticket-choose","trial_index":35,"time_elapsed":628215,"internal_node_id":"0.0-35.0"},{"result":156,"points":3,"place":0,"phase":0,"sequence":16,"prices":[167,175,185,224,178,181,186,168,208,156],"times":[1914,584,624,631,591,627,599,3399,645,1258],"next_num":10,"trial_type":"ticket-choose","trial_index":36,"time_elapsed":643924,"internal_node_id":"0.0-36.0"},{"result":165,"points":2,"place":1,"phase":0,"sequence":17,"prices":[177,175,186,210,165,179,187,166,153,208],"times":[1081,610,579,614,1192],"next_num":5,"trial_type":"ticket-choose","trial_index":37,"time_elapsed":651322,"internal_node_id":"0.0-37.0"},{"result":165,"points":2,"place":1,"phase":0,"sequence":18,"prices":[177,175,187,209,165,180,188,165,154,208],"times":[2459,638,647,615,1439],"next_num":5,"trial_type":"ticket-choose","trial_index":38,"time_elapsed":660186,"internal_node_id":"0.0-38.0"},{"result":158,"points":2,"place":1,"phase":0,"sequence":19,"prices":[158,176,187,210,177,181,187,165,208,153],"times":[1363],"next_num":1,"trial_type":"ticket-choose","trial_index":39,"time_elapsed":663874,"internal_node_id":"0.0-39.0"},{"result":158,"points":2,"place":1,"phase":0,"sequence":20,"prices":[158,175,186,209,177,181,188,167,208,154],"times":[1398],"next_num":1,"trial_type":"ticket-choose","trial_index":40,"time_elapsed":667659,"internal_node_id":"0.0-40.0"},{"result":169,"points":1,"place":2,"phase":0,"sequence":21,"prices":[178,175,186,212,167,179,187,169,209,153],"times":[749,589,623,583,2839,623,600,7894],"next_num":8,"trial_type":"ticket-choose","trial_index":41,"time_elapsed":686051,"internal_node_id":"0.0-41.0"},{"result":159,"points":1,"place":2,"phase":0,"sequence":22,"prices":[181,159,149,175,185,151,163,174,178,207],"times":[812,1406],"next_num":2,"trial_type":"ticket-choose","trial_index":42,"time_elapsed":690842,"internal_node_id":"0.0-42.0"},{"result":163,"points":2,"place":1,"phase":0,"sequence":23,"prices":[176,186,178,217,163,181,187,166,153,209],"times":[580,631,628,567,1275],"next_num":5,"trial_type":"ticket-choose","trial_index":43,"time_elapsed":697727,"internal_node_id":"0.0-43.0"},{"result":156,"points":3,"place":0,"phase":0,"sequence":24,"prices":[167,174,186,211,178,181,188,168,208,156],"times":[1324,583,551,575,606,1159,655,2999,634,1091],"next_num":10,"trial_type":"ticket-choose","trial_index":44,"time_elapsed":712247,"internal_node_id":"0.0-44.0"},{"result":165,"points":2,"place":1,"phase":0,"sequence":25,"prices":[183,179,188,165,168,173,205,159,187,191],"times":[1741,552,528,4192],"next_num":4,"trial_type":"ticket-choose","trial_index":45,"time_elapsed":722159,"internal_node_id":"0.0-45.0"},{"result":163,"points":2,"place":1,"phase":0,"sequence":26,"prices":[163,175,186,214,176,179,187,166,153,208],"times":[1357],"next_num":1,"trial_type":"ticket-choose","trial_index":46,"time_elapsed":725680,"internal_node_id":"0.0-46.0"},{"result":167,"points":2,"place":1,"phase":0,"sequence":27,"prices":[178,174,186,217,167,181,188,168,208,156],"times":[661,1415,591,559,4511],"next_num":5,"trial_type":"ticket-choose","trial_index":47,"time_elapsed":736695,"internal_node_id":"0.0-47.0"},{"result":165,"points":2,"place":1,"phase":0,"sequence":28,"prices":[177,174,186,217,165,181,187,166,153,209],"times":[633,542,639,575,1222],"next_num":5,"trial_type":"ticket-choose","trial_index":48,"time_elapsed":743455,"internal_node_id":"0.0-48.0"},{"result":166,"points":1,"place":2,"phase":0,"sequence":29,"prices":[165,174,186,212,177,181,187,166,153,209],"times":[1780,535,551,511,600,544,567,1382],"next_num":8,"trial_type":"ticket-choose","trial_index":49,"time_elapsed":753791,"internal_node_id":"0.0-49.0"},{"result":165,"points":2,"place":1,"phase":0,"sequence":30,"prices":[187,201,165,172,196,174,178,154,172,180],"times":[854,607,3399],"next_num":3,"trial_type":"ticket-choose","trial_index":50,"time_elapsed":761387,"internal_node_id":"0.0-50.0"},{"result":155,"points":2,"place":1,"phase":0,"sequence":31,"prices":[200,207,155,158,156,168,167,135,178,177],"times":[1719,566,1302],"next_num":3,"trial_type":"ticket-choose","trial_index":51,"time_elapsed":767779,"internal_node_id":"0.0-51.0"},{"result":165,"points":3,"place":0,"phase":0,"sequence":32,"prices":[196,171,170,184,187,165,211,169,201,202],"times":[693,598,592,616,520,1422],"next_num":6,"trial_type":"ticket-choose","trial_index":52,"time_elapsed":775892,"internal_node_id":"0.0-52.0"},{"result":158,"points":3,"place":0,"phase":0,"sequence":33,"prices":[214,184,226,192,215,158,199,175,176,208],"times":[611,1143,615,614,599,1318],"next_num":6,"trial_type":"ticket-choose","trial_index":53,"time_elapsed":784179,"internal_node_id":"0.0-53.0"},{"result":163,"points":2,"place":1,"phase":0,"sequence":34,"prices":[176,175,186,210,163,179,187,166,153,208],"times":[8933,582,582,567,1319],"next_num":5,"trial_type":"ticket-choose","trial_index":54,"time_elapsed":799235,"internal_node_id":"0.0-54.0"},{"result":165,"points":3,"place":0,"phase":0,"sequence":35,"prices":[193,181,175,181,185,165,224,199,218,184],"times":[7114,511,478,528,479,1358],"next_num":6,"trial_type":"ticket-choose","trial_index":55,"time_elapsed":813171,"internal_node_id":"0.0-55.0"},{"result":163,"points":1,"place":2,"phase":0,"sequence":36,"prices":[173,163,185,181,166,148,160,185,176,184],"times":[1072,1307],"next_num":2,"trial_type":"ticket-choose","trial_index":56,"time_elapsed":818168,"internal_node_id":"0.0-56.0"},{"result":165,"points":2,"place":1,"phase":0,"sequence":37,"prices":[191,170,182,165,175,182,203,157,195,200],"times":[700,488,559,3928],"next_num":4,"trial_type":"ticket-choose","trial_index":57,"time_elapsed":826760,"internal_node_id":"0.0-57.0"},{"result":165,"points":1,"place":2,"phase":0,"sequence":38,"prices":[200,173,182,169,207,165,152,202,161,204],"times":[821,696,543,750,535,1783],"next_num":6,"trial_type":"ticket-choose","trial_index":58,"time_elapsed":835315,"internal_node_id":"0.0-58.0"},{"result":166,"points":1,"place":2,"phase":0,"sequence":39,"prices":[165,175,186,214,177,179,187,166,153,208],"times":[1352,488,552,488,503,536,560,1456],"next_num":8,"trial_type":"ticket-choose","trial_index":59,"time_elapsed":845001,"internal_node_id":"0.0-59.0"},{"result":153,"points":3,"place":0,"phase":0,"sequence":40,"prices":[167,175,186,225,178,179,187,169,209,153],"times":[993,512,479,549,487,495,551,766,607,1206],"next_num":10,"trial_type":"ticket-choose","trial_index":60,"time_elapsed":856512,"internal_node_id":"0.0-60.0"},{"result":147,"points":3,"place":0,"phase":0,"sequence":41,"prices":[181,214,169,147,182,193,178,184,176,179],"times":[2325,559,599,1638],"next_num":4,"trial_type":"ticket-choose","trial_index":61,"time_elapsed":864720,"internal_node_id":"0.0-61.0"},{"result":158,"points":2,"place":1,"phase":0,"sequence":42,"prices":[177,175,186,209,158,181,188,167,208,154],"times":[1220,511,527,534,1294],"next_num":5,"trial_type":"ticket-choose","trial_index":62,"time_elapsed":871888,"internal_node_id":"0.0-62.0"},{"result":163,"points":3,"place":0,"phase":0,"sequence":43,"prices":[163,199,196,199,185,195,227,163,177,166],"times":[2074],"next_num":1,"trial_type":"ticket-choose","trial_index":63,"time_elapsed":876685,"internal_node_id":"0.0-63.0"},{"result":165,"points":3,"place":0,"phase":0,"sequence":44,"prices":[192,172,171,178,188,165,217,168,195,197],"times":[1911,711,583,606,597,1350],"next_num":6,"trial_type":"ticket-choose","trial_index":64,"time_elapsed":885973,"internal_node_id":"0.0-64.0"},{"result":166,"points":1,"place":3,"phase":0,"sequence":45,"prices":[201,204,179,166,185,165,214,156,202,165],"times":[772,519,566,1390],"next_num":4,"trial_type":"ticket-choose","trial_index":65,"time_elapsed":892181,"internal_node_id":"0.0-65.0"},{"result":163,"points":2,"place":1,"phase":0,"sequence":46,"prices":[163,174,186,212,176,181,187,166,153,209],"times":[1812],"next_num":1,"trial_type":"ticket-choose","trial_index":66,"time_elapsed":896518,"internal_node_id":"0.0-66.0"},{"result":167,"points":2,"place":1,"phase":0,"sequence":47,"prices":[178,175,185,215,167,181,186,168,208,156],"times":[891,495,504,719,1830],"next_num":5,"trial_type":"ticket-choose","trial_index":67,"time_elapsed":904726,"internal_node_id":"0.0-67.0"},{"result":165,"points":1,"place":2,"phase":0,"sequence":48,"prices":[185,179,191,165,161,173,199,150,188,168],"times":[762,487,520,12405],"next_num":4,"trial_type":"ticket-choose","trial_index":68,"time_elapsed":922293,"internal_node_id":"0.0-68.0"},{"result":163,"points":2,"place":1,"phase":0,"sequence":49,"prices":[176,187,179,209,163,180,188,165,154,208],"times":[761,470,438,463,1454],"next_num":5,"trial_type":"ticket-choose","trial_index":69,"time_elapsed":929285,"internal_node_id":"0.0-69.0"},{"responses":[{"value":1,"offby":0,"category":"$115 - $130","category_index":0},{"value":1,"offby":-4,"category":"$131 - $145","category_index":1},{"value":3,"offby":-9,"category":"$146 - $160","category_index":2},{"value":25,"offby":3,"category":"$161 - $175","category_index":3},{"value":38,"offby":4,"category":"$176 - $190","category_index":4},{"value":22,"offby":7,"category":"$191 - $205","category_index":5},{"value":10,"offby":-1,"category":"$206 - $220","category_index":6}],"phase":1,"number":1,"trial_type":"bar-choose","trial_index":70,"time_elapsed":1000618,"internal_node_id":"0.0-70.0"},{"rt":28671,"url":"\/christiane\/tickets\/utils\/testing2.html","trial_type":"point_update","trial_index":71,"time_elapsed":1030583,"internal_node_id":"0.0-71.0"},{"phase":1,"order":[39,40,21,43,42,34,18,35,32,31,47,7,13,23,37,45,1,9,10,20,19,5,44,17,0,33,12,3,11,8,36,41,28,46,15,24,49,30,26,6,2,48,22,38,27,25,14,4,29,16],"trial_type":"store_order","trial_index":72,"time_elapsed":1031587,"internal_node_id":"0.0-72.0"},{"result":158,"points":2,"place":1,"phase":1,"sequence":0,"prices":[175,186,158,209,181,188,177,167,208,154],"times":[935,550,1302],"next_num":3,"trial_type":"ticket-choose","trial_index":73,"time_elapsed":1037095,"internal_node_id":"0.0-73.0"},{"result":165,"points":2,"place":1,"phase":1,"sequence":1,"prices":[175,186,177,210,179,187,165,166,153,208],"times":[653,479,455,487,527,534,4982],"next_num":7,"trial_type":"ticket-choose","trial_index":74,"time_elapsed":1048774,"internal_node_id":"0.0-74.0"},{"result":158,"points":2,"place":1,"phase":1,"sequence":2,"prices":[175,186,177,209,181,188,158,167,208,154],"times":[1026,566,488,495,550,478,1670],"next_num":7,"trial_type":"ticket-choose","trial_index":75,"time_elapsed":1057470,"internal_node_id":"0.0-75.0"},{"result":144,"points":3,"place":0,"phase":1,"sequence":3,"prices":[168,154,172,185,195,144,184,211,177,227],"times":[1196,447,1206,535,471,1351],"next_num":6,"trial_type":"ticket-choose","trial_index":76,"time_elapsed":1065987,"internal_node_id":"0.0-76.0"},{"result":165,"points":3,"place":0,"phase":1,"sequence":4,"prices":[171,203,175,170,167,220,192,186,165,165],"times":[3096,663,527,590,854,607,598,583,1432],"next_num":9,"trial_type":"ticket-choose","trial_index":77,"time_elapsed":1078922,"internal_node_id":"0.0-77.0"},{"result":165,"points":3,"place":0,"phase":1,"sequence":5,"prices":[185,170,182,201,173,199,171,188,165,168],"times":[957,1214,528,592,688,614,616,598,1391],"next_num":9,"trial_type":"ticket-choose","trial_index":78,"time_elapsed":1090074,"internal_node_id":"0.0-78.0"},{"result":158,"points":2,"place":1,"phase":1,"sequence":6,"prices":[175,186,177,221,180,187,158,166,209,153],"times":[921,631,558,839,567,543,1382],"next_num":7,"trial_type":"ticket-choose","trial_index":79,"time_elapsed":1098988,"internal_node_id":"0.0-79.0"},{"result":165,"points":2,"place":1,"phase":1,"sequence":7,"prices":[174,186,165,212,181,187,177,167,153,209],"times":[1042,631,2408],"next_num":3,"trial_type":"ticket-choose","trial_index":80,"time_elapsed":1105866,"internal_node_id":"0.0-80.0"},{"result":165,"points":3,"place":0,"phase":1,"sequence":8,"prices":[183,182,192,168,173,205,167,187,165,170],"times":[651,511,495,1006,614,607,2215,615,1366],"next_num":9,"trial_type":"ticket-choose","trial_index":81,"time_elapsed":1118354,"internal_node_id":"0.0-81.0"},{"result":155,"points":2,"place":1,"phase":1,"sequence":9,"prices":[181,155,148,161,168,187,172,199,176,194],"times":[829,1570],"next_num":2,"trial_type":"ticket-choose","trial_index":82,"time_elapsed":1123848,"internal_node_id":"0.0-82.0"},{"result":163,"points":2,"place":1,"phase":1,"sequence":10,"prices":[175,187,176,209,180,188,163,165,154,208],"times":[762,573,567,591,591,551,1606],"next_num":7,"trial_type":"ticket-choose","trial_index":83,"time_elapsed":1132623,"internal_node_id":"0.0-83.0"},{"result":150,"points":3,"place":0,"phase":1,"sequence":11,"prices":[189,150,175,160,188,207,158,194,178,199],"times":[1314,1533],"next_num":2,"trial_type":"ticket-choose","trial_index":84,"time_elapsed":1138095,"internal_node_id":"0.0-84.0"},{"result":156,"points":3,"place":0,"phase":1,"sequence":12,"prices":[175,185,167,224,181,186,178,168,208,156],"times":[661,607,991,536,671,583,685,743,630,1436],"next_num":10,"trial_type":"ticket-choose","trial_index":85,"time_elapsed":1150421,"internal_node_id":"0.0-85.0"},{"result":157,"points":3,"place":0,"phase":1,"sequence":13,"prices":[201,187,157,184,198,179,188,185,178,170],"times":[724,598,1470],"next_num":3,"trial_type":"ticket-choose","trial_index":86,"time_elapsed":1156159,"internal_node_id":"0.0-86.0"},{"result":158,"points":2,"place":1,"phase":1,"sequence":14,"prices":[176,187,177,225,181,187,158,165,208,153],"times":[611,503,519,607,495,511,1397],"next_num":7,"trial_type":"ticket-choose","trial_index":87,"time_elapsed":1164503,"internal_node_id":"0.0-87.0"},{"result":163,"points":2,"place":1,"phase":1,"sequence":15,"prices":[175,186,176,210,179,187,163,166,153,208],"times":[722,575,519,559,494,568,1407],"next_num":7,"trial_type":"ticket-choose","trial_index":88,"time_elapsed":1172775,"internal_node_id":"0.0-88.0"},{"result":165,"points":2,"place":1,"phase":1,"sequence":16,"prices":[174,186,177,217,181,187,165,166,153,209],"times":[690,4047,547,519,631,511,4206],"next_num":7,"trial_type":"ticket-choose","trial_index":89,"time_elapsed":1187411,"internal_node_id":"0.0-89.0"},{"result":156,"points":3,"place":0,"phase":1,"sequence":17,"prices":[174,186,167,211,181,188,178,168,208,156],"times":[1131,551,1239,592,533,545,586,5495,686,1039],"next_num":10,"trial_type":"ticket-choose","trial_index":90,"time_elapsed":1241312,"internal_node_id":"0.0-90.0"},{"result":167,"points":2,"place":1,"phase":1,"sequence":18,"prices":[175,186,178,212,179,187,167,169,209,153],"times":[943,606,504,575,511,534,8262],"next_num":7,"trial_type":"ticket-choose","trial_index":91,"time_elapsed":1256912,"internal_node_id":"0.0-91.0"},{"result":162,"points":3,"place":0,"phase":1,"sequence":19,"prices":[201,165,162,166,185,214,165,202,204,179],"times":[679,1654,2095],"next_num":3,"trial_type":"ticket-choose","trial_index":92,"time_elapsed":1264160,"internal_node_id":"0.0-92.0"},{"result":158,"points":2,"place":1,"phase":1,"sequence":20,"prices":[176,187,158,210,181,187,177,165,208,153],"times":[681,567,1422],"next_num":3,"trial_type":"ticket-choose","trial_index":93,"time_elapsed":1269576,"internal_node_id":"0.0-93.0"},{"result":163,"points":3,"place":0,"phase":1,"sequence":21,"prices":[168,199,196,198,185,195,227,163,177,166],"times":[937,592,528,511,535,527,560,1543],"next_num":8,"trial_type":"ticket-choose","trial_index":94,"time_elapsed":1279112,"internal_node_id":"0.0-94.0"},{"result":165,"points":2,"place":1,"phase":1,"sequence":22,"prices":[188,200,165,172,198,174,177,154,177,180],"times":[1010,511,4174],"next_num":3,"trial_type":"ticket-choose","trial_index":95,"time_elapsed":1287528,"internal_node_id":"0.0-95.0"},{"result":179,"points":1,"place":4,"phase":1,"sequence":23,"prices":[181,215,169,147,182,193,177,184,176,179],"times":[1338,567,568,600,527,544,575,624,2880,2051],"next_num":11,"trial_type":"ticket-choose","trial_index":96,"time_elapsed":1302828,"internal_node_id":"0.0-96.0"},{"result":184,"points":1,"place":4,"phase":1,"sequence":24,"prices":[193,165,175,181,185,224,180,199,218,184],"times":[1201,2111,486,494,520,568,511,534,728,975],"next_num":11,"trial_type":"ticket-choose","trial_index":97,"time_elapsed":1315349,"internal_node_id":"0.0-97.0"},{"result":163,"points":2,"place":1,"phase":1,"sequence":25,"prices":[174,186,163,212,181,187,176,166,153,209],"times":[697,775,1175],"next_num":3,"trial_type":"ticket-choose","trial_index":98,"time_elapsed":1320573,"internal_node_id":"0.0-98.0"},{"result":163,"points":2,"place":1,"phase":1,"sequence":26,"prices":[175,187,163,209,180,188,176,165,154,208],"times":[537,567,1488],"next_num":3,"trial_type":"ticket-choose","trial_index":99,"time_elapsed":1325820,"internal_node_id":"0.0-99.0"},{"result":186,"points":1,"place":4,"phase":1,"sequence":27,"prices":[192,165,171,178,188,217,172,195,197,186],"times":[642,2799,543,521,527,544,503,799,575,726],"next_num":11,"trial_type":"ticket-choose","trial_index":100,"time_elapsed":1338324,"internal_node_id":"0.0-100.0"},{"result":165,"points":3,"place":0,"phase":1,"sequence":28,"prices":[189,167,180,197,165,168,172,213,178,171],"times":[1122,1039,512,560,8008],"next_num":5,"trial_type":"ticket-choose","trial_index":101,"time_elapsed":1352652,"internal_node_id":"0.0-101.0"},{"result":158,"points":3,"place":0,"phase":1,"sequence":29,"prices":[210,184,226,193,215,158,199,175,176,208],"times":[755,1278,831,695,511,1710],"next_num":6,"trial_type":"ticket-choose","trial_index":102,"time_elapsed":1361689,"internal_node_id":"0.0-102.0"},{"result":152,"points":3,"place":0,"phase":1,"sequence":30,"prices":[200,181,203,152,175,171,160,154,176,191],"times":[594,535,624,1230],"next_num":4,"trial_type":"ticket-choose","trial_index":103,"time_elapsed":1367466,"internal_node_id":"0.0-103.0"},{"result":167,"points":2,"place":1,"phase":1,"sequence":31,"prices":[174,186,178,217,181,188,167,168,208,156],"times":[1305,598,607,631,1047,591,1406],"next_num":7,"trial_type":"ticket-choose","trial_index":104,"time_elapsed":1377161,"internal_node_id":"0.0-104.0"},{"result":166,"points":1,"place":2,"phase":1,"sequence":32,"prices":[175,187,165,209,180,188,177,166,154,208],"times":[633,559,3024,543,529,535,535,1439],"next_num":8,"trial_type":"ticket-choose","trial_index":105,"time_elapsed":1388675,"internal_node_id":"0.0-105.0"},{"result":165,"points":3,"place":0,"phase":1,"sequence":33,"prices":[191,172,169,175,182,203,170,195,165,176],"times":[629,887,1030,655,519,583,582,704,1430],"next_num":9,"trial_type":"ticket-choose","trial_index":106,"time_elapsed":1399929,"internal_node_id":"0.0-106.0"},{"result":165,"points":2,"place":1,"phase":1,"sequence":34,"prices":[175,187,177,209,180,188,165,165,154,208],"times":[4153,575,518,509,566,495,1077],"next_num":7,"trial_type":"ticket-choose","trial_index":107,"time_elapsed":1411513,"internal_node_id":"0.0-107.0"},{"result":163,"points":2,"place":1,"phase":1,"sequence":35,"prices":[174,186,176,217,181,187,163,166,153,209],"times":[559,590,488,479,471,559,1335],"next_num":7,"trial_type":"ticket-choose","trial_index":108,"time_elapsed":1439271,"internal_node_id":"0.0-108.0"},{"result":167,"points":2,"place":1,"phase":1,"sequence":36,"prices":[175,185,178,215,181,186,167,168,208,156],"times":[665,502,510,463,558,535,1453],"next_num":7,"trial_type":"ticket-choose","trial_index":109,"time_elapsed":1447501,"internal_node_id":"0.0-109.0"},{"result":143,"points":3,"place":0,"phase":1,"sequence":37,"prices":[222,173,202,197,143,205,198,183,178,186],"times":[959,518,928,560,1744],"next_num":5,"trial_type":"ticket-choose","trial_index":110,"time_elapsed":1455514,"internal_node_id":"0.0-110.0"},{"result":161,"points":3,"place":0,"phase":1,"sequence":38,"prices":[200,165,165,173,182,207,161,202,204,180],"times":[906,1253,4397,693,640,578,1358],"next_num":7,"trial_type":"ticket-choose","trial_index":111,"time_elapsed":1468966,"internal_node_id":"0.0-111.0"},{"result":185,"points":1,"place":4,"phase":1,"sequence":39,"prices":[196,165,170,184,187,211,171,201,202,185],"times":[2086,1719,551,575,550,583,543,623,589,1023],"next_num":11,"trial_type":"ticket-choose","trial_index":112,"time_elapsed":1482442,"internal_node_id":"0.0-112.0"},{"result":158,"points":2,"place":1,"phase":1,"sequence":40,"prices":[175,186,158,211,180,187,177,166,209,153],"times":[872,568,1471],"next_num":3,"trial_type":"ticket-choose","trial_index":113,"time_elapsed":1487979,"internal_node_id":"0.0-113.0"},{"result":155,"points":2,"place":1,"phase":1,"sequence":41,"prices":[201,207,155,158,156,165,167,135,178,177],"times":[630,487,1295],"next_num":3,"trial_type":"ticket-choose","trial_index":114,"time_elapsed":1492986,"internal_node_id":"0.0-114.0"},{"result":163,"points":2,"place":1,"phase":1,"sequence":42,"prices":[175,186,163,214,179,187,176,166,153,208],"times":[1332,542,3078],"next_num":3,"trial_type":"ticket-choose","trial_index":115,"time_elapsed":1500618,"internal_node_id":"0.0-115.0"},{"result":164,"points":3,"place":0,"phase":1,"sequence":43,"prices":[212,192,188,184,167,193,189,164,176,170],"times":[903,584,608,519,823,632,543,1270],"next_num":8,"trial_type":"ticket-choose","trial_index":116,"time_elapsed":1510539,"internal_node_id":"0.0-116.0"},{"result":163,"points":2,"place":1,"phase":1,"sequence":44,"prices":[198,193,169,163,202,182,152,164,177,171],"times":[809,791,1078,1398],"next_num":4,"trial_type":"ticket-choose","trial_index":117,"time_elapsed":1518314,"internal_node_id":"0.0-117.0"},{"result":166,"points":1,"place":2,"phase":1,"sequence":45,"prices":[175,186,165,214,179,187,177,166,153,208],"times":[740,575,1808,568,551,552,592,1422],"next_num":8,"trial_type":"ticket-choose","trial_index":118,"time_elapsed":1528834,"internal_node_id":"0.0-118.0"},{"result":163,"points":1,"place":2,"phase":1,"sequence":46,"prices":[183,163,185,180,166,148,160,186,176,184],"times":[1466,1627],"next_num":2,"trial_type":"ticket-choose","trial_index":119,"time_elapsed":1534371,"internal_node_id":"0.0-119.0"},{"result":159,"points":1,"place":2,"phase":1,"sequence":47,"prices":[180,159,149,175,185,141,163,174,178,207],"times":[1757,2398],"next_num":2,"trial_type":"ticket-choose","trial_index":120,"time_elapsed":1541799,"internal_node_id":"0.0-120.0"},{"result":153,"points":3,"place":0,"phase":1,"sequence":48,"prices":[175,186,167,225,179,187,178,169,209,153],"times":[828,526,543,527,598,534,551,1103,566,1232],"next_num":10,"trial_type":"ticket-choose","trial_index":121,"time_elapsed":1553871,"internal_node_id":"0.0-121.0"},{"result":165,"points":3,"place":0,"phase":1,"sequence":49,"prices":[193,169,171,187,190,224,174,194,165,188],"times":[756,550,559,519,543,521,565,583,1935],"next_num":9,"trial_type":"ticket-choose","trial_index":122,"time_elapsed":1565721,"internal_node_id":"0.0-122.0"},{"responses":[{"value":0,"offby":-1,"category":"$115 - $130","category_index":0},{"value":2,"offby":-3,"category":"$131 - $145","category_index":1},{"value":15,"offby":3,"category":"$146 - $160","category_index":2},{"value":25,"offby":3,"category":"$161 - $175","category_index":3},{"value":30,"offby":-4,"category":"$176 - $190","category_index":4},{"value":23,"offby":8,"category":"$191 - $205","category_index":5},{"value":5,"offby":-6,"category":"$206 - $220","category_index":6}],"phase":1,"number":1,"trial_type":"bar-choose","trial_index":123,"time_elapsed":1623402,"internal_node_id":"0.0-123.0"},{"special_comment":"no","trial_type":"special_sequence","trial_index":124,"time_elapsed":1631543,"internal_node_id":"0.0-124.0"},{"during":"Other","bonus":288,"trial_type":"final","trial_index":125,"time_elapsed":1669123,"internal_node_id":"0.0-125.0"}],"bonus":288}