{"start_time":"2017-05-24 15:49:25","end_time":"2017-05-24 16:12:44","points_phase0":117,"points_phase1":99,"phase_order":0,"age":44,"gender":"f","tries":1,"during":"Nothing","worker_id":"A55CXM7QR7R0N","assignment_id":"30ZX6P7VF9O76YE83VRBZIO3N6OJ2V","data":[{"rt":12127,"url":"\/christiane\/tickets\/utils\/consent.html","trial_type":"html","trial_index":0,"time_elapsed":12495,"internal_node_id":"0.0-0.0"},{"age":44,"gender":"f","trial_type":"age","trial_index":1,"time_elapsed":18651,"internal_node_id":"0.0-1.0"},{"worker_id":"A55CXM7QR7R0N","trial_type":"workerid","trial_index":2,"time_elapsed":26935,"internal_node_id":"0.0-2.0"},{"tries":1,"trial_type":"instructions_check","trial_index":3,"time_elapsed":67796,"internal_node_id":"0.0-3.0"},{"rt":22944,"url":"\/christiane\/tickets\/utils\/start.html","trial_type":"html","trial_index":4,"time_elapsed":92162,"internal_node_id":"0.0-4.0"},{"trial_type":"number-animation","trial_index":5,"time_elapsed":124709,"internal_node_id":"0.0-5.0"},{"phase":0,"sequence":0,"avg":181,"response":170,"trial_type":"training_avg","trial_index":6,"time_elapsed":143181,"internal_node_id":"0.0-6.0"},{"trial_type":"number-animation","trial_index":7,"time_elapsed":170823,"internal_node_id":"0.0-7.0"},{"phase":0,"sequence":1,"avg":188,"response":200,"trial_type":"training_avg","trial_index":8,"time_elapsed":207775,"internal_node_id":"0.0-8.0"},{"trial_type":"number-animation","trial_index":9,"time_elapsed":219029,"internal_node_id":"0.0-9.0"},{"phase":0,"sequence":2,"avg":188,"response":180,"trial_type":"training_avg","trial_index":10,"time_elapsed":228429,"internal_node_id":"0.0-10.0"},{"trial_type":"number-animation","trial_index":11,"time_elapsed":240353,"internal_node_id":"0.0-11.0"},{"phase":0,"sequence":3,"avg":177,"response":169,"trial_type":"training_avg","trial_index":12,"time_elapsed":280171,"internal_node_id":"0.0-12.0"},{"trial_type":"number-animation","trial_index":13,"time_elapsed":290855,"internal_node_id":"0.0-13.0"},{"phase":0,"sequence":4,"avg":182,"response":181,"trial_type":"training_avg","trial_index":14,"time_elapsed":304314,"internal_node_id":"0.0-14.0"},{"responses":[{"value":0,"offby":-1,"category":"$115 - $130","category_index":0},{"value":0,"offby":-5,"category":"$131 - $145","category_index":1},{"value":5,"offby":-7,"category":"$146 - $160","category_index":2},{"value":60,"offby":38,"category":"$161 - $175","category_index":3},{"value":20,"offby":-14,"category":"$176 - $190","category_index":4},{"value":5,"offby":-10,"category":"$191 - $205","category_index":5},{"value":10,"offby":-1,"category":"$206 - $220","category_index":6}],"phase":0,"number":0,"trial_type":"bar-choose","trial_index":15,"time_elapsed":366074,"internal_node_id":"0.0-15.0"},{"rt":18821,"url":"\/christiane\/tickets\/utils\/testing.html","trial_type":"html","trial_index":16,"time_elapsed":386432,"internal_node_id":"0.0-16.0"},{"phase":0,"order":[17,18,2,46,38,32,43,23,45,25,15,31,13,3,24,6,30,9,14,19,34,4,11,0,20,5,44,1,42,35,36,41,49,27,33,47,7,16,39,22,10,12,8,40,37,26,29,48,21,28],"trial_type":"store_order","trial_index":17,"time_elapsed":387434,"internal_node_id":"0.0-17.0"},{"result":146,"points":3,"place":0,"phase":0,"sequence":-1,"prices":[184,180,224,165,181,199,185,193,218,146],"times":[2345,583,571,772,649,630,594,607,678,1297],"next_num":10,"trial_type":"ticket-choose","trial_index":18,"time_elapsed":400705,"internal_node_id":"0.0-18.0"},{"rt":15030,"url":"\/christiane\/tickets\/utils\/testing_after.html","trial_type":"html","trial_index":19,"time_elapsed":417164,"internal_node_id":"0.0-19.0"},{"result":153,"points":3,"place":0,"phase":0,"sequence":0,"prices":[174,186,176,217,181,187,163,166,153,209],"times":[1512,740,509,475,406,468,1106,787,1231],"next_num":9,"trial_type":"ticket-choose","trial_index":20,"time_elapsed":428592,"internal_node_id":"0.0-20.0"},{"result":153,"points":3,"place":0,"phase":0,"sequence":1,"prices":[175,186,158,211,180,187,177,166,209,153],"times":[981,578,497,633,669,647,607,1054,671,959],"next_num":10,"trial_type":"ticket-choose","trial_index":21,"time_elapsed":440143,"internal_node_id":"0.0-21.0"},{"result":169,"points":1,"place":2,"phase":0,"sequence":2,"prices":[175,186,167,225,179,187,178,169,209,153],"times":[1004,624,529,579,609,601,786,1600],"next_num":8,"trial_type":"ticket-choose","trial_index":22,"time_elapsed":450012,"internal_node_id":"0.0-22.0"},{"result":158,"points":3,"place":0,"phase":0,"sequence":3,"prices":[210,184,226,193,215,158,199,175,176,208],"times":[1074,461,726,641,530,1109],"next_num":6,"trial_type":"ticket-choose","trial_index":23,"time_elapsed":457556,"internal_node_id":"0.0-23.0"},{"result":163,"points":3,"place":0,"phase":0,"sequence":4,"prices":[168,199,196,198,185,195,227,163,177,166],"times":[986,695,522,533,423,399,546,2963],"next_num":8,"trial_type":"ticket-choose","trial_index":24,"time_elapsed":468313,"internal_node_id":"0.0-24.0"},{"result":165,"points":3,"place":0,"phase":0,"sequence":5,"prices":[193,169,171,187,190,224,174,194,165,188],"times":[1407,897,686,538,580,653,639,579,1006],"next_num":9,"trial_type":"ticket-choose","trial_index":25,"time_elapsed":479449,"internal_node_id":"0.0-25.0"},{"result":170,"points":2,"place":1,"phase":0,"sequence":6,"prices":[201,187,157,184,198,179,188,185,178,170],"times":[425,899,452,694,390,468,499,500,381,524],"next_num":11,"trial_type":"ticket-choose","trial_index":26,"time_elapsed":489362,"internal_node_id":"0.0-26.0"},{"result":158,"points":2,"place":1,"phase":0,"sequence":7,"prices":[176,187,177,225,181,187,158,165,208,153],"times":[1160,663,538,655,562,484,945],"next_num":7,"trial_type":"ticket-choose","trial_index":27,"time_elapsed":497612,"internal_node_id":"0.0-27.0"},{"result":164,"points":3,"place":0,"phase":0,"sequence":8,"prices":[212,192,188,184,167,193,189,164,176,170],"times":[571,944,429,406,374,617,524,1731],"next_num":8,"trial_type":"ticket-choose","trial_index":28,"time_elapsed":506604,"internal_node_id":"0.0-28.0"},{"result":179,"points":1,"place":4,"phase":0,"sequence":9,"prices":[201,165,162,166,185,214,165,202,204,179],"times":[706,513,641,789,638,632,1420,695,662,1219],"next_num":11,"trial_type":"ticket-choose","trial_index":29,"time_elapsed":519254,"internal_node_id":"0.0-29.0"},{"result":163,"points":2,"place":1,"phase":0,"sequence":10,"prices":[175,186,176,210,179,187,163,166,153,208],"times":[1202,1364,773,928,850,1599,2123],"next_num":7,"trial_type":"ticket-choose","trial_index":30,"time_elapsed":531468,"internal_node_id":"0.0-30.0"},{"result":165,"points":3,"place":0,"phase":0,"sequence":11,"prices":[171,203,175,170,167,220,192,186,165,165],"times":[761,575,516,459,468,554,593,608,1310,1216],"next_num":10,"trial_type":"ticket-choose","trial_index":31,"time_elapsed":542371,"internal_node_id":"0.0-31.0"},{"result":165,"points":1,"place":2,"phase":0,"sequence":12,"prices":[175,187,163,209,180,188,176,165,154,208],"times":[2012,468,375,498,594,532,638,1716],"next_num":8,"trial_type":"ticket-choose","trial_index":32,"time_elapsed":552596,"internal_node_id":"0.0-32.0"},{"result":167,"points":2,"place":1,"phase":0,"sequence":13,"prices":[174,186,178,217,181,188,167,168,208,156],"times":[936,452,437,382,554,842,1223],"next_num":7,"trial_type":"ticket-choose","trial_index":33,"time_elapsed":560631,"internal_node_id":"0.0-33.0"},{"result":184,"points":1,"place":4,"phase":0,"sequence":14,"prices":[193,165,175,181,185,224,180,199,218,184],"times":[497,444,546,454,466,568,516,880,578,1481],"next_num":11,"trial_type":"ticket-choose","trial_index":34,"time_elapsed":570919,"internal_node_id":"0.0-34.0"},{"result":153,"points":3,"place":0,"phase":0,"sequence":15,"prices":[175,186,165,214,179,187,177,166,153,208],"times":[725,461,1809,483,467,492,522,826,867],"next_num":9,"trial_type":"ticket-choose","trial_index":35,"time_elapsed":581200,"internal_node_id":"0.0-35.0"},{"result":165,"points":3,"place":0,"phase":0,"sequence":16,"prices":[191,172,169,175,182,203,170,195,165,176],"times":[1505,461,632,492,599,567,561,681,1028],"next_num":9,"trial_type":"ticket-choose","trial_index":36,"time_elapsed":591454,"internal_node_id":"0.0-36.0"},{"result":165,"points":2,"place":1,"phase":0,"sequence":17,"prices":[175,186,177,210,179,187,165,166,153,208],"times":[766,476,530,530,500,675,1055],"next_num":7,"trial_type":"ticket-choose","trial_index":37,"time_elapsed":599124,"internal_node_id":"0.0-37.0"},{"result":153,"points":3,"place":0,"phase":0,"sequence":18,"prices":[174,186,163,212,181,187,176,166,153,209],"times":[4998,936,498,532,835,545,509,538,1046],"next_num":9,"trial_type":"ticket-choose","trial_index":38,"time_elapsed":613257,"internal_node_id":"0.0-38.0"},{"result":154,"points":3,"place":0,"phase":0,"sequence":19,"prices":[175,186,158,209,181,188,177,167,208,154],"times":[602,421,468,446,390,372,476,545,547,473],"next_num":11,"trial_type":"ticket-choose","trial_index":39,"time_elapsed":621955,"internal_node_id":"0.0-39.0"},{"result":155,"points":2,"place":1,"phase":0,"sequence":20,"prices":[181,155,148,161,168,187,172,199,176,194],"times":[930,1903],"next_num":2,"trial_type":"ticket-choose","trial_index":40,"time_elapsed":626981,"internal_node_id":"0.0-40.0"},{"result":156,"points":3,"place":0,"phase":0,"sequence":21,"prices":[175,185,178,215,181,186,167,168,208,156],"times":[658,455,295,399,477,485,475,1023,1183,718],"next_num":10,"trial_type":"ticket-choose","trial_index":41,"time_elapsed":637123,"internal_node_id":"0.0-41.0"},{"result":165,"points":2,"place":1,"phase":0,"sequence":22,"prices":[174,186,177,217,181,187,165,166,153,209],"times":[580,419,446,724,509,511,1911],"next_num":7,"trial_type":"ticket-choose","trial_index":42,"time_elapsed":645337,"internal_node_id":"0.0-42.0"},{"result":156,"points":3,"place":0,"phase":0,"sequence":23,"prices":[174,186,167,211,181,188,178,168,208,156],"times":[580,569,454,358,499,506,587,1497,1278,719],"next_num":10,"trial_type":"ticket-choose","trial_index":43,"time_elapsed":656637,"internal_node_id":"0.0-43.0"},{"result":153,"points":3,"place":0,"phase":0,"sequence":24,"prices":[176,187,158,210,181,187,177,165,208,153],"times":[953,523,510,546,460,477,523,711,531,850],"next_num":10,"trial_type":"ticket-choose","trial_index":44,"time_elapsed":666613,"internal_node_id":"0.0-44.0"},{"result":153,"points":3,"place":0,"phase":0,"sequence":25,"prices":[175,186,178,212,179,187,167,169,209,153],"times":[634,509,561,522,501,501,477,576,1281,771],"next_num":10,"trial_type":"ticket-choose","trial_index":45,"time_elapsed":677282,"internal_node_id":"0.0-45.0"},{"result":141,"points":3,"place":0,"phase":0,"sequence":26,"prices":[180,159,149,175,185,141,163,174,178,207],"times":[782,436,445,681,343,890],"next_num":6,"trial_type":"ticket-choose","trial_index":46,"time_elapsed":683962,"internal_node_id":"0.0-46.0"},{"result":156,"points":3,"place":0,"phase":0,"sequence":27,"prices":[175,185,167,224,181,186,178,168,208,156],"times":[697,421,444,657,630,532,491,812,726,813],"next_num":10,"trial_type":"ticket-choose","trial_index":47,"time_elapsed":694535,"internal_node_id":"0.0-47.0"},{"result":186,"points":1,"place":4,"phase":0,"sequence":28,"prices":[222,173,202,197,143,205,198,183,178,186],"times":[611,492,661,468,506,483,547,562,555,1170],"next_num":11,"trial_type":"ticket-choose","trial_index":48,"time_elapsed":704832,"internal_node_id":"0.0-48.0"},{"result":154,"points":2,"place":1,"phase":0,"sequence":29,"prices":[168,154,172,185,195,144,184,211,177,227],"times":[1099,1388],"next_num":2,"trial_type":"ticket-choose","trial_index":49,"time_elapsed":709577,"internal_node_id":"0.0-49.0"},{"result":154,"points":3,"place":0,"phase":0,"sequence":30,"prices":[188,200,165,172,198,174,177,154,177,180],"times":[529,445,703,727,460,694,522,1092],"next_num":8,"trial_type":"ticket-choose","trial_index":50,"time_elapsed":719491,"internal_node_id":"0.0-50.0"},{"result":135,"points":3,"place":0,"phase":0,"sequence":31,"prices":[201,207,155,158,156,165,167,135,178,177],"times":[681,436,462,498,726,592,554,1061],"next_num":8,"trial_type":"ticket-choose","trial_index":51,"time_elapsed":727899,"internal_node_id":"0.0-51.0"},{"result":148,"points":3,"place":0,"phase":0,"sequence":32,"prices":[183,163,185,180,166,148,160,186,176,184],"times":[495,468,632,530,523,961],"next_num":6,"trial_type":"ticket-choose","trial_index":52,"time_elapsed":734367,"internal_node_id":"0.0-52.0"},{"result":186,"points":1,"place":4,"phase":0,"sequence":33,"prices":[192,165,171,178,188,217,172,195,197,186],"times":[709,765,462,539,539,678,701,717,703,991],"next_num":11,"trial_type":"ticket-choose","trial_index":53,"time_elapsed":745007,"internal_node_id":"0.0-53.0"},{"result":165,"points":3,"place":0,"phase":0,"sequence":34,"prices":[183,182,192,168,173,205,167,187,165,170],"times":[737,607,514,547,765,632,578,607,944],"next_num":9,"trial_type":"ticket-choose","trial_index":54,"time_elapsed":754500,"internal_node_id":"0.0-54.0"},{"result":191,"points":0,"place":7,"phase":0,"sequence":35,"prices":[200,181,203,152,175,171,160,154,176,191],"times":[1523,757,594,654,538,602,811,1075,601,1099],"next_num":11,"trial_type":"ticket-choose","trial_index":55,"time_elapsed":766831,"internal_node_id":"0.0-55.0"},{"result":154,"points":3,"place":0,"phase":0,"sequence":36,"prices":[175,187,165,209,180,188,177,166,154,208],"times":[1032,609,476,447,514,762,446,981,802],"next_num":9,"trial_type":"ticket-choose","trial_index":56,"time_elapsed":776489,"internal_node_id":"0.0-56.0"},{"result":163,"points":2,"place":1,"phase":0,"sequence":37,"prices":[175,187,176,209,180,188,163,165,154,208],"times":[1129,743,795,943,750,866,1741],"next_num":7,"trial_type":"ticket-choose","trial_index":57,"time_elapsed":786667,"internal_node_id":"0.0-57.0"},{"result":165,"points":3,"place":0,"phase":0,"sequence":38,"prices":[189,167,180,197,165,168,172,213,178,171],"times":[627,842,546,711,1382],"next_num":5,"trial_type":"ticket-choose","trial_index":58,"time_elapsed":793442,"internal_node_id":"0.0-58.0"},{"result":158,"points":2,"place":1,"phase":0,"sequence":39,"prices":[175,186,177,209,181,188,158,167,208,154],"times":[843,578,554,506,829,530,1552],"next_num":7,"trial_type":"ticket-choose","trial_index":59,"time_elapsed":802078,"internal_node_id":"0.0-59.0"},{"result":154,"points":3,"place":0,"phase":0,"sequence":40,"prices":[175,187,177,209,180,188,165,165,154,208],"times":[636,547,547,936,632,657,1370,1237,1029],"next_num":9,"trial_type":"ticket-choose","trial_index":60,"time_elapsed":813459,"internal_node_id":"0.0-60.0"},{"result":153,"points":3,"place":0,"phase":0,"sequence":41,"prices":[175,186,163,214,179,187,176,166,153,208],"times":[1038,491,911,458,522,509,530,1101,859],"next_num":9,"trial_type":"ticket-choose","trial_index":61,"time_elapsed":823491,"internal_node_id":"0.0-61.0"},{"result":165,"points":2,"place":1,"phase":0,"sequence":42,"prices":[174,186,165,212,181,187,177,167,153,209],"times":[919,594,1311],"next_num":3,"trial_type":"ticket-choose","trial_index":62,"time_elapsed":828868,"internal_node_id":"0.0-62.0"},{"result":150,"points":3,"place":0,"phase":0,"sequence":43,"prices":[189,150,175,160,188,207,158,194,178,199],"times":[636,1038],"next_num":2,"trial_type":"ticket-choose","trial_index":63,"time_elapsed":832694,"internal_node_id":"0.0-63.0"},{"result":152,"points":3,"place":0,"phase":0,"sequence":44,"prices":[198,193,169,163,202,182,152,164,177,171],"times":[559,477,469,499,673,567,1030],"next_num":7,"trial_type":"ticket-choose","trial_index":64,"time_elapsed":840326,"internal_node_id":"0.0-64.0"},{"result":180,"points":1,"place":4,"phase":0,"sequence":45,"prices":[200,165,165,173,182,207,161,202,204,180],"times":[625,690,811,771,609,493,611,966,538,822],"next_num":11,"trial_type":"ticket-choose","trial_index":65,"time_elapsed":851316,"internal_node_id":"0.0-65.0"},{"result":165,"points":3,"place":0,"phase":0,"sequence":46,"prices":[185,170,182,201,173,199,171,188,165,168],"times":[679,523,469,592,514,748,516,813,895],"next_num":9,"trial_type":"ticket-choose","trial_index":66,"time_elapsed":860818,"internal_node_id":"0.0-66.0"},{"result":179,"points":1,"place":4,"phase":0,"sequence":47,"prices":[181,215,169,147,182,193,177,184,176,179],"times":[636,461,454,540,561,476,601,617,764,843],"next_num":11,"trial_type":"ticket-choose","trial_index":67,"time_elapsed":870762,"internal_node_id":"0.0-67.0"},{"result":158,"points":2,"place":1,"phase":0,"sequence":48,"prices":[175,186,177,221,180,187,158,166,209,153],"times":[636,477,633,975,859,680,835],"next_num":7,"trial_type":"ticket-choose","trial_index":68,"time_elapsed":879103,"internal_node_id":"0.0-68.0"},{"result":185,"points":1,"place":4,"phase":0,"sequence":49,"prices":[196,165,170,184,187,211,171,201,202,185],"times":[1214,493,522,695,476,608,673,569,593,561],"next_num":11,"trial_type":"ticket-choose","trial_index":69,"time_elapsed":889960,"internal_node_id":"0.0-69.0"},{"responses":[{"value":0,"offby":-1,"category":"$115 - $130","category_index":0},{"value":0,"offby":-5,"category":"$131 - $145","category_index":1},{"value":5,"offby":-7,"category":"$146 - $160","category_index":2},{"value":85,"offby":63,"category":"$161 - $175","category_index":3},{"value":0,"offby":-34,"category":"$176 - $190","category_index":4},{"value":5,"offby":-10,"category":"$191 - $205","category_index":5},{"value":5,"offby":-6,"category":"$206 - $220","category_index":6}],"phase":1,"number":1,"trial_type":"bar-choose","trial_index":70,"time_elapsed":935221,"internal_node_id":"0.0-70.0"},{"rt":19050,"url":"\/christiane\/tickets\/utils\/testing2.html","trial_type":"point_update","trial_index":71,"time_elapsed":955977,"internal_node_id":"0.0-71.0"},{"phase":1,"order":[37,48,29,22,26,5,2,46,8,44,38,36,10,21,17,49,24,20,42,23,12,1,7,31,27,16,32,3,14,34,43,30,19,9,25,18,33,11,0,45,47,39,41,35,40,6,28,13,4,15],"trial_type":"store_order","trial_index":72,"time_elapsed":956979,"internal_node_id":"0.0-72.0"},{"result":165,"points":1,"place":2,"phase":1,"sequence":0,"prices":[199,193,169,165,202,182,151,164,176,171],"times":[1505,475,350,1755],"next_num":4,"trial_type":"ticket-choose","trial_index":73,"time_elapsed":963647,"internal_node_id":"0.0-73.0"},{"result":179,"points":1,"place":4,"phase":1,"sequence":1,"prices":[181,214,169,147,182,193,178,184,176,179],"times":[619,361,382,374,282,904,443,735,678,484],"next_num":11,"trial_type":"ticket-choose","trial_index":74,"time_elapsed":972960,"internal_node_id":"0.0-74.0"},{"result":165,"points":1,"place":2,"phase":1,"sequence":2,"prices":[185,179,191,165,161,173,199,150,188,168],"times":[751,451,649,841],"next_num":4,"trial_type":"ticket-choose","trial_index":75,"time_elapsed":978191,"internal_node_id":"0.0-75.0"},{"result":154,"points":3,"place":0,"phase":1,"sequence":3,"prices":[177,175,186,209,158,181,188,167,208,154],"times":[595,521,546,492,711,460,438,508,505,983],"next_num":10,"trial_type":"ticket-choose","trial_index":76,"time_elapsed":988096,"internal_node_id":"0.0-76.0"},{"result":204,"points":0,"place":8,"phase":1,"sequence":4,"prices":[200,173,182,169,207,165,152,202,161,204],"times":[735,422,350,424,452,391,509,1387,710,553],"next_num":11,"trial_type":"ticket-choose","trial_index":77,"time_elapsed":998261,"internal_node_id":"0.0-77.0"},{"result":153,"points":3,"place":0,"phase":1,"sequence":5,"prices":[178,175,186,212,167,179,187,169,209,153],"times":[669,507,468,444,616,516,498,579,574,826],"next_num":10,"trial_type":"ticket-choose","trial_index":78,"time_elapsed":1008215,"internal_node_id":"0.0-78.0"},{"result":169,"points":1,"place":2,"phase":1,"sequence":6,"prices":[167,175,186,225,178,179,187,169,209,153],"times":[875,1179,910,1910,515,483,461,882],"next_num":8,"trial_type":"ticket-choose","trial_index":79,"time_elapsed":1019191,"internal_node_id":"0.0-79.0"},{"result":208,"points":0,"place":6,"phase":1,"sequence":7,"prices":[214,184,226,192,215,158,199,175,176,208],"times":[816,492,523,849,493,483,484,499,757,608],"next_num":11,"trial_type":"ticket-choose","trial_index":80,"time_elapsed":1029248,"internal_node_id":"0.0-80.0"},{"result":165,"points":2,"place":1,"phase":1,"sequence":8,"prices":[165,174,186,212,177,181,187,166,153,209],"times":[1284],"next_num":1,"trial_type":"ticket-choose","trial_index":81,"time_elapsed":1032629,"internal_node_id":"0.0-81.0"},{"result":159,"points":1,"place":2,"phase":1,"sequence":9,"prices":[181,159,149,175,185,151,163,174,178,207],"times":[918,851],"next_num":2,"trial_type":"ticket-choose","trial_index":82,"time_elapsed":1036611,"internal_node_id":"0.0-82.0"},{"result":166,"points":1,"place":2,"phase":1,"sequence":10,"prices":[163,199,196,199,185,195,227,163,177,166],"times":[718,420,423,437,391,428,500,399,927,640],"next_num":11,"trial_type":"ticket-choose","trial_index":83,"time_elapsed":1045716,"internal_node_id":"0.0-83.0"},{"result":154,"points":3,"place":0,"phase":1,"sequence":11,"prices":[187,201,165,172,196,174,178,154,172,180],"times":[569,374,391,509,453,532,523,765],"next_num":8,"trial_type":"ticket-choose","trial_index":84,"time_elapsed":1053723,"internal_node_id":"0.0-84.0"},{"result":165,"points":2,"place":1,"phase":1,"sequence":12,"prices":[177,175,187,209,165,180,188,165,154,208],"times":[523,444,414,398,532,530,493,1069],"next_num":8,"trial_type":"ticket-choose","trial_index":85,"time_elapsed":1061407,"internal_node_id":"0.0-85.0"},{"result":153,"points":3,"place":0,"phase":1,"sequence":13,"prices":[177,175,186,221,158,180,187,166,209,153],"times":[490,491,462,491,446,546,538,509,975,711],"next_num":10,"trial_type":"ticket-choose","trial_index":86,"time_elapsed":1070941,"internal_node_id":"0.0-86.0"},{"result":153,"points":3,"place":0,"phase":1,"sequence":14,"prices":[176,186,178,217,163,181,187,166,153,209],"times":[668,414,421,439,398,469,458,516,817],"next_num":9,"trial_type":"ticket-choose","trial_index":87,"time_elapsed":1079126,"internal_node_id":"0.0-87.0"},{"result":184,"points":0,"place":7,"phase":1,"sequence":15,"prices":[173,163,185,181,166,148,160,185,176,184],"times":[934,263,517,492,428,359,546,523,858,1132],"next_num":11,"trial_type":"ticket-choose","trial_index":88,"time_elapsed":1089267,"internal_node_id":"0.0-88.0"},{"result":184,"points":1,"place":4,"phase":1,"sequence":16,"prices":[193,181,175,181,185,165,224,199,218,184],"times":[784,484,444,548,453,491,545,577,579,755],"next_num":11,"trial_type":"ticket-choose","trial_index":89,"time_elapsed":1098647,"internal_node_id":"0.0-89.0"},{"result":158,"points":2,"place":1,"phase":1,"sequence":17,"prices":[158,176,187,210,177,181,187,165,208,153],"times":[1333],"next_num":1,"trial_type":"ticket-choose","trial_index":90,"time_elapsed":1101839,"internal_node_id":"0.0-90.0"},{"result":186,"points":1,"place":4,"phase":1,"sequence":18,"prices":[220,173,201,197,169,205,198,183,178,186],"times":[575,498,438,437,415,507,477,515,604,833],"next_num":11,"trial_type":"ticket-choose","trial_index":91,"time_elapsed":1110921,"internal_node_id":"0.0-91.0"},{"result":158,"points":2,"place":1,"phase":1,"sequence":19,"prices":[177,176,187,225,158,181,187,165,208,153],"times":[580,702,468,544,953],"next_num":5,"trial_type":"ticket-choose","trial_index":92,"time_elapsed":1116808,"internal_node_id":"0.0-92.0"},{"result":153,"points":3,"place":0,"phase":1,"sequence":20,"prices":[163,175,186,214,176,179,187,166,153,208],"times":[495,484,477,501,546,493,492,974,828],"next_num":9,"trial_type":"ticket-choose","trial_index":93,"time_elapsed":1125623,"internal_node_id":"0.0-93.0"},{"result":168,"points":1,"place":2,"phase":1,"sequence":21,"prices":[167,175,185,224,178,181,186,168,208,156],"times":[1126,533,640,445,468,484,632,1106],"next_num":8,"trial_type":"ticket-choose","trial_index":94,"time_elapsed":1134453,"internal_node_id":"0.0-94.0"},{"result":154,"points":3,"place":0,"phase":1,"sequence":22,"prices":[165,175,187,209,177,180,188,167,154,208],"times":[463,468,444,382,460,438,572,865,843],"next_num":9,"trial_type":"ticket-choose","trial_index":95,"time_elapsed":1142895,"internal_node_id":"0.0-95.0"},{"result":163,"points":2,"place":1,"phase":1,"sequence":23,"prices":[171,169,186,165,163,167,220,148,187,165],"times":[540,438,414,373,997],"next_num":5,"trial_type":"ticket-choose","trial_index":96,"time_elapsed":1148319,"internal_node_id":"0.0-96.0"},{"result":165,"points":3,"place":0,"phase":1,"sequence":24,"prices":[192,172,171,178,188,165,217,168,195,197],"times":[628,467,470,460,529,1162],"next_num":6,"trial_type":"ticket-choose","trial_index":97,"time_elapsed":1154852,"internal_node_id":"0.0-97.0"},{"result":154,"points":3,"place":0,"phase":1,"sequence":25,"prices":[176,187,179,209,163,180,188,165,154,208],"times":[744,421,352,295,422,560,447,878,976],"next_num":9,"trial_type":"ticket-choose","trial_index":98,"time_elapsed":1163379,"internal_node_id":"0.0-98.0"},{"result":165,"points":2,"place":1,"phase":1,"sequence":26,"prices":[193,174,224,165,187,190,224,161,194,195],"times":[611,452,383,888],"next_num":4,"trial_type":"ticket-choose","trial_index":99,"time_elapsed":1168080,"internal_node_id":"0.0-99.0"},{"result":156,"points":3,"place":0,"phase":1,"sequence":27,"prices":[178,174,186,217,167,181,188,168,208,156],"times":[464,398,439,374,311,530,501,678,594,780],"next_num":10,"trial_type":"ticket-choose","trial_index":100,"time_elapsed":1176770,"internal_node_id":"0.0-100.0"},{"result":153,"points":3,"place":0,"phase":1,"sequence":28,"prices":[163,174,186,212,176,181,187,166,153,209],"times":[521,445,406,422,499,397,390,454,817],"next_num":9,"trial_type":"ticket-choose","trial_index":101,"time_elapsed":1184447,"internal_node_id":"0.0-101.0"},{"result":195,"points":0,"place":8,"phase":1,"sequence":29,"prices":[180,156,149,160,168,186,172,198,176,195],"times":[640,477,406,577,524,435,385,481,508,625],"next_num":11,"trial_type":"ticket-choose","trial_index":102,"time_elapsed":1193568,"internal_node_id":"0.0-102.0"},{"result":157,"points":3,"place":0,"phase":1,"sequence":30,"prices":[201,187,157,184,198,179,188,185,178,170],"times":[1084,532,1131],"next_num":3,"trial_type":"ticket-choose","trial_index":103,"time_elapsed":1198540,"internal_node_id":"0.0-103.0"},{"result":157,"points":3,"place":0,"phase":1,"sequence":31,"prices":[191,170,182,165,175,182,203,157,195,200],"times":[555,468,491,703,498,515,547,1077],"next_num":8,"trial_type":"ticket-choose","trial_index":104,"time_elapsed":1206686,"internal_node_id":"0.0-104.0"},{"result":158,"points":2,"place":1,"phase":1,"sequence":32,"prices":[158,175,186,209,177,181,188,167,208,154],"times":[1807],"next_num":1,"trial_type":"ticket-choose","trial_index":105,"time_elapsed":1210318,"internal_node_id":"0.0-105.0"},{"result":153,"points":3,"place":0,"phase":1,"sequence":33,"prices":[177,175,186,210,165,179,187,166,153,208],"times":[531,430,474,366,430,453,414,500,866],"next_num":9,"trial_type":"ticket-choose","trial_index":106,"time_elapsed":1218356,"internal_node_id":"0.0-106.0"},{"result":165,"points":2,"place":1,"phase":1,"sequence":34,"prices":[201,204,179,166,185,165,214,156,202,165],"times":[640,685,539,767,676,1194],"next_num":6,"trial_type":"ticket-choose","trial_index":107,"time_elapsed":1225759,"internal_node_id":"0.0-107.0"},{"result":158,"points":2,"place":1,"phase":1,"sequence":35,"prices":[158,175,186,211,177,180,187,166,209,153],"times":[1329],"next_num":1,"trial_type":"ticket-choose","trial_index":108,"time_elapsed":1229244,"internal_node_id":"0.0-108.0"},{"result":165,"points":2,"place":1,"phase":1,"sequence":36,"prices":[183,179,188,165,168,173,205,159,187,191],"times":[923,678,515,796],"next_num":4,"trial_type":"ticket-choose","trial_index":109,"time_elapsed":1234871,"internal_node_id":"0.0-109.0"},{"result":153,"points":3,"place":0,"phase":1,"sequence":37,"prices":[177,174,186,217,165,181,187,166,153,209],"times":[661,415,453,352,398,461,498,491,960],"next_num":9,"trial_type":"ticket-choose","trial_index":110,"time_elapsed":1243110,"internal_node_id":"0.0-110.0"},{"result":156,"points":3,"place":0,"phase":1,"sequence":38,"prices":[167,174,186,211,178,181,188,168,208,156],"times":[622,421,376,367,391,469,462,490,726,717],"next_num":10,"trial_type":"ticket-choose","trial_index":111,"time_elapsed":1251835,"internal_node_id":"0.0-111.0"},{"result":164,"points":3,"place":0,"phase":1,"sequence":39,"prices":[199,191,188,174,167,193,189,164,176,170],"times":[622,437,422,423,422,506,485,813],"next_num":8,"trial_type":"ticket-choose","trial_index":112,"time_elapsed":1259263,"internal_node_id":"0.0-112.0"},{"result":154,"points":2,"place":1,"phase":1,"sequence":40,"prices":[200,180,203,152,175,170,160,154,176,191],"times":[579,405,305,357,390,313,501,843],"next_num":8,"trial_type":"ticket-choose","trial_index":113,"time_elapsed":1266214,"internal_node_id":"0.0-113.0"},{"result":165,"points":3,"place":0,"phase":1,"sequence":41,"prices":[189,167,180,197,165,168,172,213,178,171],"times":[512,391,390,475,866],"next_num":5,"trial_type":"ticket-choose","trial_index":114,"time_elapsed":1271476,"internal_node_id":"0.0-114.0"},{"result":155,"points":2,"place":1,"phase":1,"sequence":42,"prices":[200,207,155,158,156,168,167,135,178,177],"times":[432,391,875],"next_num":3,"trial_type":"ticket-choose","trial_index":115,"time_elapsed":1275310,"internal_node_id":"0.0-115.0"},{"result":227,"points":0,"place":9,"phase":1,"sequence":43,"prices":[167,153,172,185,195,143,184,211,177,227],"times":[423,328,369,280,344,391,1255,640,608,826],"next_num":11,"trial_type":"ticket-choose","trial_index":116,"time_elapsed":1284478,"internal_node_id":"0.0-116.0"},{"result":199,"points":0,"place":8,"phase":1,"sequence":44,"prices":[190,150,175,161,188,207,157,194,178,199],"times":[453,430,570,359,320,320,1091,571,538,571],"next_num":11,"trial_type":"ticket-choose","trial_index":117,"time_elapsed":1293569,"internal_node_id":"0.0-117.0"},{"result":153,"points":3,"place":0,"phase":1,"sequence":45,"prices":[165,175,186,214,177,179,187,166,153,208],"times":[698,515,446,476,498,509,514,780,1163],"next_num":9,"trial_type":"ticket-choose","trial_index":118,"time_elapsed":1302734,"internal_node_id":"0.0-118.0"},{"result":202,"points":0,"place":8,"phase":1,"sequence":46,"prices":[196,171,170,184,187,165,211,169,201,202],"times":[673,282,374,439,483,437,491,492,514,780],"next_num":11,"trial_type":"ticket-choose","trial_index":119,"time_elapsed":1311347,"internal_node_id":"0.0-119.0"},{"result":154,"points":3,"place":0,"phase":1,"sequence":47,"prices":[163,175,187,209,176,180,188,165,154,208],"times":[847,468,438,514,579,522,530,945,891],"next_num":9,"trial_type":"ticket-choose","trial_index":120,"time_elapsed":1320412,"internal_node_id":"0.0-120.0"},{"result":156,"points":3,"place":0,"phase":1,"sequence":48,"prices":[178,175,185,215,167,181,186,168,208,156],"times":[432,439,397,648,514,530,563,515,584,899],"next_num":10,"trial_type":"ticket-choose","trial_index":121,"time_elapsed":1329642,"internal_node_id":"0.0-121.0"},{"result":153,"points":3,"place":0,"phase":1,"sequence":49,"prices":[176,175,186,210,163,179,187,166,153,208],"times":[1015,386,382,468,741,515,501,756,821],"next_num":9,"trial_type":"ticket-choose","trial_index":122,"time_elapsed":1338786,"internal_node_id":"0.0-122.0"},{"responses":[{"value":0,"offby":-1,"category":"$115 - $130","category_index":0},{"value":0,"offby":-5,"category":"$131 - $145","category_index":1},{"value":10,"offby":-2,"category":"$146 - $160","category_index":2},{"value":60,"offby":38,"category":"$161 - $175","category_index":3},{"value":20,"offby":-14,"category":"$176 - $190","category_index":4},{"value":5,"offby":-10,"category":"$191 - $205","category_index":5},{"value":5,"offby":-6,"category":"$206 - $220","category_index":6}],"phase":1,"number":1,"trial_type":"bar-choose","trial_index":123,"time_elapsed":1365760,"internal_node_id":"0.0-123.0"},{"special_comment":"no","trial_type":"special_sequence","trial_index":124,"time_elapsed":1371893,"internal_node_id":"0.0-124.0"},{"during":"Nothing","bonus":288,"trial_type":"final","trial_index":125,"time_elapsed":1394211,"internal_node_id":"0.0-125.0"}],"bonus":288}