{"start_time":"2017-05-24 12:18:49","end_time":"2017-05-24 12:40:37","points_phase0":100,"points_phase1":99,"phase_order":0,"age":40,"gender":"f","tries":1,"during":"Nothing","worker_id":"A5OJ7FHDAEHR9","assignment_id":"326O153BMJRMYSQWMJ01YL2FFO0DEU","data":[{"rt":19774,"url":"\/christiane\/tickets\/utils\/consent.html","trial_type":"html","trial_index":0,"time_elapsed":19903,"internal_node_id":"0.0-0.0"},{"age":40,"gender":"f","trial_type":"age","trial_index":1,"time_elapsed":25856,"internal_node_id":"0.0-1.0"},{"worker_id":"A5OJ7FHDAEHR9","trial_type":"workerid","trial_index":2,"time_elapsed":34286,"internal_node_id":"0.0-2.0"},{"tries":1,"trial_type":"instructions_check","trial_index":3,"time_elapsed":67238,"internal_node_id":"0.0-3.0"},{"rt":26082,"url":"\/christiane\/tickets\/utils\/start.html","trial_type":"html","trial_index":4,"time_elapsed":94377,"internal_node_id":"0.0-4.0"},{"trial_type":"number-animation","trial_index":5,"time_elapsed":106165,"internal_node_id":"0.0-5.0"},{"phase":0,"sequence":0,"avg":181,"response":180,"trial_type":"training_avg","trial_index":6,"time_elapsed":114902,"internal_node_id":"0.0-6.0"},{"trial_type":"number-animation","trial_index":7,"time_elapsed":131678,"internal_node_id":"0.0-7.0"},{"phase":0,"sequence":1,"avg":188,"response":190,"trial_type":"training_avg","trial_index":8,"time_elapsed":139239,"internal_node_id":"0.0-8.0"},{"trial_type":"number-animation","trial_index":9,"time_elapsed":156414,"internal_node_id":"0.0-9.0"},{"phase":0,"sequence":2,"avg":188,"response":180,"trial_type":"training_avg","trial_index":10,"time_elapsed":167015,"internal_node_id":"0.0-10.0"},{"trial_type":"number-animation","trial_index":11,"time_elapsed":177758,"internal_node_id":"0.0-11.0"},{"phase":0,"sequence":3,"avg":177,"response":180,"trial_type":"training_avg","trial_index":12,"time_elapsed":186195,"internal_node_id":"0.0-12.0"},{"trial_type":"number-animation","trial_index":13,"time_elapsed":209234,"internal_node_id":"0.0-13.0"},{"phase":0,"sequence":4,"avg":182,"response":180,"trial_type":"training_avg","trial_index":14,"time_elapsed":218147,"internal_node_id":"0.0-14.0"},{"responses":[{"value":4,"offby":3,"category":"$115 - $130","category_index":0},{"value":4,"offby":-1,"category":"$131 - $145","category_index":1},{"value":15,"offby":3,"category":"$146 - $160","category_index":2},{"value":27,"offby":5,"category":"$161 - $175","category_index":3},{"value":37,"offby":3,"category":"$176 - $190","category_index":4},{"value":9,"offby":-6,"category":"$191 - $205","category_index":5},{"value":4,"offby":-7,"category":"$206 - $220","category_index":6}],"phase":0,"number":0,"trial_type":"bar-choose","trial_index":15,"time_elapsed":357402,"internal_node_id":"0.0-15.0"},{"rt":25344,"url":"\/christiane\/tickets\/utils\/testing.html","trial_type":"html","trial_index":16,"time_elapsed":383882,"internal_node_id":"0.0-16.0"},{"phase":0,"order":[38,22,12,18,8,37,41,10,6,42,17,24,7,29,45,31,40,23,47,4,46,49,19,21,0,35,14,2,34,1,48,16,26,15,43,3,5,36,20,25,32,33,39,30,11,27,13,28,44,9],"trial_type":"store_order","trial_index":17,"time_elapsed":384883,"internal_node_id":"0.0-17.0"},{"result":165,"points":2,"place":1,"phase":0,"sequence":-1,"prices":[184,180,224,165,181,199,185,193,218,146],"times":[3029,1030,790,1334],"next_num":4,"trial_type":"ticket-choose","trial_index":18,"time_elapsed":394411,"internal_node_id":"0.0-18.0"},{"rt":20346,"url":"\/christiane\/tickets\/utils\/testing_after.html","trial_type":"html","trial_index":19,"time_elapsed":415811,"internal_node_id":"0.0-19.0"},{"result":168,"points":1,"place":2,"phase":0,"sequence":0,"prices":[168,199,196,198,185,195,227,163,177,166],"times":[2572],"next_num":1,"trial_type":"ticket-choose","trial_index":20,"time_elapsed":421220,"internal_node_id":"0.0-20.0"},{"result":158,"points":2,"place":1,"phase":0,"sequence":1,"prices":[175,186,177,209,181,188,158,167,208,154],"times":[1142,687,1151,703,871,860,935],"next_num":7,"trial_type":"ticket-choose","trial_index":21,"time_elapsed":431185,"internal_node_id":"0.0-21.0"},{"result":166,"points":1,"place":2,"phase":0,"sequence":2,"prices":[175,186,163,214,179,187,176,166,153,208],"times":[1019,671,1870,633,675,765,790,986],"next_num":8,"trial_type":"ticket-choose","trial_index":22,"time_elapsed":442277,"internal_node_id":"0.0-22.0"},{"result":158,"points":2,"place":1,"phase":0,"sequence":3,"prices":[175,186,158,211,180,187,177,166,209,153],"times":[984,694,991],"next_num":3,"trial_type":"ticket-choose","trial_index":23,"time_elapsed":447780,"internal_node_id":"0.0-23.0"},{"result":153,"points":3,"place":0,"phase":0,"sequence":4,"prices":[174,186,165,212,181,187,177,167,153,209],"times":[984,903,783,670,1142,663,1205,3615,1135],"next_num":9,"trial_type":"ticket-choose","trial_index":24,"time_elapsed":463053,"internal_node_id":"0.0-24.0"},{"result":152,"points":3,"place":0,"phase":0,"sequence":5,"prices":[198,193,169,163,202,182,152,164,177,171],"times":[1328,502,487,510,639,630,806],"next_num":7,"trial_type":"ticket-choose","trial_index":25,"time_elapsed":471190,"internal_node_id":"0.0-25.0"},{"result":155,"points":2,"place":1,"phase":0,"sequence":6,"prices":[201,207,155,158,156,165,167,135,178,177],"times":[774,486,1158],"next_num":3,"trial_type":"ticket-choose","trial_index":26,"time_elapsed":475973,"internal_node_id":"0.0-26.0"},{"result":165,"points":2,"place":1,"phase":0,"sequence":7,"prices":[175,187,177,209,180,188,165,165,154,208],"times":[744,483,481,588,575,559,879],"next_num":7,"trial_type":"ticket-choose","trial_index":27,"time_elapsed":483402,"internal_node_id":"0.0-27.0"},{"result":153,"points":3,"place":0,"phase":0,"sequence":8,"prices":[175,186,165,214,179,187,177,166,153,208],"times":[887,471,382,671,663,590,574,2207,855],"next_num":9,"trial_type":"ticket-choose","trial_index":28,"time_elapsed":494241,"internal_node_id":"0.0-28.0"},{"result":143,"points":3,"place":0,"phase":0,"sequence":9,"prices":[222,173,202,197,143,205,198,183,178,186],"times":[888,451,563,630,959],"next_num":5,"trial_type":"ticket-choose","trial_index":29,"time_elapsed":500386,"internal_node_id":"0.0-29.0"},{"result":163,"points":2,"place":1,"phase":0,"sequence":10,"prices":[174,186,176,217,181,187,163,166,153,209],"times":[783,735,606,718,1630,693,1072],"next_num":7,"trial_type":"ticket-choose","trial_index":30,"time_elapsed":509802,"internal_node_id":"0.0-30.0"},{"result":184,"points":1,"place":4,"phase":0,"sequence":11,"prices":[193,165,175,181,185,224,180,199,218,184],"times":[894,1782,775,855,645,678,950,1911,733,2215],"next_num":10,"trial_type":"ticket-choose","trial_index":31,"time_elapsed":525234,"internal_node_id":"0.0-31.0"},{"result":165,"points":2,"place":1,"phase":0,"sequence":12,"prices":[175,187,165,209,180,188,177,166,154,208],"times":[1214,591,943],"next_num":3,"trial_type":"ticket-choose","trial_index":32,"time_elapsed":530322,"internal_node_id":"0.0-32.0"},{"result":165,"points":3,"place":0,"phase":0,"sequence":13,"prices":[185,170,182,201,173,199,171,188,165,168],"times":[759,2160,766,606,583,704,602,1446,1207],"next_num":9,"trial_type":"ticket-choose","trial_index":33,"time_elapsed":543000,"internal_node_id":"0.0-33.0"},{"result":164,"points":3,"place":0,"phase":0,"sequence":14,"prices":[212,192,188,184,167,193,189,164,176,170],"times":[574,782,509,1406,2174,655,606,1120],"next_num":8,"trial_type":"ticket-choose","trial_index":34,"time_elapsed":554278,"internal_node_id":"0.0-34.0"},{"result":167,"points":1,"place":2,"phase":0,"sequence":15,"prices":[171,203,175,170,167,220,192,186,165,165],"times":[833,991,590,448,3159],"next_num":5,"trial_type":"ticket-choose","trial_index":35,"time_elapsed":563173,"internal_node_id":"0.0-35.0"},{"result":150,"points":3,"place":0,"phase":0,"sequence":16,"prices":[189,150,175,160,188,207,158,194,178,199],"times":[1457,993],"next_num":2,"trial_type":"ticket-choose","trial_index":36,"time_elapsed":568006,"internal_node_id":"0.0-36.0"},{"result":158,"points":2,"place":1,"phase":0,"sequence":17,"prices":[176,187,177,225,181,187,158,165,208,153],"times":[1008,655,719,591,767,845,1025],"next_num":7,"trial_type":"ticket-choose","trial_index":37,"time_elapsed":577254,"internal_node_id":"0.0-37.0"},{"result":152,"points":3,"place":0,"phase":0,"sequence":18,"prices":[200,181,203,152,175,171,160,154,176,191],"times":[719,625,636,1200],"next_num":4,"trial_type":"ticket-choose","trial_index":38,"time_elapsed":583215,"internal_node_id":"0.0-38.0"},{"result":167,"points":2,"place":1,"phase":0,"sequence":19,"prices":[175,185,178,215,181,186,167,168,208,156],"times":[1718,559,637,1037,591,606,2577],"next_num":7,"trial_type":"ticket-choose","trial_index":39,"time_elapsed":594070,"internal_node_id":"0.0-39.0"},{"result":158,"points":3,"place":0,"phase":0,"sequence":20,"prices":[210,184,226,193,215,158,199,175,176,208],"times":[1086,669,592,634,592,1565],"next_num":6,"trial_type":"ticket-choose","trial_index":40,"time_elapsed":602291,"internal_node_id":"0.0-40.0"},{"result":183,"points":0,"place":6,"phase":0,"sequence":21,"prices":[183,163,185,180,166,148,160,186,176,184],"times":[1001],"next_num":1,"trial_type":"ticket-choose","trial_index":41,"time_elapsed":608172,"internal_node_id":"0.0-41.0"},{"result":158,"points":2,"place":1,"phase":0,"sequence":22,"prices":[175,186,158,209,181,188,177,167,208,154],"times":[757,1102,1017],"next_num":3,"trial_type":"ticket-choose","trial_index":42,"time_elapsed":613890,"internal_node_id":"0.0-42.0"},{"result":158,"points":2,"place":1,"phase":0,"sequence":23,"prices":[175,186,177,221,180,187,158,166,209,153],"times":[1088,655,638,943,638,526,1072],"next_num":7,"trial_type":"ticket-choose","trial_index":43,"time_elapsed":623700,"internal_node_id":"0.0-43.0"},{"result":156,"points":3,"place":0,"phase":0,"sequence":24,"prices":[174,186,167,211,181,188,178,168,208,156],"times":[1197,703,1439,607,509,512,526,2750,910,993],"next_num":10,"trial_type":"ticket-choose","trial_index":44,"time_elapsed":638347,"internal_node_id":"0.0-44.0"},{"result":154,"points":2,"place":1,"phase":0,"sequence":25,"prices":[168,154,172,185,195,144,184,211,177,227],"times":[2951,1079],"next_num":2,"trial_type":"ticket-choose","trial_index":45,"time_elapsed":644563,"internal_node_id":"0.0-45.0"},{"result":166,"points":1,"place":2,"phase":0,"sequence":26,"prices":[174,186,163,212,181,187,176,166,153,209],"times":[1023,735,1981,639,670,590,751,2031],"next_num":8,"trial_type":"ticket-choose","trial_index":46,"time_elapsed":656626,"internal_node_id":"0.0-46.0"},{"result":169,"points":1,"place":2,"phase":0,"sequence":27,"prices":[175,186,167,225,179,187,178,169,209,153],"times":[1964,751,1775,622,557,591,1005,1736],"next_num":8,"trial_type":"ticket-choose","trial_index":47,"time_elapsed":669647,"internal_node_id":"0.0-47.0"},{"result":155,"points":2,"place":1,"phase":0,"sequence":28,"prices":[181,155,148,161,168,187,172,199,176,194],"times":[1181,993],"next_num":2,"trial_type":"ticket-choose","trial_index":48,"time_elapsed":674657,"internal_node_id":"0.0-48.0"},{"result":168,"points":1,"place":2,"phase":0,"sequence":29,"prices":[175,185,167,224,181,186,178,168,208,156],"times":[1614,1950,958,543,575,541,510,1193],"next_num":8,"trial_type":"ticket-choose","trial_index":49,"time_elapsed":686174,"internal_node_id":"0.0-49.0"},{"result":147,"points":3,"place":0,"phase":0,"sequence":30,"prices":[181,215,169,147,182,193,177,184,176,179],"times":[767,942,543,894],"next_num":4,"trial_type":"ticket-choose","trial_index":50,"time_elapsed":691984,"internal_node_id":"0.0-50.0"},{"result":163,"points":2,"place":1,"phase":0,"sequence":31,"prices":[175,187,176,209,180,188,163,165,154,208],"times":[1486,1343,622,878,849,956,983],"next_num":7,"trial_type":"ticket-choose","trial_index":51,"time_elapsed":702686,"internal_node_id":"0.0-51.0"},{"result":165,"points":2,"place":1,"phase":0,"sequence":32,"prices":[200,165,165,173,182,207,161,202,204,180],"times":[1057,1783],"next_num":2,"trial_type":"ticket-choose","trial_index":52,"time_elapsed":707775,"internal_node_id":"0.0-52.0"},{"result":163,"points":2,"place":1,"phase":0,"sequence":33,"prices":[175,186,176,210,179,187,163,166,153,208],"times":[960,1007,622,526,655,622,1208],"next_num":7,"trial_type":"ticket-choose","trial_index":53,"time_elapsed":716671,"internal_node_id":"0.0-53.0"},{"result":157,"points":3,"place":0,"phase":0,"sequence":34,"prices":[201,187,157,184,198,179,188,185,178,170],"times":[828,703,1064],"next_num":3,"trial_type":"ticket-choose","trial_index":54,"time_elapsed":722028,"internal_node_id":"0.0-54.0"},{"result":167,"points":2,"place":1,"phase":0,"sequence":35,"prices":[174,186,178,217,181,188,167,168,208,156],"times":[735,751,527,510,800,557,1312],"next_num":7,"trial_type":"ticket-choose","trial_index":55,"time_elapsed":730460,"internal_node_id":"0.0-55.0"},{"result":167,"points":2,"place":1,"phase":0,"sequence":36,"prices":[175,186,178,212,179,187,167,169,209,153],"times":[735,622,591,607,526,510,3161],"next_num":7,"trial_type":"ticket-choose","trial_index":56,"time_elapsed":740411,"internal_node_id":"0.0-56.0"},{"result":154,"points":3,"place":0,"phase":0,"sequence":37,"prices":[188,200,165,172,198,174,177,154,177,180],"times":[705,623,591,717,813,575,575,1032],"next_num":8,"trial_type":"ticket-choose","trial_index":57,"time_elapsed":749533,"internal_node_id":"0.0-57.0"},{"result":158,"points":2,"place":1,"phase":0,"sequence":38,"prices":[176,187,158,210,181,187,177,165,208,153],"times":[830,495,1064],"next_num":3,"trial_type":"ticket-choose","trial_index":58,"time_elapsed":754251,"internal_node_id":"0.0-58.0"},{"result":162,"points":3,"place":0,"phase":0,"sequence":39,"prices":[201,165,162,166,185,214,165,202,204,179],"times":[864,1566,4224],"next_num":3,"trial_type":"ticket-choose","trial_index":59,"time_elapsed":763676,"internal_node_id":"0.0-59.0"},{"result":190,"points":0,"place":6,"phase":0,"sequence":40,"prices":[193,169,171,187,190,224,174,194,165,188],"times":[1056,847,671,799,1439],"next_num":5,"trial_type":"ticket-choose","trial_index":60,"time_elapsed":773596,"internal_node_id":"0.0-60.0"},{"result":168,"points":1,"place":2,"phase":0,"sequence":41,"prices":[183,182,192,168,173,205,167,187,165,170],"times":[734,687,718,1420],"next_num":4,"trial_type":"ticket-choose","trial_index":61,"time_elapsed":780225,"internal_node_id":"0.0-61.0"},{"result":171,"points":1,"place":3,"phase":0,"sequence":42,"prices":[189,167,180,197,165,168,172,213,178,171],"times":[1111,607,687,638,703,718,671,542,1566,1377],"next_num":10,"trial_type":"ticket-choose","trial_index":62,"time_elapsed":792920,"internal_node_id":"0.0-62.0"},{"result":169,"points":2,"place":1,"phase":0,"sequence":43,"prices":[191,172,169,175,182,203,170,195,165,176],"times":[688,862,961],"next_num":3,"trial_type":"ticket-choose","trial_index":63,"time_elapsed":797896,"internal_node_id":"0.0-63.0"},{"result":165,"points":2,"place":1,"phase":0,"sequence":44,"prices":[174,186,177,217,181,187,165,166,153,209],"times":[1106,796,590,703,623,815,1007],"next_num":7,"trial_type":"ticket-choose","trial_index":64,"time_elapsed":806791,"internal_node_id":"0.0-64.0"},{"result":165,"points":3,"place":0,"phase":0,"sequence":45,"prices":[192,165,171,178,188,217,172,195,197,186],"times":[1008,2863],"next_num":2,"trial_type":"ticket-choose","trial_index":65,"time_elapsed":813511,"internal_node_id":"0.0-65.0"},{"result":163,"points":2,"place":1,"phase":0,"sequence":46,"prices":[175,187,163,209,180,188,176,165,154,208],"times":[833,591,1271],"next_num":3,"trial_type":"ticket-choose","trial_index":66,"time_elapsed":818903,"internal_node_id":"0.0-66.0"},{"result":185,"points":1,"place":4,"phase":0,"sequence":47,"prices":[196,165,170,184,187,211,171,201,202,185],"times":[1276,1662,590,847,894,815,847,1182,751,1328],"next_num":10,"trial_type":"ticket-choose","trial_index":67,"time_elapsed":834199,"internal_node_id":"0.0-67.0"},{"result":159,"points":1,"place":2,"phase":0,"sequence":48,"prices":[180,159,149,175,185,141,163,174,178,207],"times":[831,960],"next_num":2,"trial_type":"ticket-choose","trial_index":68,"time_elapsed":838900,"internal_node_id":"0.0-68.0"},{"result":165,"points":2,"place":1,"phase":0,"sequence":49,"prices":[175,186,177,210,179,187,165,166,153,208],"times":[832,702,588,573,590,735,912],"next_num":7,"trial_type":"ticket-choose","trial_index":69,"time_elapsed":847543,"internal_node_id":"0.0-69.0"},{"responses":[{"value":0,"offby":-1,"category":"$115 - $130","category_index":0},{"value":8,"offby":3,"category":"$131 - $145","category_index":1},{"value":8,"offby":-4,"category":"$146 - $160","category_index":2},{"value":21,"offby":-1,"category":"$161 - $175","category_index":3},{"value":29,"offby":-5,"category":"$176 - $190","category_index":4},{"value":25,"offby":10,"category":"$191 - $205","category_index":5},{"value":9,"offby":-2,"category":"$206 - $220","category_index":6}],"phase":1,"number":1,"trial_type":"bar-choose","trial_index":70,"time_elapsed":890056,"internal_node_id":"0.0-70.0"},{"rt":32342,"url":"\/christiane\/tickets\/utils\/testing2.html","trial_type":"point_update","trial_index":71,"time_elapsed":923555,"internal_node_id":"0.0-71.0"},{"phase":1,"order":[38,27,18,23,16,28,30,45,21,37,43,42,32,26,39,22,13,15,0,8,24,29,1,19,2,14,41,20,44,6,10,7,46,25,5,49,31,12,47,9,3,33,48,11,40,36,4,17,34,35],"trial_type":"store_order","trial_index":72,"time_elapsed":924557,"internal_node_id":"0.0-72.0"},{"result":163,"points":3,"place":0,"phase":1,"sequence":0,"prices":[163,199,196,199,185,195,227,163,177,166],"times":[3011,590,638,958,606,687,1056,2112],"next_num":8,"trial_type":"ticket-choose","trial_index":73,"time_elapsed":940356,"internal_node_id":"0.0-73.0"},{"result":165,"points":3,"place":0,"phase":1,"sequence":1,"prices":[192,172,171,178,188,165,217,168,195,197],"times":[924,639,558,703,621,889],"next_num":6,"trial_type":"ticket-choose","trial_index":74,"time_elapsed":948000,"internal_node_id":"0.0-74.0"},{"result":158,"points":2,"place":1,"phase":1,"sequence":2,"prices":[158,175,186,211,177,180,187,166,209,153],"times":[1418],"next_num":1,"trial_type":"ticket-choose","trial_index":75,"time_elapsed":951377,"internal_node_id":"0.0-75.0"},{"result":158,"points":2,"place":1,"phase":1,"sequence":3,"prices":[177,176,187,225,158,181,187,165,208,153],"times":[768,543,638,529,925],"next_num":5,"trial_type":"ticket-choose","trial_index":76,"time_elapsed":957953,"internal_node_id":"0.0-76.0"},{"result":163,"points":2,"place":1,"phase":1,"sequence":4,"prices":[176,187,179,209,163,180,188,165,154,208],"times":[1545,495,511,573,936],"next_num":5,"trial_type":"ticket-choose","trial_index":77,"time_elapsed":964862,"internal_node_id":"0.0-77.0"},{"result":165,"points":3,"place":0,"phase":1,"sequence":5,"prices":[196,171,170,184,187,165,211,169,201,202],"times":[655,558,446,526,719,1294],"next_num":6,"trial_type":"ticket-choose","trial_index":78,"time_elapsed":972078,"internal_node_id":"0.0-78.0"},{"result":165,"points":2,"place":1,"phase":1,"sequence":6,"prices":[191,170,182,165,175,182,203,157,195,200],"times":[702,510,655,944],"next_num":4,"trial_type":"ticket-choose","trial_index":79,"time_elapsed":977438,"internal_node_id":"0.0-79.0"},{"result":167,"points":2,"place":1,"phase":1,"sequence":7,"prices":[199,191,188,174,167,193,189,164,176,170],"times":[832,462,478,512,824],"next_num":5,"trial_type":"ticket-choose","trial_index":80,"time_elapsed":983325,"internal_node_id":"0.0-80.0"},{"result":158,"points":2,"place":1,"phase":1,"sequence":8,"prices":[177,175,186,221,158,180,187,166,209,153],"times":[655,495,559,511,777],"next_num":5,"trial_type":"ticket-choose","trial_index":81,"time_elapsed":989086,"internal_node_id":"0.0-81.0"},{"result":169,"points":1,"place":3,"phase":1,"sequence":9,"prices":[199,193,169,165,202,182,151,164,176,171],"times":[638,574,968],"next_num":3,"trial_type":"ticket-choose","trial_index":82,"time_elapsed":993630,"internal_node_id":"0.0-82.0"},{"result":157,"points":3,"place":0,"phase":1,"sequence":10,"prices":[201,187,157,184,198,179,188,185,178,170],"times":[1022,576,744],"next_num":3,"trial_type":"ticket-choose","trial_index":83,"time_elapsed":998398,"internal_node_id":"0.0-83.0"},{"result":169,"points":3,"place":0,"phase":1,"sequence":11,"prices":[220,173,201,197,169,205,198,183,178,186],"times":[686,559,559,559,776],"next_num":5,"trial_type":"ticket-choose","trial_index":84,"time_elapsed":1004254,"internal_node_id":"0.0-84.0"},{"result":165,"points":2,"place":1,"phase":1,"sequence":12,"prices":[193,174,224,165,187,190,224,161,194,195],"times":[703,718,494,1016],"next_num":4,"trial_type":"ticket-choose","trial_index":85,"time_elapsed":1009726,"internal_node_id":"0.0-85.0"},{"result":169,"points":1,"place":3,"phase":1,"sequence":13,"prices":[200,173,182,169,207,165,152,202,161,204],"times":[575,511,639,783],"next_num":4,"trial_type":"ticket-choose","trial_index":86,"time_elapsed":1014622,"internal_node_id":"0.0-86.0"},{"result":165,"points":3,"place":0,"phase":1,"sequence":14,"prices":[189,167,180,197,165,168,172,213,178,171],"times":[816,413,604,559,804],"next_num":5,"trial_type":"ticket-choose","trial_index":87,"time_elapsed":1020410,"internal_node_id":"0.0-87.0"},{"result":158,"points":2,"place":1,"phase":1,"sequence":15,"prices":[177,175,186,209,158,181,188,167,208,154],"times":[606,558,575,590,816],"next_num":5,"trial_type":"ticket-choose","trial_index":88,"time_elapsed":1026441,"internal_node_id":"0.0-88.0"},{"result":163,"points":2,"place":1,"phase":1,"sequence":16,"prices":[163,175,187,209,176,180,188,165,154,208],"times":[1104],"next_num":1,"trial_type":"ticket-choose","trial_index":89,"time_elapsed":1029546,"internal_node_id":"0.0-89.0"},{"result":163,"points":2,"place":1,"phase":1,"sequence":17,"prices":[176,175,186,210,163,179,187,166,153,208],"times":[849,621,798,591,776],"next_num":5,"trial_type":"ticket-choose","trial_index":90,"time_elapsed":1036058,"internal_node_id":"0.0-90.0"},{"result":167,"points":2,"place":1,"phase":1,"sequence":18,"prices":[167,174,186,211,178,181,188,168,208,156],"times":[1513],"next_num":1,"trial_type":"ticket-choose","trial_index":91,"time_elapsed":1039578,"internal_node_id":"0.0-91.0"},{"result":165,"points":2,"place":1,"phase":1,"sequence":19,"prices":[165,174,186,212,177,181,187,166,153,209],"times":[880],"next_num":1,"trial_type":"ticket-choose","trial_index":92,"time_elapsed":1042442,"internal_node_id":"0.0-92.0"},{"result":165,"points":3,"place":0,"phase":1,"sequence":20,"prices":[193,181,175,181,185,165,224,199,218,184],"times":[1149,622,591,511,575,767],"next_num":6,"trial_type":"ticket-choose","trial_index":93,"time_elapsed":1050009,"internal_node_id":"0.0-93.0"},{"result":165,"points":1,"place":2,"phase":1,"sequence":21,"prices":[185,179,191,165,161,173,199,150,188,168],"times":[1216,738,556,735],"next_num":4,"trial_type":"ticket-choose","trial_index":94,"time_elapsed":1055786,"internal_node_id":"0.0-94.0"},{"result":167,"points":2,"place":1,"phase":1,"sequence":22,"prices":[167,175,185,224,178,181,186,168,208,156],"times":[1233],"next_num":1,"trial_type":"ticket-choose","trial_index":95,"time_elapsed":1059449,"internal_node_id":"0.0-95.0"},{"result":158,"points":2,"place":1,"phase":1,"sequence":23,"prices":[158,175,186,209,177,181,188,167,208,154],"times":[1033],"next_num":1,"trial_type":"ticket-choose","trial_index":96,"time_elapsed":1062457,"internal_node_id":"0.0-96.0"},{"result":167,"points":2,"place":1,"phase":1,"sequence":24,"prices":[167,175,186,225,178,179,187,169,209,153],"times":[1745],"next_num":1,"trial_type":"ticket-choose","trial_index":97,"time_elapsed":1066089,"internal_node_id":"0.0-97.0"},{"result":163,"points":2,"place":1,"phase":1,"sequence":25,"prices":[163,174,186,212,176,181,187,166,153,209],"times":[943],"next_num":1,"trial_type":"ticket-choose","trial_index":98,"time_elapsed":1069145,"internal_node_id":"0.0-98.0"},{"result":155,"points":2,"place":1,"phase":1,"sequence":26,"prices":[200,207,155,158,156,168,167,135,178,177],"times":[750,494,1000],"next_num":3,"trial_type":"ticket-choose","trial_index":99,"time_elapsed":1073898,"internal_node_id":"0.0-99.0"},{"result":158,"points":2,"place":1,"phase":1,"sequence":27,"prices":[158,176,187,210,177,181,187,165,208,153],"times":[1248],"next_num":1,"trial_type":"ticket-choose","trial_index":100,"time_elapsed":1077514,"internal_node_id":"0.0-100.0"},{"result":159,"points":1,"place":2,"phase":1,"sequence":28,"prices":[181,159,149,175,185,151,163,174,178,207],"times":[875,936],"next_num":2,"trial_type":"ticket-choose","trial_index":101,"time_elapsed":1081558,"internal_node_id":"0.0-101.0"},{"result":166,"points":1,"place":2,"phase":1,"sequence":29,"prices":[165,175,186,214,177,179,187,166,153,208],"times":[1119,704,622,607,557,562,765,984],"next_num":8,"trial_type":"ticket-choose","trial_index":102,"time_elapsed":1091159,"internal_node_id":"0.0-102.0"},{"result":165,"points":2,"place":1,"phase":1,"sequence":30,"prices":[177,175,187,209,165,180,188,165,154,208],"times":[1262,559,607,591,791],"next_num":5,"trial_type":"ticket-choose","trial_index":103,"time_elapsed":1097783,"internal_node_id":"0.0-103.0"},{"result":165,"points":2,"place":1,"phase":1,"sequence":31,"prices":[165,175,187,209,177,180,188,167,154,208],"times":[1263],"next_num":1,"trial_type":"ticket-choose","trial_index":104,"time_elapsed":1101367,"internal_node_id":"0.0-104.0"},{"result":158,"points":3,"place":0,"phase":1,"sequence":32,"prices":[214,184,226,192,215,158,199,175,176,208],"times":[1471,782,623,640,559,952],"next_num":6,"trial_type":"ticket-choose","trial_index":105,"time_elapsed":1109559,"internal_node_id":"0.0-105.0"},{"result":166,"points":1,"place":3,"phase":1,"sequence":33,"prices":[201,204,179,166,185,165,214,156,202,165],"times":[911,655,959,1304],"next_num":4,"trial_type":"ticket-choose","trial_index":106,"time_elapsed":1116294,"internal_node_id":"0.0-106.0"},{"result":167,"points":2,"place":1,"phase":1,"sequence":34,"prices":[178,175,186,212,167,179,187,169,209,153],"times":[1007,574,1870,607,929],"next_num":5,"trial_type":"ticket-choose","trial_index":107,"time_elapsed":1124182,"internal_node_id":"0.0-107.0"},{"result":163,"points":1,"place":2,"phase":1,"sequence":35,"prices":[173,163,185,181,166,148,160,185,176,184],"times":[1455,1257],"next_num":2,"trial_type":"ticket-choose","trial_index":108,"time_elapsed":1129031,"internal_node_id":"0.0-108.0"},{"result":169,"points":0,"place":5,"phase":1,"sequence":36,"prices":[171,169,186,165,163,167,220,148,187,165],"times":[3439,992],"next_num":2,"trial_type":"ticket-choose","trial_index":109,"time_elapsed":1136246,"internal_node_id":"0.0-109.0"},{"result":163,"points":2,"place":1,"phase":1,"sequence":37,"prices":[163,175,186,214,176,179,187,166,153,208],"times":[1136],"next_num":1,"trial_type":"ticket-choose","trial_index":110,"time_elapsed":1139428,"internal_node_id":"0.0-110.0"},{"result":152,"points":3,"place":0,"phase":1,"sequence":38,"prices":[200,180,203,152,175,170,160,154,176,191],"times":[878,623,592,1335],"next_num":4,"trial_type":"ticket-choose","trial_index":111,"time_elapsed":1145444,"internal_node_id":"0.0-111.0"},{"result":165,"points":2,"place":1,"phase":1,"sequence":39,"prices":[177,175,186,210,165,179,187,166,153,208],"times":[1533,495,720,542,850],"next_num":5,"trial_type":"ticket-choose","trial_index":112,"time_elapsed":1152516,"internal_node_id":"0.0-112.0"},{"result":167,"points":2,"place":1,"phase":1,"sequence":40,"prices":[178,174,186,217,167,181,188,168,208,156],"times":[1295,813,494,766,1329],"next_num":5,"trial_type":"ticket-choose","trial_index":113,"time_elapsed":1160117,"internal_node_id":"0.0-113.0"},{"result":165,"points":2,"place":1,"phase":1,"sequence":41,"prices":[183,179,188,165,168,173,205,159,187,191],"times":[1871,2285,943,1008],"next_num":4,"trial_type":"ticket-choose","trial_index":114,"time_elapsed":1169700,"internal_node_id":"0.0-114.0"},{"result":179,"points":1,"place":4,"phase":1,"sequence":42,"prices":[181,214,169,147,182,193,178,184,176,179],"times":[1599,606,734,526,989,639,1118,751,1550,1281],"next_num":10,"trial_type":"ticket-choose","trial_index":115,"time_elapsed":1183749,"internal_node_id":"0.0-115.0"},{"result":165,"points":2,"place":1,"phase":1,"sequence":43,"prices":[177,174,186,217,165,181,187,166,153,209],"times":[638,591,1263,494,936],"next_num":5,"trial_type":"ticket-choose","trial_index":116,"time_elapsed":1190562,"internal_node_id":"0.0-116.0"},{"result":150,"points":3,"place":0,"phase":1,"sequence":44,"prices":[190,150,175,161,188,207,157,194,178,199],"times":[1232,1185],"next_num":2,"trial_type":"ticket-choose","trial_index":117,"time_elapsed":1195203,"internal_node_id":"0.0-117.0"},{"result":165,"points":2,"place":1,"phase":1,"sequence":45,"prices":[187,201,165,172,196,174,178,154,172,180],"times":[1200,574,1059],"next_num":3,"trial_type":"ticket-choose","trial_index":118,"time_elapsed":1200400,"internal_node_id":"0.0-118.0"},{"result":167,"points":2,"place":1,"phase":1,"sequence":46,"prices":[178,175,185,215,167,181,186,168,208,156],"times":[3167,654,542,1982,1032],"next_num":5,"trial_type":"ticket-choose","trial_index":119,"time_elapsed":1211087,"internal_node_id":"0.0-119.0"},{"result":163,"points":2,"place":1,"phase":1,"sequence":47,"prices":[176,186,178,217,163,181,187,166,153,209],"times":[3455,990,559,655,1440],"next_num":5,"trial_type":"ticket-choose","trial_index":120,"time_elapsed":1221616,"internal_node_id":"0.0-120.0"},{"result":156,"points":2,"place":1,"phase":1,"sequence":48,"prices":[180,156,149,160,168,186,172,198,176,195],"times":[1584,1678],"next_num":2,"trial_type":"ticket-choose","trial_index":121,"time_elapsed":1227183,"internal_node_id":"0.0-121.0"},{"result":167,"points":1,"place":2,"phase":1,"sequence":49,"prices":[167,153,172,185,195,143,184,211,177,227],"times":[2378],"next_num":1,"trial_type":"ticket-choose","trial_index":122,"time_elapsed":1234603,"internal_node_id":"0.0-122.0"},{"responses":[{"value":2,"offby":1,"category":"$115 - $130","category_index":0},{"value":10,"offby":5,"category":"$131 - $145","category_index":1},{"value":14,"offby":2,"category":"$146 - $160","category_index":2},{"value":23,"offby":1,"category":"$161 - $175","category_index":3},{"value":23,"offby":-11,"category":"$176 - $190","category_index":4},{"value":28,"offby":13,"category":"$191 - $205","category_index":5},{"value":0,"offby":-11,"category":"$206 - $220","category_index":6}],"phase":1,"number":1,"trial_type":"bar-choose","trial_index":123,"time_elapsed":1280329,"internal_node_id":"0.0-123.0"},{"special_comment":"No","trial_type":"special_sequence","trial_index":124,"time_elapsed":1286360,"internal_node_id":"0.0-124.0"},{"during":"Nothing","bonus":264,"trial_type":"final","trial_index":125,"time_elapsed":1305985,"internal_node_id":"0.0-125.0"}],"bonus":264}