{"start_time":"2017-05-24 17:21:38","end_time":"2017-05-24 17:42:59","points_phase0":119,"points_phase1":113,"phase_order":0,"age":29,"gender":"m","tries":1,"during":"Nothing","worker_id":"A94DL4GI8ZBUO","assignment_id":"3B1NLC6UG0PT73PDXNHKYI4G6OZGPB","data":[{"rt":20998,"url":"\/christiane\/tickets\/utils\/consent.html","trial_type":"html","trial_index":0,"time_elapsed":21803,"internal_node_id":"0.0-0.0"},{"age":29,"gender":"m","trial_type":"age","trial_index":1,"time_elapsed":27570,"internal_node_id":"0.0-1.0"},{"worker_id":"A94DL4GI8ZBUO","trial_type":"workerid","trial_index":2,"time_elapsed":34055,"internal_node_id":"0.0-2.0"},{"tries":1,"trial_type":"instructions_check","trial_index":3,"time_elapsed":57857,"internal_node_id":"0.0-3.0"},{"rt":7038,"url":"\/christiane\/tickets\/utils\/start.html","trial_type":"html","trial_index":4,"time_elapsed":66582,"internal_node_id":"0.0-4.0"},{"trial_type":"number-animation","trial_index":5,"time_elapsed":77735,"internal_node_id":"0.0-5.0"},{"phase":0,"sequence":0,"avg":181,"response":176,"trial_type":"training_avg","trial_index":6,"time_elapsed":88556,"internal_node_id":"0.0-6.0"},{"trial_type":"number-animation","trial_index":7,"time_elapsed":95614,"internal_node_id":"0.0-7.0"},{"phase":0,"sequence":1,"avg":188,"response":183,"trial_type":"training_avg","trial_index":8,"time_elapsed":102590,"internal_node_id":"0.0-8.0"},{"trial_type":"number-animation","trial_index":9,"time_elapsed":109944,"internal_node_id":"0.0-9.0"},{"phase":0,"sequence":2,"avg":188,"response":190,"trial_type":"training_avg","trial_index":10,"time_elapsed":118078,"internal_node_id":"0.0-10.0"},{"trial_type":"number-animation","trial_index":11,"time_elapsed":124933,"internal_node_id":"0.0-11.0"},{"phase":0,"sequence":3,"avg":177,"response":181,"trial_type":"training_avg","trial_index":12,"time_elapsed":132596,"internal_node_id":"0.0-12.0"},{"trial_type":"number-animation","trial_index":13,"time_elapsed":138596,"internal_node_id":"0.0-13.0"},{"phase":0,"sequence":4,"avg":182,"response":178,"trial_type":"training_avg","trial_index":14,"time_elapsed":146019,"internal_node_id":"0.0-14.0"},{"responses":[{"value":5,"offby":4,"category":"$115 - $130","category_index":0},{"value":10,"offby":5,"category":"$131 - $145","category_index":1},{"value":10,"offby":-2,"category":"$146 - $160","category_index":2},{"value":20,"offby":-2,"category":"$161 - $175","category_index":3},{"value":30,"offby":-4,"category":"$176 - $190","category_index":4},{"value":15,"offby":0,"category":"$191 - $205","category_index":5},{"value":10,"offby":-1,"category":"$206 - $220","category_index":6}],"phase":0,"number":0,"trial_type":"bar-choose","trial_index":15,"time_elapsed":266296,"internal_node_id":"0.0-15.0"},{"rt":15051,"url":"\/christiane\/tickets\/utils\/testing.html","trial_type":"html","trial_index":16,"time_elapsed":283031,"internal_node_id":"0.0-16.0"},{"phase":0,"order":[17,44,49,22,27,19,21,45,48,15,33,41,5,0,39,1,6,47,3,4,13,40,36,7,28,14,25,2,31,9,20,10,37,16,29,35,23,30,34,46,32,24,42,12,26,18,43,8,38,11],"trial_type":"store_order","trial_index":17,"time_elapsed":284032,"internal_node_id":"0.0-17.0"},{"result":146,"points":3,"place":0,"phase":0,"sequence":-1,"prices":[184,180,224,165,181,199,185,193,218,146],"times":[1801,1625,712,484,513,507,1549,685,804,1590],"next_num":10,"trial_type":"ticket-choose","trial_index":18,"time_elapsed":299393,"internal_node_id":"0.0-18.0"},{"rt":20099,"url":"\/christiane\/tickets\/utils\/testing_after.html","trial_type":"html","trial_index":19,"time_elapsed":321159,"internal_node_id":"0.0-19.0"},{"result":153,"points":3,"place":0,"phase":0,"sequence":0,"prices":[174,186,176,217,181,187,163,166,153,209],"times":[886,918,782,749,748,700,7301,1416,2137],"next_num":9,"trial_type":"ticket-choose","trial_index":20,"time_elapsed":343930,"internal_node_id":"0.0-20.0"},{"result":149,"points":2,"place":1,"phase":0,"sequence":1,"prices":[180,159,149,175,185,141,163,174,178,207],"times":[682,3177,2898],"next_num":3,"trial_type":"ticket-choose","trial_index":21,"time_elapsed":353957,"internal_node_id":"0.0-21.0"},{"result":148,"points":3,"place":0,"phase":0,"sequence":2,"prices":[183,163,185,180,166,148,160,186,176,184],"times":[750,457,582,477,821,1559],"next_num":6,"trial_type":"ticket-choose","trial_index":22,"time_elapsed":361950,"internal_node_id":"0.0-22.0"},{"result":158,"points":2,"place":1,"phase":0,"sequence":3,"prices":[175,186,177,209,181,188,158,167,208,154],"times":[659,468,448,498,511,515,3415],"next_num":7,"trial_type":"ticket-choose","trial_index":23,"time_elapsed":372698,"internal_node_id":"0.0-23.0"},{"result":186,"points":1,"place":4,"phase":0,"sequence":4,"prices":[192,165,171,178,188,217,172,195,197,186],"times":[550,326,498,412,488,545,600,678,647,1280],"next_num":10,"trial_type":"ticket-choose","trial_index":24,"time_elapsed":383191,"internal_node_id":"0.0-24.0"},{"result":158,"points":2,"place":1,"phase":0,"sequence":5,"prices":[175,186,158,209,181,188,177,167,208,154],"times":[1074,446,1376],"next_num":3,"trial_type":"ticket-choose","trial_index":25,"time_elapsed":388607,"internal_node_id":"0.0-25.0"},{"result":158,"points":2,"place":1,"phase":0,"sequence":6,"prices":[175,186,177,221,180,187,158,166,209,153],"times":[432,430,470,476,458,643,2135],"next_num":7,"trial_type":"ticket-choose","trial_index":26,"time_elapsed":397109,"internal_node_id":"0.0-26.0"},{"result":164,"points":3,"place":0,"phase":0,"sequence":7,"prices":[212,192,188,184,167,193,189,164,176,170],"times":[541,416,571,534,983,489,598,1821],"next_num":8,"trial_type":"ticket-choose","trial_index":27,"time_elapsed":406794,"internal_node_id":"0.0-27.0"},{"result":179,"points":1,"place":4,"phase":0,"sequence":8,"prices":[181,215,169,147,182,193,177,184,176,179],"times":[500,427,426,415,561,479,477,495,907,1505],"next_num":10,"trial_type":"ticket-choose","trial_index":28,"time_elapsed":417286,"internal_node_id":"0.0-28.0"},{"result":163,"points":2,"place":1,"phase":0,"sequence":9,"prices":[175,186,176,210,179,187,163,166,153,208],"times":[484,461,464,474,541,582,2280],"next_num":7,"trial_type":"ticket-choose","trial_index":29,"time_elapsed":426320,"internal_node_id":"0.0-29.0"},{"result":165,"points":3,"place":0,"phase":0,"sequence":10,"prices":[183,182,192,168,173,205,167,187,165,170],"times":[808,606,457,969,559,487,1244,584,1982],"next_num":9,"trial_type":"ticket-choose","trial_index":30,"time_elapsed":438521,"internal_node_id":"0.0-30.0"},{"result":155,"points":2,"place":1,"phase":0,"sequence":11,"prices":[201,207,155,158,156,165,167,135,178,177],"times":[1107,494,1887],"next_num":3,"trial_type":"ticket-choose","trial_index":31,"time_elapsed":445220,"internal_node_id":"0.0-31.0"},{"result":153,"points":3,"place":0,"phase":0,"sequence":12,"prices":[175,186,178,212,179,187,167,169,209,153],"times":[480,397,426,457,569,521,936,836,660,1420],"next_num":10,"trial_type":"ticket-choose","trial_index":32,"time_elapsed":455923,"internal_node_id":"0.0-32.0"},{"result":156,"points":3,"place":0,"phase":0,"sequence":13,"prices":[174,186,167,211,181,188,178,168,208,156],"times":[2196,4767,764,542,530,494,452,1983,511,1290],"next_num":10,"trial_type":"ticket-choose","trial_index":33,"time_elapsed":473470,"internal_node_id":"0.0-33.0"},{"result":165,"points":3,"place":0,"phase":0,"sequence":14,"prices":[189,167,180,197,165,168,172,213,178,171],"times":[968,808,390,561,2570],"next_num":5,"trial_type":"ticket-choose","trial_index":34,"time_elapsed":481717,"internal_node_id":"0.0-34.0"},{"result":156,"points":3,"place":0,"phase":0,"sequence":15,"prices":[175,185,167,224,181,186,178,168,208,156],"times":[723,481,603,474,498,508,500,2084,473,1774],"next_num":10,"trial_type":"ticket-choose","trial_index":35,"time_elapsed":494100,"internal_node_id":"0.0-35.0"},{"result":153,"points":3,"place":0,"phase":0,"sequence":16,"prices":[175,186,165,214,179,187,177,166,153,208],"times":[620,539,894,517,594,581,572,1977,1532],"next_num":9,"trial_type":"ticket-choose","trial_index":36,"time_elapsed":505642,"internal_node_id":"0.0-36.0"},{"result":152,"points":3,"place":0,"phase":0,"sequence":17,"prices":[200,181,203,152,175,171,160,154,176,191],"times":[653,512,605,1388],"next_num":4,"trial_type":"ticket-choose","trial_index":37,"time_elapsed":511704,"internal_node_id":"0.0-37.0"},{"result":156,"points":3,"place":0,"phase":0,"sequence":18,"prices":[174,186,178,217,181,188,167,168,208,156],"times":[463,537,464,476,519,525,1112,800,498,1197],"next_num":10,"trial_type":"ticket-choose","trial_index":38,"time_elapsed":522288,"internal_node_id":"0.0-38.0"},{"result":156,"points":3,"place":0,"phase":0,"sequence":19,"prices":[175,185,178,215,181,186,167,168,208,156],"times":[759,538,588,452,570,509,1162,755,478,1409],"next_num":10,"trial_type":"ticket-choose","trial_index":39,"time_elapsed":535102,"internal_node_id":"0.0-39.0"},{"result":163,"points":2,"place":1,"phase":0,"sequence":20,"prices":[175,187,163,209,180,188,176,165,154,208],"times":[708,476,2091],"next_num":3,"trial_type":"ticket-choose","trial_index":40,"time_elapsed":540839,"internal_node_id":"0.0-40.0"},{"result":150,"points":3,"place":0,"phase":0,"sequence":21,"prices":[189,150,175,160,188,207,158,194,178,199],"times":[654,1786],"next_num":2,"trial_type":"ticket-choose","trial_index":41,"time_elapsed":545911,"internal_node_id":"0.0-41.0"},{"result":154,"points":3,"place":0,"phase":0,"sequence":22,"prices":[188,200,165,172,198,174,177,154,177,180],"times":[448,482,1505,597,684,597,475,2077],"next_num":8,"trial_type":"ticket-choose","trial_index":42,"time_elapsed":556239,"internal_node_id":"0.0-42.0"},{"result":154,"points":3,"place":0,"phase":0,"sequence":23,"prices":[175,187,165,209,180,188,177,166,154,208],"times":[1468,1023,2534,465,519,454,468,1627,1042],"next_num":9,"trial_type":"ticket-choose","trial_index":43,"time_elapsed":569588,"internal_node_id":"0.0-43.0"},{"result":185,"points":1,"place":4,"phase":0,"sequence":24,"prices":[196,165,170,184,187,211,171,201,202,185],"times":[466,769,328,320,469,428,425,660,476,1989],"next_num":10,"trial_type":"ticket-choose","trial_index":44,"time_elapsed":579825,"internal_node_id":"0.0-44.0"},{"result":163,"points":2,"place":1,"phase":0,"sequence":25,"prices":[174,186,163,212,181,187,176,166,153,209],"times":[475,595,1616],"next_num":3,"trial_type":"ticket-choose","trial_index":45,"time_elapsed":584817,"internal_node_id":"0.0-45.0"},{"result":165,"points":2,"place":1,"phase":0,"sequence":26,"prices":[201,165,162,166,185,214,165,202,204,179],"times":[505,1641],"next_num":2,"trial_type":"ticket-choose","trial_index":46,"time_elapsed":589493,"internal_node_id":"0.0-46.0"},{"result":153,"points":3,"place":0,"phase":0,"sequence":27,"prices":[175,186,167,225,179,187,178,169,209,153],"times":[553,552,801,483,488,456,562,936,490,1159],"next_num":10,"trial_type":"ticket-choose","trial_index":47,"time_elapsed":600317,"internal_node_id":"0.0-47.0"},{"result":165,"points":3,"place":0,"phase":0,"sequence":28,"prices":[171,203,175,170,167,220,192,186,165,165],"times":[411,519,472,451,1090,534,552,719,1728],"next_num":9,"trial_type":"ticket-choose","trial_index":48,"time_elapsed":611241,"internal_node_id":"0.0-48.0"},{"result":165,"points":2,"place":1,"phase":0,"sequence":29,"prices":[175,186,177,210,179,187,165,166,153,208],"times":[449,456,496,462,446,589,2814],"next_num":7,"trial_type":"ticket-choose","trial_index":49,"time_elapsed":620166,"internal_node_id":"0.0-49.0"},{"result":165,"points":1,"place":2,"phase":0,"sequence":30,"prices":[176,187,158,210,181,187,177,165,208,153],"times":[286,212,420,692,408,474,626,1588],"next_num":8,"trial_type":"ticket-choose","trial_index":50,"time_elapsed":628453,"internal_node_id":"0.0-50.0"},{"result":154,"points":3,"place":0,"phase":0,"sequence":31,"prices":[175,187,177,209,180,188,165,165,154,208],"times":[539,457,484,432,472,450,1407,1847,1366],"next_num":9,"trial_type":"ticket-choose","trial_index":51,"time_elapsed":639569,"internal_node_id":"0.0-51.0"},{"result":152,"points":3,"place":0,"phase":0,"sequence":32,"prices":[198,193,169,163,202,182,152,164,177,171],"times":[656,430,473,507,707,605,1534],"next_num":7,"trial_type":"ticket-choose","trial_index":52,"time_elapsed":647917,"internal_node_id":"0.0-52.0"},{"result":163,"points":2,"place":1,"phase":0,"sequence":33,"prices":[175,187,176,209,180,188,163,165,154,208],"times":[441,426,535,529,535,474,1741],"next_num":7,"trial_type":"ticket-choose","trial_index":53,"time_elapsed":656043,"internal_node_id":"0.0-53.0"},{"result":165,"points":3,"place":0,"phase":0,"sequence":34,"prices":[185,170,182,201,173,199,171,188,165,168],"times":[302,544,407,446,439,430,498,497,1584],"next_num":9,"trial_type":"ticket-choose","trial_index":54,"time_elapsed":665007,"internal_node_id":"0.0-54.0"},{"result":154,"points":2,"place":1,"phase":0,"sequence":35,"prices":[168,154,172,185,195,144,184,211,177,227],"times":[304,1580],"next_num":2,"trial_type":"ticket-choose","trial_index":55,"time_elapsed":669028,"internal_node_id":"0.0-55.0"},{"result":158,"points":2,"place":1,"phase":0,"sequence":36,"prices":[176,187,177,225,181,187,158,165,208,153],"times":[385,363,401,452,496,423,1694],"next_num":7,"trial_type":"ticket-choose","trial_index":56,"time_elapsed":676390,"internal_node_id":"0.0-56.0"},{"result":165,"points":3,"place":0,"phase":0,"sequence":37,"prices":[191,172,169,175,182,203,170,195,165,176],"times":[1923,436,690,490,506,558,499,506,1963],"next_num":9,"trial_type":"ticket-choose","trial_index":57,"time_elapsed":687665,"internal_node_id":"0.0-57.0"},{"result":155,"points":2,"place":1,"phase":0,"sequence":38,"prices":[181,155,148,161,168,187,172,199,176,194],"times":[722,1396],"next_num":2,"trial_type":"ticket-choose","trial_index":58,"time_elapsed":691846,"internal_node_id":"0.0-58.0"},{"result":158,"points":3,"place":0,"phase":0,"sequence":39,"prices":[210,184,226,193,215,158,199,175,176,208],"times":[433,516,446,433,501,1843],"next_num":6,"trial_type":"ticket-choose","trial_index":59,"time_elapsed":699067,"internal_node_id":"0.0-59.0"},{"result":165,"points":3,"place":0,"phase":0,"sequence":40,"prices":[193,169,171,187,190,224,174,194,165,188],"times":[411,493,401,410,459,528,498,510,1930],"next_num":9,"trial_type":"ticket-choose","trial_index":60,"time_elapsed":708202,"internal_node_id":"0.0-60.0"},{"result":184,"points":1,"place":4,"phase":0,"sequence":41,"prices":[193,165,175,181,185,224,180,199,218,184],"times":[415,460,383,457,410,519,496,476,450,1202],"next_num":10,"trial_type":"ticket-choose","trial_index":61,"time_elapsed":717498,"internal_node_id":"0.0-61.0"},{"result":143,"points":3,"place":0,"phase":0,"sequence":42,"prices":[222,173,202,197,143,205,198,183,178,186],"times":[442,468,792,487,1337],"next_num":5,"trial_type":"ticket-choose","trial_index":62,"time_elapsed":724224,"internal_node_id":"0.0-62.0"},{"result":163,"points":2,"place":1,"phase":0,"sequence":43,"prices":[175,186,163,214,179,187,176,166,153,208],"times":[739,446,1547],"next_num":3,"trial_type":"ticket-choose","trial_index":63,"time_elapsed":729335,"internal_node_id":"0.0-63.0"},{"result":165,"points":2,"place":1,"phase":0,"sequence":44,"prices":[200,165,165,173,182,207,161,202,204,180],"times":[339,1209],"next_num":2,"trial_type":"ticket-choose","trial_index":64,"time_elapsed":732940,"internal_node_id":"0.0-64.0"},{"result":158,"points":2,"place":1,"phase":0,"sequence":45,"prices":[175,186,158,211,180,187,177,166,209,153],"times":[296,446,1473],"next_num":3,"trial_type":"ticket-choose","trial_index":65,"time_elapsed":737425,"internal_node_id":"0.0-65.0"},{"result":157,"points":3,"place":0,"phase":0,"sequence":46,"prices":[201,187,157,184,198,179,188,185,178,170],"times":[717,442,1503],"next_num":3,"trial_type":"ticket-choose","trial_index":66,"time_elapsed":742383,"internal_node_id":"0.0-66.0"},{"result":165,"points":2,"place":1,"phase":0,"sequence":47,"prices":[174,186,165,212,181,187,177,167,153,209],"times":[3530,459,1219],"next_num":3,"trial_type":"ticket-choose","trial_index":67,"time_elapsed":750009,"internal_node_id":"0.0-67.0"},{"result":168,"points":1,"place":2,"phase":0,"sequence":48,"prices":[168,199,196,198,185,195,227,163,177,166],"times":[1984],"next_num":1,"trial_type":"ticket-choose","trial_index":68,"time_elapsed":753867,"internal_node_id":"0.0-68.0"},{"result":165,"points":2,"place":1,"phase":0,"sequence":49,"prices":[174,186,177,217,181,187,165,166,153,209],"times":[782,502,544,506,608,519,1561],"next_num":7,"trial_type":"ticket-choose","trial_index":69,"time_elapsed":764854,"internal_node_id":"0.0-69.0"},{"responses":[{"value":0,"offby":-1,"category":"$115 - $130","category_index":0},{"value":5,"offby":0,"category":"$131 - $145","category_index":1},{"value":15,"offby":3,"category":"$146 - $160","category_index":2},{"value":20,"offby":-2,"category":"$161 - $175","category_index":3},{"value":30,"offby":-4,"category":"$176 - $190","category_index":4},{"value":20,"offby":5,"category":"$191 - $205","category_index":5},{"value":10,"offby":-1,"category":"$206 - $220","category_index":6}],"phase":1,"number":1,"trial_type":"bar-choose","trial_index":70,"time_elapsed":814978,"internal_node_id":"0.0-70.0"},{"rt":23709,"url":"\/christiane\/tickets\/utils\/testing2.html","trial_type":"point_update","trial_index":71,"time_elapsed":841077,"internal_node_id":"0.0-71.0"},{"phase":1,"order":[9,40,16,24,43,35,48,49,6,11,47,14,12,37,17,22,10,26,5,20,44,30,13,41,27,3,33,7,19,36,31,34,29,38,2,1,21,46,23,15,42,39,18,4,28,0,25,32,45,8],"trial_type":"store_order","trial_index":72,"time_elapsed":842078,"internal_node_id":"0.0-72.0"},{"result":165,"points":2,"place":1,"phase":1,"sequence":0,"prices":[177,175,186,210,165,179,187,166,153,208],"times":[1960,503,441,459,1184],"next_num":5,"trial_type":"ticket-choose","trial_index":73,"time_elapsed":849718,"internal_node_id":"0.0-73.0"},{"result":150,"points":3,"place":0,"phase":1,"sequence":1,"prices":[190,150,175,161,188,207,157,194,178,199],"times":[518,1154],"next_num":2,"trial_type":"ticket-choose","trial_index":74,"time_elapsed":853487,"internal_node_id":"0.0-74.0"},{"result":163,"points":2,"place":1,"phase":1,"sequence":2,"prices":[176,187,179,209,163,180,188,165,154,208],"times":[722,445,426,812,1127],"next_num":5,"trial_type":"ticket-choose","trial_index":75,"time_elapsed":859783,"internal_node_id":"0.0-75.0"},{"result":165,"points":3,"place":0,"phase":1,"sequence":3,"prices":[193,181,175,181,185,165,224,199,218,184],"times":[554,441,433,436,461,928],"next_num":6,"trial_type":"ticket-choose","trial_index":76,"time_elapsed":866462,"internal_node_id":"0.0-76.0"},{"result":170,"points":2,"place":1,"phase":1,"sequence":4,"prices":[201,187,157,184,198,179,188,185,178,170],"times":[474,399,475,1109,417,434,495,463,675,1218],"next_num":10,"trial_type":"ticket-choose","trial_index":77,"time_elapsed":876817,"internal_node_id":"0.0-77.0"},{"result":153,"points":2,"place":1,"phase":1,"sequence":5,"prices":[167,153,172,185,195,143,184,211,177,227],"times":[865,851],"next_num":2,"trial_type":"ticket-choose","trial_index":78,"time_elapsed":880757,"internal_node_id":"0.0-78.0"},{"result":147,"points":3,"place":0,"phase":1,"sequence":6,"prices":[181,214,169,147,182,193,178,184,176,179],"times":[497,711,625,773],"next_num":4,"trial_type":"ticket-choose","trial_index":79,"time_elapsed":885939,"internal_node_id":"0.0-79.0"},{"result":148,"points":3,"place":0,"phase":1,"sequence":7,"prices":[173,163,185,181,166,148,160,185,176,184],"times":[621,779,568,479,979,973],"next_num":6,"trial_type":"ticket-choose","trial_index":80,"time_elapsed":893371,"internal_node_id":"0.0-80.0"},{"result":166,"points":1,"place":2,"phase":1,"sequence":8,"prices":[165,175,186,214,177,179,187,166,153,208],"times":[804,577,473,510,752,523,550,2857],"next_num":8,"trial_type":"ticket-choose","trial_index":81,"time_elapsed":903917,"internal_node_id":"0.0-81.0"},{"result":165,"points":2,"place":1,"phase":1,"sequence":9,"prices":[177,174,186,217,165,181,187,166,153,209],"times":[700,466,425,481,1865],"next_num":5,"trial_type":"ticket-choose","trial_index":82,"time_elapsed":910491,"internal_node_id":"0.0-82.0"},{"result":152,"points":3,"place":0,"phase":1,"sequence":10,"prices":[200,180,203,152,175,170,160,154,176,191],"times":[569,507,465,1022],"next_num":4,"trial_type":"ticket-choose","trial_index":83,"time_elapsed":915532,"internal_node_id":"0.0-83.0"},{"result":153,"points":3,"place":0,"phase":1,"sequence":11,"prices":[163,174,186,212,176,181,187,166,153,209],"times":[340,414,412,511,510,487,500,1005,877],"next_num":9,"trial_type":"ticket-choose","trial_index":84,"time_elapsed":924238,"internal_node_id":"0.0-84.0"},{"result":153,"points":3,"place":0,"phase":1,"sequence":12,"prices":[163,175,186,214,176,179,187,166,153,208],"times":[1877,449,437,553,488,456,475,1384,1215],"next_num":9,"trial_type":"ticket-choose","trial_index":85,"time_elapsed":935023,"internal_node_id":"0.0-85.0"},{"result":151,"points":3,"place":0,"phase":1,"sequence":13,"prices":[199,193,169,165,202,182,151,164,176,171],"times":[468,458,877,659,506,725,875],"next_num":7,"trial_type":"ticket-choose","trial_index":86,"time_elapsed":943416,"internal_node_id":"0.0-86.0"},{"result":163,"points":2,"place":1,"phase":1,"sequence":14,"prices":[176,186,178,217,163,181,187,166,153,209],"times":[487,477,555,515,2011],"next_num":5,"trial_type":"ticket-choose","trial_index":87,"time_elapsed":950149,"internal_node_id":"0.0-87.0"},{"result":158,"points":2,"place":1,"phase":1,"sequence":15,"prices":[177,175,186,209,158,181,188,167,208,154],"times":[412,476,511,441,1331],"next_num":5,"trial_type":"ticket-choose","trial_index":88,"time_elapsed":955884,"internal_node_id":"0.0-88.0"},{"result":165,"points":2,"place":1,"phase":1,"sequence":16,"prices":[177,175,187,209,165,180,188,165,154,208],"times":[480,472,491,489,2029],"next_num":5,"trial_type":"ticket-choose","trial_index":89,"time_elapsed":962539,"internal_node_id":"0.0-89.0"},{"result":152,"points":3,"place":0,"phase":1,"sequence":17,"prices":[200,173,182,169,207,165,152,202,161,204],"times":[292,444,442,596,456,722,1088],"next_num":7,"trial_type":"ticket-choose","trial_index":90,"time_elapsed":970110,"internal_node_id":"0.0-90.0"},{"result":153,"points":3,"place":0,"phase":1,"sequence":18,"prices":[178,175,186,212,167,179,187,169,209,153],"times":[301,510,452,459,864,522,506,871,572,1264],"next_num":10,"trial_type":"ticket-choose","trial_index":91,"time_elapsed":980117,"internal_node_id":"0.0-91.0"},{"result":158,"points":2,"place":1,"phase":1,"sequence":19,"prices":[158,176,187,210,177,181,187,165,208,153],"times":[1440],"next_num":1,"trial_type":"ticket-choose","trial_index":92,"time_elapsed":983377,"internal_node_id":"0.0-92.0"},{"result":159,"points":1,"place":2,"phase":1,"sequence":20,"prices":[181,159,149,175,185,151,163,174,178,207],"times":[699,1240],"next_num":2,"trial_type":"ticket-choose","trial_index":93,"time_elapsed":987295,"internal_node_id":"0.0-93.0"},{"result":157,"points":3,"place":0,"phase":1,"sequence":21,"prices":[191,170,182,165,175,182,203,157,195,200],"times":[503,509,525,693,586,491,543,1160],"next_num":8,"trial_type":"ticket-choose","trial_index":94,"time_elapsed":995696,"internal_node_id":"0.0-94.0"},{"result":163,"points":2,"place":1,"phase":1,"sequence":22,"prices":[163,175,187,209,176,180,188,165,154,208],"times":[1084],"next_num":1,"trial_type":"ticket-choose","trial_index":95,"time_elapsed":998615,"internal_node_id":"0.0-95.0"},{"result":155,"points":2,"place":1,"phase":1,"sequence":23,"prices":[200,207,155,158,156,168,167,135,178,177],"times":[564,444,1011],"next_num":3,"trial_type":"ticket-choose","trial_index":96,"time_elapsed":1002845,"internal_node_id":"0.0-96.0"},{"result":197,"points":0,"place":8,"phase":1,"sequence":24,"prices":[192,172,171,178,188,165,217,168,195,197],"times":[483,512,465,446,502,589,525,820,487,1389],"next_num":10,"trial_type":"ticket-choose","trial_index":97,"time_elapsed":1012993,"internal_node_id":"0.0-97.0"},{"result":168,"points":1,"place":2,"phase":1,"sequence":25,"prices":[178,174,186,217,167,181,188,168,208,156],"times":[707,494,608,478,952,716,517,881],"next_num":8,"trial_type":"ticket-choose","trial_index":98,"time_elapsed":1022081,"internal_node_id":"0.0-98.0"},{"result":165,"points":2,"place":1,"phase":1,"sequence":26,"prices":[183,179,188,165,168,173,205,159,187,191],"times":[456,429,425,1186],"next_num":4,"trial_type":"ticket-choose","trial_index":99,"time_elapsed":1026948,"internal_node_id":"0.0-99.0"},{"result":165,"points":2,"place":1,"phase":1,"sequence":27,"prices":[165,175,187,209,177,180,188,167,154,208],"times":[1503],"next_num":1,"trial_type":"ticket-choose","trial_index":100,"time_elapsed":1030260,"internal_node_id":"0.0-100.0"},{"result":158,"points":2,"place":1,"phase":1,"sequence":28,"prices":[158,175,186,209,177,181,188,167,208,154],"times":[746],"next_num":1,"trial_type":"ticket-choose","trial_index":101,"time_elapsed":1032854,"internal_node_id":"0.0-101.0"},{"result":154,"points":3,"place":0,"phase":1,"sequence":29,"prices":[187,201,165,172,196,174,178,154,172,180],"times":[573,451,635,524,474,486,464,952],"next_num":8,"trial_type":"ticket-choose","trial_index":102,"time_elapsed":1040739,"internal_node_id":"0.0-102.0"},{"result":165,"points":1,"place":2,"phase":1,"sequence":30,"prices":[171,169,186,165,163,167,220,148,187,165],"times":[2666,720,497,1154],"next_num":4,"trial_type":"ticket-choose","trial_index":103,"time_elapsed":1048151,"internal_node_id":"0.0-103.0"},{"result":156,"points":2,"place":1,"phase":1,"sequence":31,"prices":[180,156,149,160,168,186,172,198,176,195],"times":[456,1683],"next_num":2,"trial_type":"ticket-choose","trial_index":104,"time_elapsed":1052199,"internal_node_id":"0.0-104.0"},{"result":161,"points":2,"place":1,"phase":1,"sequence":32,"prices":[185,179,191,165,161,173,199,150,188,168],"times":[449,474,453,537,1295],"next_num":5,"trial_type":"ticket-choose","trial_index":105,"time_elapsed":1057983,"internal_node_id":"0.0-105.0"},{"result":163,"points":3,"place":0,"phase":1,"sequence":33,"prices":[163,199,196,199,185,195,227,163,177,166],"times":[982],"next_num":1,"trial_type":"ticket-choose","trial_index":106,"time_elapsed":1060851,"internal_node_id":"0.0-106.0"},{"result":153,"points":3,"place":0,"phase":1,"sequence":34,"prices":[167,175,186,225,178,179,187,169,209,153],"times":[792,482,482,502,505,469,493,1566,522,1132],"next_num":10,"trial_type":"ticket-choose","trial_index":107,"time_elapsed":1072147,"internal_node_id":"0.0-107.0"},{"result":156,"points":3,"place":0,"phase":1,"sequence":35,"prices":[167,175,185,224,178,181,186,168,208,156],"times":[1291,472,481,468,476,488,504,474,529,1124],"next_num":10,"trial_type":"ticket-choose","trial_index":108,"time_elapsed":1082171,"internal_node_id":"0.0-108.0"},{"result":158,"points":2,"place":1,"phase":1,"sequence":36,"prices":[177,175,186,221,158,180,187,166,209,153],"times":[883,486,506,485,1239],"next_num":5,"trial_type":"ticket-choose","trial_index":109,"time_elapsed":1088339,"internal_node_id":"0.0-109.0"},{"result":158,"points":3,"place":0,"phase":1,"sequence":37,"prices":[214,184,226,192,215,158,199,175,176,208],"times":[887,473,428,479,532,1196],"next_num":6,"trial_type":"ticket-choose","trial_index":110,"time_elapsed":1095266,"internal_node_id":"0.0-110.0"},{"result":158,"points":2,"place":1,"phase":1,"sequence":38,"prices":[177,176,187,225,158,181,187,165,208,153],"times":[496,552,500,469,1141],"next_num":5,"trial_type":"ticket-choose","trial_index":111,"time_elapsed":1101374,"internal_node_id":"0.0-111.0"},{"result":163,"points":2,"place":1,"phase":1,"sequence":39,"prices":[176,175,186,210,163,179,187,166,153,208],"times":[521,515,564,473,1179],"next_num":5,"trial_type":"ticket-choose","trial_index":112,"time_elapsed":1107200,"internal_node_id":"0.0-112.0"},{"result":186,"points":1,"place":4,"phase":1,"sequence":40,"prices":[220,173,201,197,169,205,198,183,178,186],"times":[2143,463,440,456,671,523,498,538,461,1118],"next_num":10,"trial_type":"ticket-choose","trial_index":113,"time_elapsed":1118508,"internal_node_id":"0.0-113.0"},{"result":167,"points":2,"place":1,"phase":1,"sequence":41,"prices":[189,167,180,197,165,168,172,213,178,171],"times":[650,963],"next_num":2,"trial_type":"ticket-choose","trial_index":114,"time_elapsed":1122143,"internal_node_id":"0.0-114.0"},{"result":158,"points":2,"place":1,"phase":1,"sequence":42,"prices":[158,175,186,211,177,180,187,166,209,153],"times":[992],"next_num":1,"trial_type":"ticket-choose","trial_index":115,"time_elapsed":1124818,"internal_node_id":"0.0-115.0"},{"result":156,"points":3,"place":0,"phase":1,"sequence":43,"prices":[178,175,185,215,167,181,186,168,208,156],"times":[1653,511,482,586,999,542,482,1138,462,1015],"next_num":10,"trial_type":"ticket-choose","trial_index":116,"time_elapsed":1136663,"internal_node_id":"0.0-116.0"},{"result":165,"points":3,"place":0,"phase":1,"sequence":44,"prices":[196,171,170,184,187,165,211,169,201,202],"times":[911,773,503,473,497,1819],"next_num":6,"trial_type":"ticket-choose","trial_index":117,"time_elapsed":1144719,"internal_node_id":"0.0-117.0"},{"result":156,"points":3,"place":0,"phase":1,"sequence":45,"prices":[167,174,186,211,178,181,188,168,208,156],"times":[1125,537,548,578,515,560,503,899,468,942],"next_num":10,"trial_type":"ticket-choose","trial_index":118,"time_elapsed":1155189,"internal_node_id":"0.0-118.0"},{"result":165,"points":2,"place":1,"phase":1,"sequence":46,"prices":[201,204,179,166,185,165,214,156,202,165],"times":[1399,556,590,1756,486,1314],"next_num":6,"trial_type":"ticket-choose","trial_index":119,"time_elapsed":1164277,"internal_node_id":"0.0-119.0"},{"result":165,"points":2,"place":1,"phase":1,"sequence":47,"prices":[193,174,224,165,187,190,224,161,194,195],"times":[3510,678,537,1976],"next_num":4,"trial_type":"ticket-choose","trial_index":120,"time_elapsed":1173373,"internal_node_id":"0.0-120.0"},{"result":164,"points":3,"place":0,"phase":1,"sequence":48,"prices":[199,191,188,174,167,193,189,164,176,170],"times":[742,491,409,430,1411,491,831,1063],"next_num":8,"trial_type":"ticket-choose","trial_index":121,"time_elapsed":1184248,"internal_node_id":"0.0-121.0"},{"result":165,"points":2,"place":1,"phase":1,"sequence":49,"prices":[165,174,186,212,177,181,187,166,153,209],"times":[3375],"next_num":1,"trial_type":"ticket-choose","trial_index":122,"time_elapsed":1189548,"internal_node_id":"0.0-122.0"},{"responses":[{"value":0,"offby":-1,"category":"$115 - $130","category_index":0},{"value":10,"offby":5,"category":"$131 - $145","category_index":1},{"value":15,"offby":3,"category":"$146 - $160","category_index":2},{"value":30,"offby":8,"category":"$161 - $175","category_index":3},{"value":25,"offby":-9,"category":"$176 - $190","category_index":4},{"value":10,"offby":-5,"category":"$191 - $205","category_index":5},{"value":10,"offby":-1,"category":"$206 - $220","category_index":6}],"phase":1,"number":1,"trial_type":"bar-choose","trial_index":123,"time_elapsed":1223820,"internal_node_id":"0.0-123.0"},{"special_comment":"Some had the exact same pattern","trial_type":"special_sequence","trial_index":124,"time_elapsed":1234335,"internal_node_id":"0.0-124.0"},{"during":"Nothing","bonus":308,"trial_type":"final","trial_index":125,"time_elapsed":1270054,"internal_node_id":"0.0-125.0"}],"bonus":308}