{"start_time":"2017-05-24 15:27:38","end_time":"2017-05-24 16:04:25","points_phase0":98,"points_phase1":107,"phase_order":1,"age":34,"gender":"m","tries":1,"during":"Nothing","worker_id":"A9YJYYOWOVCR1","assignment_id":"32VNZTT0A8XY70C8FEJ8UO7SH1DR4Q","data":[{"rt":27662,"url":"\/christiane\/tickets\/utils\/consent.html","trial_type":"html","trial_index":0,"time_elapsed":27757,"internal_node_id":"0.0-0.0"},{"age":34,"gender":"m","trial_type":"age","trial_index":1,"time_elapsed":35235,"internal_node_id":"0.0-1.0"},{"worker_id":"A9YJYYOWOVCR1","trial_type":"workerid","trial_index":2,"time_elapsed":49401,"internal_node_id":"0.0-2.0"},{"tries":1,"trial_type":"instructions_check","trial_index":3,"time_elapsed":132919,"internal_node_id":"0.0-3.0"},{"rt":25626,"url":"\/christiane\/tickets\/utils\/start.html","trial_type":"html","trial_index":4,"time_elapsed":159623,"internal_node_id":"0.0-4.0"},{"trial_type":"number-animation","trial_index":5,"time_elapsed":222476,"internal_node_id":"0.0-5.0"},{"phase":0,"sequence":0,"avg":181,"response":170,"trial_type":"training_avg","trial_index":6,"time_elapsed":263771,"internal_node_id":"0.0-6.0"},{"trial_type":"number-animation","trial_index":7,"time_elapsed":345798,"internal_node_id":"0.0-7.0"},{"phase":0,"sequence":1,"avg":188,"response":190,"trial_type":"training_avg","trial_index":8,"time_elapsed":404168,"internal_node_id":"0.0-8.0"},{"trial_type":"number-animation","trial_index":9,"time_elapsed":465712,"internal_node_id":"0.0-9.0"},{"phase":0,"sequence":2,"avg":188,"response":176,"trial_type":"training_avg","trial_index":10,"time_elapsed":502142,"internal_node_id":"0.0-10.0"},{"trial_type":"number-animation","trial_index":11,"time_elapsed":552886,"internal_node_id":"0.0-11.0"},{"phase":0,"sequence":3,"avg":177,"response":162,"trial_type":"training_avg","trial_index":12,"time_elapsed":575600,"internal_node_id":"0.0-12.0"},{"trial_type":"number-animation","trial_index":13,"time_elapsed":623392,"internal_node_id":"0.0-13.0"},{"phase":0,"sequence":4,"avg":182,"response":180,"trial_type":"training_avg","trial_index":14,"time_elapsed":650467,"internal_node_id":"0.0-14.0"},{"responses":[{"value":1,"offby":0,"category":"$115 - $130","category_index":0},{"value":2,"offby":-3,"category":"$131 - $145","category_index":1},{"value":7,"offby":-5,"category":"$146 - $160","category_index":2},{"value":7,"offby":-15,"category":"$161 - $175","category_index":3},{"value":73,"offby":39,"category":"$176 - $190","category_index":4},{"value":5,"offby":-10,"category":"$191 - $205","category_index":5},{"value":5,"offby":-6,"category":"$206 - $220","category_index":6}],"phase":0,"number":0,"trial_type":"bar-choose","trial_index":15,"time_elapsed":922144,"internal_node_id":"0.0-15.0"},{"rt":58788,"url":"\/christiane\/tickets\/utils\/testing.html","trial_type":"html","trial_index":16,"time_elapsed":982003,"internal_node_id":"0.0-16.0"},{"phase":0,"order":[39,13,46,28,0,22,14,44,7,36,43,24,20,41,40,11,9,34,3,1,23,17,45,5,15,32,38,16,49,12,27,6,31,48,37,18,47,2,29,35,33,8,10,30,4,25,26,21,42,19],"trial_type":"store_order","trial_index":17,"time_elapsed":983018,"internal_node_id":"0.0-17.0"},{"result":165,"points":2,"place":1,"phase":0,"sequence":-1,"prices":[184,180,224,165,181,199,185,193,218,146],"times":[8595,4922,2184,3766],"next_num":4,"trial_type":"ticket-choose","trial_index":18,"time_elapsed":1009306,"internal_node_id":"0.0-18.0"},{"rt":40300,"url":"\/christiane\/tickets\/utils\/testing_after.html","trial_type":"html","trial_index":19,"time_elapsed":1050680,"internal_node_id":"0.0-19.0"},{"result":158,"points":2,"place":1,"phase":0,"sequence":0,"prices":[158,175,186,211,177,180,187,166,209,153],"times":[8286],"next_num":1,"trial_type":"ticket-choose","trial_index":20,"time_elapsed":1063828,"internal_node_id":"0.0-20.0"},{"result":163,"points":3,"place":0,"phase":0,"sequence":1,"prices":[163,199,196,199,185,195,227,163,177,166],"times":[2173,1434,1881,1497,1247,970,1943,1756],"next_num":8,"trial_type":"ticket-choose","trial_index":21,"time_elapsed":1084559,"internal_node_id":"0.0-21.0"},{"result":168,"points":1,"place":2,"phase":0,"sequence":2,"prices":[167,175,185,224,178,181,186,168,208,156],"times":[3090,884,1046,1031,1014,866,831,1713],"next_num":8,"trial_type":"ticket-choose","trial_index":22,"time_elapsed":1100777,"internal_node_id":"0.0-22.0"},{"result":158,"points":2,"place":1,"phase":0,"sequence":3,"prices":[177,176,187,225,158,181,187,165,208,153],"times":[1342,963,1008,896,1377],"next_num":5,"trial_type":"ticket-choose","trial_index":23,"time_elapsed":1110464,"internal_node_id":"0.0-23.0"},{"result":167,"points":2,"place":1,"phase":0,"sequence":4,"prices":[178,175,185,215,167,181,186,168,208,156],"times":[1305,1211,820,929,1314],"next_num":5,"trial_type":"ticket-choose","trial_index":24,"time_elapsed":1120788,"internal_node_id":"0.0-24.0"},{"result":165,"points":2,"place":1,"phase":0,"sequence":5,"prices":[165,175,186,214,177,179,187,166,153,208],"times":[1828],"next_num":1,"trial_type":"ticket-choose","trial_index":25,"time_elapsed":1125669,"internal_node_id":"0.0-25.0"},{"result":165,"points":3,"place":0,"phase":0,"sequence":6,"prices":[192,172,171,178,188,165,217,168,195,197],"times":[1086,977,956,922,813,1093],"next_num":6,"trial_type":"ticket-choose","trial_index":26,"time_elapsed":1136712,"internal_node_id":"0.0-26.0"},{"result":167,"points":2,"place":1,"phase":0,"sequence":7,"prices":[178,174,186,217,167,181,188,168,208,156],"times":[1135,924,992,1098,1253],"next_num":5,"trial_type":"ticket-choose","trial_index":27,"time_elapsed":1146657,"internal_node_id":"0.0-27.0"},{"result":163,"points":2,"place":1,"phase":0,"sequence":8,"prices":[163,174,186,212,176,181,187,166,153,209],"times":[1819],"next_num":1,"trial_type":"ticket-choose","trial_index":28,"time_elapsed":1151912,"internal_node_id":"0.0-28.0"},{"result":165,"points":2,"place":1,"phase":0,"sequence":9,"prices":[177,175,186,210,165,179,187,166,153,208],"times":[1287,921,1001,878,1122],"next_num":5,"trial_type":"ticket-choose","trial_index":29,"time_elapsed":1161471,"internal_node_id":"0.0-29.0"},{"result":163,"points":2,"place":1,"phase":0,"sequence":10,"prices":[176,187,179,209,163,180,188,165,154,208],"times":[2431,1117,1136,1028,1077],"next_num":5,"trial_type":"ticket-choose","trial_index":30,"time_elapsed":1171974,"internal_node_id":"0.0-30.0"},{"result":165,"points":2,"place":1,"phase":0,"sequence":11,"prices":[193,174,224,165,187,190,224,161,194,195],"times":[993,1076,1183,3870],"next_num":4,"trial_type":"ticket-choose","trial_index":31,"time_elapsed":1183199,"internal_node_id":"0.0-31.0"},{"result":157,"points":3,"place":0,"phase":0,"sequence":12,"prices":[201,187,157,184,198,179,188,185,178,170],"times":[962,806,1472],"next_num":3,"trial_type":"ticket-choose","trial_index":32,"time_elapsed":1190623,"internal_node_id":"0.0-32.0"},{"result":178,"points":1,"place":2,"phase":0,"sequence":13,"prices":[220,173,201,197,169,205,198,183,178,186],"times":[1447,1135,850,758,1165,770,801,912,3393],"next_num":9,"trial_type":"ticket-choose","trial_index":33,"time_elapsed":1206774,"internal_node_id":"0.0-33.0"},{"result":163,"points":2,"place":1,"phase":0,"sequence":14,"prices":[163,175,187,209,176,180,188,165,154,208],"times":[1539],"next_num":1,"trial_type":"ticket-choose","trial_index":34,"time_elapsed":1211319,"internal_node_id":"0.0-34.0"},{"result":152,"points":3,"place":0,"phase":0,"sequence":15,"prices":[200,180,203,152,175,170,160,154,176,191],"times":[1004,1263,905,1224],"next_num":4,"trial_type":"ticket-choose","trial_index":35,"time_elapsed":1219629,"internal_node_id":"0.0-35.0"},{"result":169,"points":1,"place":3,"phase":0,"sequence":16,"prices":[200,173,182,169,207,165,152,202,161,204],"times":[1464,1235,863,2383],"next_num":4,"trial_type":"ticket-choose","trial_index":36,"time_elapsed":1229342,"internal_node_id":"0.0-36.0"},{"result":165,"points":3,"place":0,"phase":0,"sequence":17,"prices":[189,167,180,197,165,168,172,213,178,171],"times":[1182,1295,858,826,2136],"next_num":5,"trial_type":"ticket-choose","trial_index":37,"time_elapsed":1239970,"internal_node_id":"0.0-37.0"},{"result":165,"points":2,"place":1,"phase":0,"sequence":18,"prices":[165,174,186,212,177,181,187,166,153,209],"times":[1646],"next_num":1,"trial_type":"ticket-choose","trial_index":38,"time_elapsed":1245280,"internal_node_id":"0.0-38.0"},{"result":166,"points":1,"place":3,"phase":0,"sequence":19,"prices":[201,204,179,166,185,165,214,156,202,165],"times":[1077,687,813,1674],"next_num":4,"trial_type":"ticket-choose","trial_index":39,"time_elapsed":1253426,"internal_node_id":"0.0-39.0"},{"result":169,"points":1,"place":2,"phase":0,"sequence":20,"prices":[167,175,186,225,178,179,187,169,209,153],"times":[2187,715,752,788,816,726,803,1139],"next_num":8,"trial_type":"ticket-choose","trial_index":40,"time_elapsed":1265849,"internal_node_id":"0.0-40.0"},{"result":167,"points":1,"place":2,"phase":0,"sequence":21,"prices":[167,153,172,185,195,143,184,211,177,227],"times":[1753],"next_num":1,"trial_type":"ticket-choose","trial_index":41,"time_elapsed":1270748,"internal_node_id":"0.0-41.0"},{"result":165,"points":2,"place":1,"phase":0,"sequence":22,"prices":[187,201,165,172,196,174,178,154,172,180],"times":[1115,832,1279],"next_num":3,"trial_type":"ticket-choose","trial_index":42,"time_elapsed":1277638,"internal_node_id":"0.0-42.0"},{"result":165,"points":2,"place":1,"phase":0,"sequence":23,"prices":[177,175,187,209,165,180,188,165,154,208],"times":[1418,708,940,1180,1291],"next_num":5,"trial_type":"ticket-choose","trial_index":43,"time_elapsed":1286659,"internal_node_id":"0.0-43.0"},{"result":156,"points":2,"place":1,"phase":0,"sequence":24,"prices":[180,156,149,160,168,186,172,198,176,195],"times":[1059,1272],"next_num":2,"trial_type":"ticket-choose","trial_index":44,"time_elapsed":1292213,"internal_node_id":"0.0-44.0"},{"result":158,"points":3,"place":0,"phase":0,"sequence":25,"prices":[214,184,226,192,215,158,199,175,176,208],"times":[1004,1050,756,871,965,1321],"next_num":6,"trial_type":"ticket-choose","trial_index":45,"time_elapsed":1302326,"internal_node_id":"0.0-45.0"},{"result":169,"points":1,"place":3,"phase":0,"sequence":26,"prices":[199,193,169,165,202,182,151,164,176,171],"times":[1543,871,1566],"next_num":3,"trial_type":"ticket-choose","trial_index":46,"time_elapsed":1309452,"internal_node_id":"0.0-46.0"},{"result":159,"points":1,"place":2,"phase":0,"sequence":27,"prices":[181,159,149,175,185,151,163,174,178,207],"times":[1186,1505],"next_num":2,"trial_type":"ticket-choose","trial_index":47,"time_elapsed":1315291,"internal_node_id":"0.0-47.0"},{"result":165,"points":3,"place":0,"phase":0,"sequence":28,"prices":[193,181,175,181,185,165,224,199,218,184],"times":[1247,922,887,881,1149,1237],"next_num":6,"trial_type":"ticket-choose","trial_index":48,"time_elapsed":1325624,"internal_node_id":"0.0-48.0"},{"result":155,"points":2,"place":1,"phase":0,"sequence":29,"prices":[200,207,155,158,156,168,167,135,178,177],"times":[2092,721,1261],"next_num":3,"trial_type":"ticket-choose","trial_index":49,"time_elapsed":1332864,"internal_node_id":"0.0-49.0"},{"result":147,"points":3,"place":0,"phase":0,"sequence":30,"prices":[181,214,169,147,182,193,178,184,176,179],"times":[1363,1330,2335,1281],"next_num":4,"trial_type":"ticket-choose","trial_index":50,"time_elapsed":1342804,"internal_node_id":"0.0-50.0"},{"result":168,"points":1,"place":2,"phase":0,"sequence":31,"prices":[167,174,186,211,178,181,188,168,208,156],"times":[1707,756,810,765,878,766,983,1369],"next_num":8,"trial_type":"ticket-choose","trial_index":51,"time_elapsed":1355008,"internal_node_id":"0.0-51.0"},{"result":167,"points":2,"place":1,"phase":0,"sequence":32,"prices":[199,191,188,174,167,193,189,164,176,170],"times":[1277,842,965,1318,1597],"next_num":5,"trial_type":"ticket-choose","trial_index":52,"time_elapsed":1364827,"internal_node_id":"0.0-52.0"},{"result":163,"points":2,"place":1,"phase":0,"sequence":33,"prices":[176,186,178,217,163,181,187,166,153,209],"times":[1407,1366,691,955,1172],"next_num":5,"trial_type":"ticket-choose","trial_index":53,"time_elapsed":1374066,"internal_node_id":"0.0-53.0"},{"result":163,"points":2,"place":1,"phase":0,"sequence":34,"prices":[163,175,186,214,176,179,187,166,153,208],"times":[1596],"next_num":1,"trial_type":"ticket-choose","trial_index":54,"time_elapsed":1378855,"internal_node_id":"0.0-54.0"},{"result":158,"points":2,"place":1,"phase":0,"sequence":35,"prices":[158,175,186,209,177,181,188,167,208,154],"times":[1502],"next_num":1,"trial_type":"ticket-choose","trial_index":55,"time_elapsed":1383875,"internal_node_id":"0.0-55.0"},{"result":163,"points":1,"place":2,"phase":0,"sequence":36,"prices":[173,163,185,181,166,148,160,185,176,184],"times":[1078,1253],"next_num":2,"trial_type":"ticket-choose","trial_index":56,"time_elapsed":1389051,"internal_node_id":"0.0-56.0"},{"result":165,"points":1,"place":2,"phase":0,"sequence":37,"prices":[171,169,186,165,163,167,220,148,187,165],"times":[1517,1229,777,1212],"next_num":4,"trial_type":"ticket-choose","trial_index":57,"time_elapsed":1397339,"internal_node_id":"0.0-57.0"},{"result":163,"points":2,"place":1,"phase":0,"sequence":38,"prices":[176,175,186,210,163,179,187,166,153,208],"times":[1057,991,852,783,1325],"next_num":5,"trial_type":"ticket-choose","trial_index":58,"time_elapsed":1406207,"internal_node_id":"0.0-58.0"},{"result":158,"points":2,"place":1,"phase":0,"sequence":39,"prices":[177,175,186,209,158,181,188,167,208,154],"times":[1299,1051,844,880,1192],"next_num":5,"trial_type":"ticket-choose","trial_index":59,"time_elapsed":1414963,"internal_node_id":"0.0-59.0"},{"result":165,"points":2,"place":1,"phase":0,"sequence":40,"prices":[191,170,182,165,175,182,203,157,195,200],"times":[1176,1561,783,1246],"next_num":4,"trial_type":"ticket-choose","trial_index":60,"time_elapsed":1423144,"internal_node_id":"0.0-60.0"},{"result":167,"points":2,"place":1,"phase":0,"sequence":41,"prices":[178,175,186,212,167,179,187,169,209,153],"times":[1185,941,914,874,3020],"next_num":5,"trial_type":"ticket-choose","trial_index":61,"time_elapsed":1433938,"internal_node_id":"0.0-61.0"},{"result":165,"points":2,"place":1,"phase":0,"sequence":42,"prices":[183,179,188,165,168,173,205,159,187,191],"times":[954,883,1023,1386],"next_num":4,"trial_type":"ticket-choose","trial_index":62,"time_elapsed":1441818,"internal_node_id":"0.0-62.0"},{"result":158,"points":2,"place":1,"phase":0,"sequence":43,"prices":[158,176,187,210,177,181,187,165,208,153],"times":[2376],"next_num":1,"trial_type":"ticket-choose","trial_index":63,"time_elapsed":1447005,"internal_node_id":"0.0-63.0"},{"result":150,"points":3,"place":0,"phase":0,"sequence":44,"prices":[190,150,175,161,188,207,157,194,178,199],"times":[1044,1200],"next_num":2,"trial_type":"ticket-choose","trial_index":64,"time_elapsed":1452386,"internal_node_id":"0.0-64.0"},{"result":165,"points":2,"place":1,"phase":0,"sequence":45,"prices":[165,175,187,209,177,180,188,167,154,208],"times":[3020],"next_num":1,"trial_type":"ticket-choose","trial_index":65,"time_elapsed":1458485,"internal_node_id":"0.0-65.0"},{"result":165,"points":2,"place":1,"phase":0,"sequence":46,"prices":[177,174,186,217,165,181,187,166,153,209],"times":[1482,1040,823,955,1508],"next_num":5,"trial_type":"ticket-choose","trial_index":66,"time_elapsed":1468315,"internal_node_id":"0.0-66.0"},{"result":158,"points":2,"place":1,"phase":0,"sequence":47,"prices":[177,175,186,221,158,180,187,166,209,153],"times":[1079,1193,990,903,1449],"next_num":5,"trial_type":"ticket-choose","trial_index":67,"time_elapsed":1478268,"internal_node_id":"0.0-67.0"},{"result":165,"points":1,"place":2,"phase":0,"sequence":48,"prices":[185,179,191,165,161,173,199,150,188,168],"times":[873,858,847,1188],"next_num":4,"trial_type":"ticket-choose","trial_index":68,"time_elapsed":1486022,"internal_node_id":"0.0-68.0"},{"result":165,"points":3,"place":0,"phase":0,"sequence":49,"prices":[196,171,170,184,187,165,211,169,201,202],"times":[867,809,839,935,893,1586],"next_num":6,"trial_type":"ticket-choose","trial_index":69,"time_elapsed":1496120,"internal_node_id":"0.0-69.0"},{"responses":[{"value":0,"offby":-1,"category":"$115 - $130","category_index":0},{"value":0,"offby":-5,"category":"$131 - $145","category_index":1},{"value":10,"offby":-2,"category":"$146 - $160","category_index":2},{"value":70,"offby":48,"category":"$161 - $175","category_index":3},{"value":20,"offby":-14,"category":"$176 - $190","category_index":4},{"value":0,"offby":-15,"category":"$191 - $205","category_index":5},{"value":0,"offby":-11,"category":"$206 - $220","category_index":6}],"phase":1,"number":1,"trial_type":"bar-choose","trial_index":70,"time_elapsed":1563294,"internal_node_id":"0.0-70.0"},{"rt":22575,"url":"\/christiane\/tickets\/utils\/testing2.html","trial_type":"point_update","trial_index":71,"time_elapsed":1587110,"internal_node_id":"0.0-71.0"},{"phase":1,"order":[18,38,1,23,4,6,27,3,14,9,16,32,43,42,13,47,26,39,8,25,2,35,36,10,34,46,37,44,24,41,48,0,45,17,12,19,49,31,15,22,30,5,33,20,40,7,11,21,29,28],"trial_type":"store_order","trial_index":72,"time_elapsed":1588118,"internal_node_id":"0.0-72.0"},{"result":167,"points":2,"place":1,"phase":1,"sequence":0,"prices":[189,167,180,197,165,168,172,213,178,171],"times":[1958,1441],"next_num":2,"trial_type":"ticket-choose","trial_index":73,"time_elapsed":1594601,"internal_node_id":"0.0-73.0"},{"result":163,"points":2,"place":1,"phase":1,"sequence":1,"prices":[175,187,163,209,180,188,176,165,154,208],"times":[994,3465,1276],"next_num":3,"trial_type":"ticket-choose","trial_index":74,"time_elapsed":1603793,"internal_node_id":"0.0-74.0"},{"result":158,"points":3,"place":0,"phase":1,"sequence":2,"prices":[210,184,226,193,215,158,199,175,176,208],"times":[3487,724,653,672,660,1620],"next_num":6,"trial_type":"ticket-choose","trial_index":75,"time_elapsed":1615391,"internal_node_id":"0.0-75.0"},{"result":165,"points":3,"place":0,"phase":1,"sequence":3,"prices":[196,165,170,184,187,211,171,201,202,185],"times":[1294,1412],"next_num":2,"trial_type":"ticket-choose","trial_index":76,"time_elapsed":1621183,"internal_node_id":"0.0-76.0"},{"result":168,"points":1,"place":2,"phase":1,"sequence":4,"prices":[174,186,167,211,181,188,178,168,208,156],"times":[871,703,1580,691,726,633,662,1371],"next_num":8,"trial_type":"ticket-choose","trial_index":77,"time_elapsed":1632351,"internal_node_id":"0.0-77.0"},{"result":158,"points":2,"place":1,"phase":1,"sequence":5,"prices":[175,186,177,209,181,188,158,167,208,154],"times":[916,793,780,754,848,746,1265],"next_num":7,"trial_type":"ticket-choose","trial_index":78,"time_elapsed":1642282,"internal_node_id":"0.0-78.0"},{"result":163,"points":2,"place":1,"phase":1,"sequence":6,"prices":[174,186,163,212,181,187,176,166,153,209],"times":[991,743,1197],"next_num":3,"trial_type":"ticket-choose","trial_index":79,"time_elapsed":1648175,"internal_node_id":"0.0-79.0"},{"result":159,"points":1,"place":2,"phase":1,"sequence":7,"prices":[180,159,149,175,185,141,163,174,178,207],"times":[1056,1268],"next_num":2,"trial_type":"ticket-choose","trial_index":80,"time_elapsed":1653312,"internal_node_id":"0.0-80.0"},{"result":166,"points":1,"place":2,"phase":1,"sequence":8,"prices":[175,187,165,209,180,188,177,166,154,208],"times":[1389,995,3450,943,802,671,661,1163],"next_num":8,"trial_type":"ticket-choose","trial_index":81,"time_elapsed":1667619,"internal_node_id":"0.0-81.0"},{"result":165,"points":2,"place":1,"phase":1,"sequence":9,"prices":[188,200,165,172,198,174,177,154,177,180],"times":[1268,1992,1742],"next_num":3,"trial_type":"ticket-choose","trial_index":82,"time_elapsed":1676289,"internal_node_id":"0.0-82.0"},{"result":157,"points":3,"place":0,"phase":1,"sequence":10,"prices":[201,187,157,184,198,179,188,185,178,170],"times":[2882,2060,2652],"next_num":3,"trial_type":"ticket-choose","trial_index":83,"time_elapsed":1687165,"internal_node_id":"0.0-83.0"},{"result":165,"points":3,"place":0,"phase":1,"sequence":11,"prices":[193,165,175,181,185,224,180,199,218,184],"times":[1316,3488],"next_num":2,"trial_type":"ticket-choose","trial_index":84,"time_elapsed":1694961,"internal_node_id":"0.0-84.0"},{"result":158,"points":2,"place":1,"phase":1,"sequence":12,"prices":[176,187,158,210,181,187,177,165,208,153],"times":[1461,1245,1326],"next_num":3,"trial_type":"ticket-choose","trial_index":85,"time_elapsed":1702309,"internal_node_id":"0.0-85.0"},{"result":155,"points":2,"place":1,"phase":1,"sequence":13,"prices":[201,207,155,158,156,165,167,135,178,177],"times":[1298,880,1409],"next_num":3,"trial_type":"ticket-choose","trial_index":86,"time_elapsed":1709501,"internal_node_id":"0.0-86.0"},{"result":150,"points":3,"place":0,"phase":1,"sequence":14,"prices":[189,150,175,160,188,207,158,194,178,199],"times":[850,1296],"next_num":2,"trial_type":"ticket-choose","trial_index":87,"time_elapsed":1714518,"internal_node_id":"0.0-87.0"},{"result":165,"points":2,"place":1,"phase":1,"sequence":15,"prices":[174,186,177,217,181,187,165,166,153,209],"times":[933,979,1117,962,895,860,1552],"next_num":7,"trial_type":"ticket-choose","trial_index":88,"time_elapsed":1725952,"internal_node_id":"0.0-88.0"},{"result":165,"points":2,"place":1,"phase":1,"sequence":16,"prices":[175,186,177,210,179,187,165,166,153,208],"times":[1098,899,905,952,1089,1397,1299],"next_num":7,"trial_type":"ticket-choose","trial_index":89,"time_elapsed":1737496,"internal_node_id":"0.0-89.0"},{"result":155,"points":2,"place":1,"phase":1,"sequence":17,"prices":[181,155,148,161,168,187,172,199,176,194],"times":[1192,1236],"next_num":2,"trial_type":"ticket-choose","trial_index":90,"time_elapsed":1743051,"internal_node_id":"0.0-90.0"},{"result":167,"points":2,"place":1,"phase":1,"sequence":18,"prices":[174,186,178,217,181,188,167,168,208,156],"times":[1043,1056,741,997,819,792,1976],"next_num":7,"trial_type":"ticket-choose","trial_index":91,"time_elapsed":1754396,"internal_node_id":"0.0-91.0"},{"result":167,"points":2,"place":1,"phase":1,"sequence":19,"prices":[175,185,167,224,181,186,178,168,208,156],"times":[1079,1111,1508],"next_num":3,"trial_type":"ticket-choose","trial_index":92,"time_elapsed":1761166,"internal_node_id":"0.0-92.0"},{"result":158,"points":2,"place":1,"phase":1,"sequence":20,"prices":[176,187,177,225,181,187,158,165,208,153],"times":[1144,1166,746,781,884,936,1288],"next_num":7,"trial_type":"ticket-choose","trial_index":93,"time_elapsed":1771851,"internal_node_id":"0.0-93.0"},{"result":163,"points":2,"place":1,"phase":1,"sequence":21,"prices":[174,186,176,217,181,187,163,166,153,209],"times":[2634,786,911,835,908,994,1661],"next_num":7,"trial_type":"ticket-choose","trial_index":94,"time_elapsed":1784262,"internal_node_id":"0.0-94.0"},{"result":167,"points":2,"place":1,"phase":1,"sequence":22,"prices":[212,192,188,184,167,193,189,164,176,170],"times":[1191,1002,1115,839,2623],"next_num":5,"trial_type":"ticket-choose","trial_index":95,"time_elapsed":1794504,"internal_node_id":"0.0-95.0"},{"result":167,"points":2,"place":1,"phase":1,"sequence":23,"prices":[175,186,178,212,179,187,167,169,209,153],"times":[932,1027,837,827,887,1136,1272],"next_num":7,"trial_type":"ticket-choose","trial_index":96,"time_elapsed":1805223,"internal_node_id":"0.0-96.0"},{"result":163,"points":2,"place":1,"phase":1,"sequence":24,"prices":[175,186,176,210,179,187,163,166,153,208],"times":[878,759,890,921,1078,852,1158],"next_num":7,"trial_type":"ticket-choose","trial_index":97,"time_elapsed":1815345,"internal_node_id":"0.0-97.0"},{"result":165,"points":3,"place":0,"phase":1,"sequence":25,"prices":[193,169,171,187,190,224,174,194,165,188],"times":[1214,1399,681,771,860,1044,963,756,1461],"next_num":9,"trial_type":"ticket-choose","trial_index":98,"time_elapsed":1828989,"internal_node_id":"0.0-98.0"},{"result":163,"points":3,"place":0,"phase":1,"sequence":26,"prices":[168,199,196,198,185,195,227,163,177,166],"times":[1437,850,761,1103,849,742,745,1092],"next_num":8,"trial_type":"ticket-choose","trial_index":99,"time_elapsed":1840669,"internal_node_id":"0.0-99.0"},{"result":163,"points":2,"place":1,"phase":1,"sequence":27,"prices":[175,187,176,209,180,188,163,165,154,208],"times":[1373,713,1113,819,785,1234,1613],"next_num":7,"trial_type":"ticket-choose","trial_index":100,"time_elapsed":1852609,"internal_node_id":"0.0-100.0"},{"result":163,"points":1,"place":2,"phase":1,"sequence":28,"prices":[183,163,185,180,166,148,160,186,176,184],"times":[1088,1695],"next_num":2,"trial_type":"ticket-choose","trial_index":101,"time_elapsed":1858641,"internal_node_id":"0.0-101.0"},{"result":163,"points":2,"place":1,"phase":1,"sequence":29,"prices":[175,186,163,214,179,187,176,166,153,208],"times":[1111,821,1426],"next_num":3,"trial_type":"ticket-choose","trial_index":102,"time_elapsed":1865324,"internal_node_id":"0.0-102.0"},{"result":165,"points":3,"place":0,"phase":1,"sequence":30,"prices":[192,165,171,178,188,217,172,195,197,186],"times":[1051,1625],"next_num":2,"trial_type":"ticket-choose","trial_index":103,"time_elapsed":1871572,"internal_node_id":"0.0-103.0"},{"result":165,"points":2,"place":1,"phase":1,"sequence":31,"prices":[175,186,165,214,179,187,177,166,153,208],"times":[893,1174,1114],"next_num":3,"trial_type":"ticket-choose","trial_index":104,"time_elapsed":1878331,"internal_node_id":"0.0-104.0"},{"result":167,"points":1,"place":2,"phase":1,"sequence":32,"prices":[171,203,175,170,167,220,192,186,165,165],"times":[928,1721,1902,1563,1889],"next_num":5,"trial_type":"ticket-choose","trial_index":105,"time_elapsed":1890057,"internal_node_id":"0.0-105.0"},{"result":147,"points":3,"place":0,"phase":1,"sequence":33,"prices":[181,215,169,147,182,193,177,184,176,179],"times":[1293,819,973,1257],"next_num":4,"trial_type":"ticket-choose","trial_index":106,"time_elapsed":1898098,"internal_node_id":"0.0-106.0"},{"result":163,"points":2,"place":1,"phase":1,"sequence":34,"prices":[198,193,169,163,202,182,152,164,177,171],"times":[1036,879,1300,1290],"next_num":4,"trial_type":"ticket-choose","trial_index":107,"time_elapsed":1906065,"internal_node_id":"0.0-107.0"},{"result":158,"points":2,"place":1,"phase":1,"sequence":35,"prices":[175,186,158,211,180,187,177,166,209,153],"times":[996,835,1242],"next_num":3,"trial_type":"ticket-choose","trial_index":108,"time_elapsed":1912343,"internal_node_id":"0.0-108.0"},{"result":152,"points":3,"place":0,"phase":1,"sequence":36,"prices":[200,181,203,152,175,171,160,154,176,191],"times":[814,804,879,1217],"next_num":4,"trial_type":"ticket-choose","trial_index":109,"time_elapsed":1919537,"internal_node_id":"0.0-109.0"},{"result":169,"points":1,"place":2,"phase":1,"sequence":37,"prices":[175,186,167,225,179,187,178,169,209,153],"times":[937,859,1145,679,908,826,875,1430],"next_num":8,"trial_type":"ticket-choose","trial_index":110,"time_elapsed":1931392,"internal_node_id":"0.0-110.0"},{"result":165,"points":3,"place":0,"phase":1,"sequence":38,"prices":[185,170,182,201,173,199,171,188,165,168],"times":[1196,768,867,1301,2416,1065,1130,1057,1450],"next_num":9,"trial_type":"ticket-choose","trial_index":111,"time_elapsed":1947487,"internal_node_id":"0.0-111.0"},{"result":154,"points":2,"place":1,"phase":1,"sequence":39,"prices":[168,154,172,185,195,144,184,211,177,227],"times":[1931,1321],"next_num":2,"trial_type":"ticket-choose","trial_index":112,"time_elapsed":1953816,"internal_node_id":"0.0-112.0"},{"result":167,"points":2,"place":1,"phase":1,"sequence":40,"prices":[183,182,192,168,173,205,167,187,165,170],"times":[936,1048,785,1150,870,877,1996],"next_num":7,"trial_type":"ticket-choose","trial_index":113,"time_elapsed":1965354,"internal_node_id":"0.0-113.0"},{"result":165,"points":2,"place":1,"phase":1,"sequence":41,"prices":[174,186,165,212,181,187,177,167,153,209],"times":[1725,789,1333],"next_num":3,"trial_type":"ticket-choose","trial_index":114,"time_elapsed":1972621,"internal_node_id":"0.0-114.0"},{"result":165,"points":2,"place":1,"phase":1,"sequence":42,"prices":[175,187,177,209,180,188,165,165,154,208],"times":[912,941,777,989,981,1056,1155],"next_num":7,"trial_type":"ticket-choose","trial_index":115,"time_elapsed":1983408,"internal_node_id":"0.0-115.0"},{"result":165,"points":3,"place":0,"phase":1,"sequence":43,"prices":[191,172,169,175,182,203,170,195,165,176],"times":[999,839,1359,888,800,1029,960,989,1140],"next_num":9,"trial_type":"ticket-choose","trial_index":116,"time_elapsed":1996777,"internal_node_id":"0.0-116.0"},{"result":167,"points":2,"place":1,"phase":1,"sequence":44,"prices":[175,185,178,215,181,186,167,168,208,156],"times":[1494,789,901,900,871,917,1270],"next_num":7,"trial_type":"ticket-choose","trial_index":117,"time_elapsed":2008047,"internal_node_id":"0.0-117.0"},{"result":165,"points":2,"place":1,"phase":1,"sequence":45,"prices":[201,165,162,166,185,214,165,202,204,179],"times":[861,1204],"next_num":2,"trial_type":"ticket-choose","trial_index":118,"time_elapsed":2013299,"internal_node_id":"0.0-118.0"},{"result":165,"points":2,"place":1,"phase":1,"sequence":46,"prices":[200,165,165,173,182,207,161,202,204,180],"times":[827,1397],"next_num":2,"trial_type":"ticket-choose","trial_index":119,"time_elapsed":2018789,"internal_node_id":"0.0-119.0"},{"result":158,"points":2,"place":1,"phase":1,"sequence":47,"prices":[175,186,177,221,180,187,158,166,209,153],"times":[849,934,887,975,883,941,1594],"next_num":7,"trial_type":"ticket-choose","trial_index":120,"time_elapsed":2030167,"internal_node_id":"0.0-120.0"},{"result":143,"points":3,"place":0,"phase":1,"sequence":48,"prices":[222,173,202,197,143,205,198,183,178,186],"times":[983,850,874,928,1258],"next_num":5,"trial_type":"ticket-choose","trial_index":121,"time_elapsed":2038655,"internal_node_id":"0.0-121.0"},{"result":158,"points":2,"place":1,"phase":1,"sequence":49,"prices":[175,186,158,209,181,188,177,167,208,154],"times":[1014,904,1484],"next_num":3,"trial_type":"ticket-choose","trial_index":122,"time_elapsed":2045319,"internal_node_id":"0.0-122.0"},{"responses":[{"value":0,"offby":-1,"category":"$115 - $130","category_index":0},{"value":0,"offby":-5,"category":"$131 - $145","category_index":1},{"value":1,"offby":-11,"category":"$146 - $160","category_index":2},{"value":98,"offby":76,"category":"$161 - $175","category_index":3},{"value":1,"offby":-33,"category":"$176 - $190","category_index":4},{"value":0,"offby":-15,"category":"$191 - $205","category_index":5},{"value":0,"offby":-11,"category":"$206 - $220","category_index":6}],"phase":1,"number":1,"trial_type":"bar-choose","trial_index":123,"time_elapsed":2129407,"internal_node_id":"0.0-123.0"},{"special_comment":"I could not find a trend","trial_type":"special_sequence","trial_index":124,"time_elapsed":2152448,"internal_node_id":"0.0-124.0"},{"during":"Nothing","bonus":272,"trial_type":"final","trial_index":125,"time_elapsed":2205342,"internal_node_id":"0.0-125.0"}],"bonus":272}