{"start_time":"2017-05-24 13:11:40","end_time":"2017-05-24 13:27:20","points_phase0":73,"points_phase1":73,"phase_order":1,"age":33,"gender":"m","tries":1,"during":"Nothing","worker_id":"AA402T4YY1S7N","assignment_id":"3WR9XG3T644OPHST60L2P7GSGO374P","data":[{"rt":4772,"url":"\/christiane\/tickets\/utils\/consent.html","trial_type":"html","trial_index":0,"time_elapsed":4878,"internal_node_id":"0.0-0.0"},{"age":33,"gender":"m","trial_type":"age","trial_index":1,"time_elapsed":9003,"internal_node_id":"0.0-1.0"},{"worker_id":"AA402T4YY1S7N","trial_type":"workerid","trial_index":2,"time_elapsed":20249,"internal_node_id":"0.0-2.0"},{"tries":1,"trial_type":"instructions_check","trial_index":3,"time_elapsed":34792,"internal_node_id":"0.0-3.0"},{"rt":6397,"url":"\/christiane\/tickets\/utils\/start.html","trial_type":"html","trial_index":4,"time_elapsed":42303,"internal_node_id":"0.0-4.0"},{"trial_type":"number-animation","trial_index":5,"time_elapsed":51017,"internal_node_id":"0.0-5.0"},{"phase":0,"sequence":0,"avg":181,"response":170,"trial_type":"training_avg","trial_index":6,"time_elapsed":58513,"internal_node_id":"0.0-6.0"},{"trial_type":"number-animation","trial_index":7,"time_elapsed":66109,"internal_node_id":"0.0-7.0"},{"phase":0,"sequence":1,"avg":188,"response":204,"trial_type":"training_avg","trial_index":8,"time_elapsed":73477,"internal_node_id":"0.0-8.0"},{"trial_type":"number-animation","trial_index":9,"time_elapsed":80117,"internal_node_id":"0.0-9.0"},{"phase":0,"sequence":2,"avg":188,"response":180,"trial_type":"training_avg","trial_index":10,"time_elapsed":85761,"internal_node_id":"0.0-10.0"},{"trial_type":"number-animation","trial_index":11,"time_elapsed":91340,"internal_node_id":"0.0-11.0"},{"phase":0,"sequence":3,"avg":177,"response":171,"trial_type":"training_avg","trial_index":12,"time_elapsed":96400,"internal_node_id":"0.0-12.0"},{"trial_type":"number-animation","trial_index":13,"time_elapsed":103334,"internal_node_id":"0.0-13.0"},{"phase":0,"sequence":4,"avg":182,"response":177,"trial_type":"training_avg","trial_index":14,"time_elapsed":108920,"internal_node_id":"0.0-14.0"},{"responses":[{"value":0,"offby":-1,"category":"$115 - $130","category_index":0},{"value":0,"offby":-5,"category":"$131 - $145","category_index":1},{"value":26,"offby":14,"category":"$146 - $160","category_index":2},{"value":27,"offby":5,"category":"$161 - $175","category_index":3},{"value":37,"offby":3,"category":"$176 - $190","category_index":4},{"value":10,"offby":-5,"category":"$191 - $205","category_index":5},{"value":0,"offby":-11,"category":"$206 - $220","category_index":6}],"phase":0,"number":0,"trial_type":"bar-choose","trial_index":15,"time_elapsed":184837,"internal_node_id":"0.0-15.0"},{"rt":2170,"url":"\/christiane\/tickets\/utils\/testing.html","trial_type":"html","trial_index":16,"time_elapsed":188104,"internal_node_id":"0.0-16.0"},{"phase":0,"order":[31,39,17,4,0,34,14,22,30,48,33,8,12,3,42,13,26,49,5,6,41,47,18,16,2,38,44,9,28,32,40,10,27,45,23,15,43,20,1,46,35,19,24,7,29,36,25,11,21,37],"trial_type":"store_order","trial_index":17,"time_elapsed":189105,"internal_node_id":"0.0-17.0"},{"result":165,"points":2,"place":1,"phase":0,"sequence":-1,"prices":[184,180,224,165,181,199,185,193,218,146],"times":[4399,411,632,1453],"next_num":4,"trial_type":"ticket-choose","trial_index":18,"time_elapsed":198844,"internal_node_id":"0.0-18.0"},{"rt":2903,"url":"\/christiane\/tickets\/utils\/testing_after.html","trial_type":"html","trial_index":19,"time_elapsed":202806,"internal_node_id":"0.0-19.0"},{"result":165,"points":1,"place":2,"phase":0,"sequence":0,"prices":[199,193,169,165,202,182,151,164,176,171],"times":[1415,536,537,1311],"next_num":4,"trial_type":"ticket-choose","trial_index":20,"time_elapsed":209799,"internal_node_id":"0.0-20.0"},{"result":151,"points":2,"place":1,"phase":0,"sequence":1,"prices":[181,159,149,175,185,151,163,174,178,207],"times":[1117,213,427,540,569,987],"next_num":6,"trial_type":"ticket-choose","trial_index":21,"time_elapsed":217060,"internal_node_id":"0.0-21.0"},{"result":169,"points":2,"place":1,"phase":0,"sequence":2,"prices":[196,171,170,184,187,165,211,169,201,202],"times":[1067,1113,607,569,642,664,670,1002],"next_num":8,"trial_type":"ticket-choose","trial_index":22,"time_elapsed":227095,"internal_node_id":"0.0-22.0"},{"result":167,"points":2,"place":1,"phase":0,"sequence":3,"prices":[178,174,186,217,167,181,188,168,208,156],"times":[914,601,611,592,1100],"next_num":5,"trial_type":"ticket-choose","trial_index":23,"time_elapsed":233788,"internal_node_id":"0.0-23.0"},{"result":153,"points":2,"place":1,"phase":0,"sequence":4,"prices":[167,153,172,185,195,143,184,211,177,227],"times":[1037,977],"next_num":2,"trial_type":"ticket-choose","trial_index":24,"time_elapsed":238135,"internal_node_id":"0.0-24.0"},{"result":184,"points":1,"place":3,"phase":0,"sequence":5,"prices":[214,184,226,192,215,158,199,175,176,208],"times":[1021,965],"next_num":2,"trial_type":"ticket-choose","trial_index":25,"time_elapsed":242356,"internal_node_id":"0.0-25.0"},{"result":167,"points":2,"place":1,"phase":0,"sequence":6,"prices":[178,175,185,215,167,181,186,168,208,156],"times":[1125,568,554,603,979],"next_num":5,"trial_type":"ticket-choose","trial_index":26,"time_elapsed":249319,"internal_node_id":"0.0-26.0"},{"result":166,"points":1,"place":2,"phase":0,"sequence":7,"prices":[165,174,186,212,177,181,187,166,153,209],"times":[999,649,548,592,705,648,680,989],"next_num":8,"trial_type":"ticket-choose","trial_index":27,"time_elapsed":258590,"internal_node_id":"0.0-27.0"},{"result":175,"points":2,"place":1,"phase":0,"sequence":8,"prices":[193,181,175,181,185,165,224,199,218,184],"times":[1777,1017,1002],"next_num":3,"trial_type":"ticket-choose","trial_index":28,"time_elapsed":265022,"internal_node_id":"0.0-28.0"},{"result":179,"points":1,"place":4,"phase":0,"sequence":9,"prices":[201,204,179,166,185,165,214,156,202,165],"times":[860,529,1058],"next_num":3,"trial_type":"ticket-choose","trial_index":29,"time_elapsed":269867,"internal_node_id":"0.0-29.0"},{"result":180,"points":0,"place":6,"phase":0,"sequence":10,"prices":[200,180,203,152,175,170,160,154,176,191],"times":[3940,1019],"next_num":2,"trial_type":"ticket-choose","trial_index":30,"time_elapsed":276996,"internal_node_id":"0.0-30.0"},{"result":149,"points":3,"place":0,"phase":0,"sequence":11,"prices":[180,156,149,160,168,186,172,198,176,195],"times":[944,476,1224],"next_num":3,"trial_type":"ticket-choose","trial_index":31,"time_elapsed":282086,"internal_node_id":"0.0-31.0"},{"result":167,"points":2,"place":1,"phase":0,"sequence":12,"prices":[189,167,180,197,165,168,172,213,178,171],"times":[782,1020],"next_num":2,"trial_type":"ticket-choose","trial_index":32,"time_elapsed":286015,"internal_node_id":"0.0-32.0"},{"result":187,"points":0,"place":6,"phase":0,"sequence":13,"prices":[201,187,157,184,198,179,188,185,178,170],"times":[780,833],"next_num":2,"trial_type":"ticket-choose","trial_index":33,"time_elapsed":289843,"internal_node_id":"0.0-33.0"},{"result":173,"points":1,"place":4,"phase":0,"sequence":14,"prices":[200,173,182,169,207,165,152,202,161,204],"times":[743,908],"next_num":2,"trial_type":"ticket-choose","trial_index":34,"time_elapsed":293728,"internal_node_id":"0.0-34.0"},{"result":172,"points":1,"place":3,"phase":0,"sequence":15,"prices":[192,172,171,178,188,165,217,168,195,197],"times":[902,946],"next_num":2,"trial_type":"ticket-choose","trial_index":35,"time_elapsed":297822,"internal_node_id":"0.0-35.0"},{"result":165,"points":1,"place":2,"phase":0,"sequence":16,"prices":[163,175,187,209,176,180,188,165,154,208],"times":[815,643,805,630,830,608,576,964],"next_num":8,"trial_type":"ticket-choose","trial_index":36,"time_elapsed":307147,"internal_node_id":"0.0-36.0"},{"result":168,"points":1,"place":2,"phase":0,"sequence":17,"prices":[167,175,185,224,178,181,186,168,208,156],"times":[642,555,544,608,720,602,799,1082],"next_num":8,"trial_type":"ticket-choose","trial_index":37,"time_elapsed":316239,"internal_node_id":"0.0-37.0"},{"result":158,"points":2,"place":1,"phase":0,"sequence":18,"prices":[177,176,187,225,158,181,187,165,208,153],"times":[761,704,624,663,1186],"next_num":5,"trial_type":"ticket-choose","trial_index":38,"time_elapsed":322890,"internal_node_id":"0.0-38.0"},{"result":163,"points":1,"place":2,"phase":0,"sequence":19,"prices":[173,163,185,181,166,148,160,185,176,184],"times":[991,844],"next_num":2,"trial_type":"ticket-choose","trial_index":39,"time_elapsed":326861,"internal_node_id":"0.0-39.0"},{"result":176,"points":1,"place":3,"phase":0,"sequence":20,"prices":[176,187,179,209,163,180,188,165,154,208],"times":[17741],"next_num":1,"trial_type":"ticket-choose","trial_index":40,"time_elapsed":346943,"internal_node_id":"0.0-40.0"},{"result":147,"points":3,"place":0,"phase":0,"sequence":21,"prices":[181,214,169,147,182,193,178,184,176,179],"times":[1052,648,887,1341],"next_num":4,"trial_type":"ticket-choose","trial_index":41,"time_elapsed":353402,"internal_node_id":"0.0-41.0"},{"result":158,"points":2,"place":1,"phase":0,"sequence":22,"prices":[177,175,186,221,158,180,187,166,209,153],"times":[810,543,539,593,853],"next_num":5,"trial_type":"ticket-choose","trial_index":42,"time_elapsed":359599,"internal_node_id":"0.0-42.0"},{"result":181,"points":0,"place":5,"phase":0,"sequence":23,"prices":[167,174,186,211,178,181,188,168,208,156],"times":[745,540,725,672,947,736],"next_num":6,"trial_type":"ticket-choose","trial_index":43,"time_elapsed":366886,"internal_node_id":"0.0-43.0"},{"result":186,"points":0,"place":6,"phase":0,"sequence":24,"prices":[176,175,186,210,163,179,187,166,153,208],"times":[722,585,713],"next_num":3,"trial_type":"ticket-choose","trial_index":44,"time_elapsed":371258,"internal_node_id":"0.0-44.0"},{"result":165,"points":2,"place":1,"phase":0,"sequence":25,"prices":[187,201,165,172,196,174,178,154,172,180],"times":[550,638,1674],"next_num":3,"trial_type":"ticket-choose","trial_index":45,"time_elapsed":376528,"internal_node_id":"0.0-45.0"},{"result":170,"points":1,"place":2,"phase":0,"sequence":26,"prices":[191,170,182,165,175,182,203,157,195,200],"times":[66531,878],"next_num":2,"trial_type":"ticket-choose","trial_index":46,"time_elapsed":446325,"internal_node_id":"0.0-46.0"},{"result":165,"points":2,"place":1,"phase":0,"sequence":27,"prices":[165,175,186,214,177,179,187,166,153,208],"times":[3942],"next_num":1,"trial_type":"ticket-choose","trial_index":47,"time_elapsed":452388,"internal_node_id":"0.0-47.0"},{"result":174,"points":1,"place":3,"phase":0,"sequence":28,"prices":[199,191,188,174,167,193,189,164,176,170],"times":[1187,569,695,1366],"next_num":4,"trial_type":"ticket-choose","trial_index":48,"time_elapsed":458992,"internal_node_id":"0.0-48.0"},{"result":167,"points":2,"place":1,"phase":0,"sequence":29,"prices":[167,175,186,225,178,179,187,169,209,153],"times":[3255],"next_num":1,"trial_type":"ticket-choose","trial_index":49,"time_elapsed":464500,"internal_node_id":"0.0-49.0"},{"result":155,"points":2,"place":1,"phase":0,"sequence":30,"prices":[200,207,155,158,156,168,167,135,178,177],"times":[4293,553,1160],"next_num":3,"trial_type":"ticket-choose","trial_index":50,"time_elapsed":474757,"internal_node_id":"0.0-50.0"},{"result":179,"points":1,"place":4,"phase":0,"sequence":31,"prices":[183,179,188,165,168,173,205,159,187,191],"times":[1226,963],"next_num":2,"trial_type":"ticket-choose","trial_index":51,"time_elapsed":480028,"internal_node_id":"0.0-51.0"},{"result":165,"points":2,"place":1,"phase":0,"sequence":32,"prices":[177,174,186,217,165,181,187,166,153,209],"times":[4681,694,847,625,946],"next_num":5,"trial_type":"ticket-choose","trial_index":52,"time_elapsed":490651,"internal_node_id":"0.0-52.0"},{"result":163,"points":2,"place":1,"phase":0,"sequence":33,"prices":[163,175,186,214,176,179,187,166,153,208],"times":[1001],"next_num":1,"trial_type":"ticket-choose","trial_index":53,"time_elapsed":493685,"internal_node_id":"0.0-53.0"},{"result":169,"points":1,"place":2,"phase":0,"sequence":34,"prices":[178,175,186,212,167,179,187,169,209,153],"times":[791,563,554,626,506,602,562,1003],"next_num":8,"trial_type":"ticket-choose","trial_index":54,"time_elapsed":502411,"internal_node_id":"0.0-54.0"},{"result":167,"points":1,"place":2,"phase":0,"sequence":35,"prices":[165,175,187,209,177,180,188,167,154,208],"times":[772,521,476,546,552,696,602,854],"next_num":8,"trial_type":"ticket-choose","trial_index":55,"time_elapsed":511044,"internal_node_id":"0.0-55.0"},{"result":158,"points":2,"place":1,"phase":0,"sequence":36,"prices":[158,176,187,210,177,181,187,165,208,153],"times":[1784],"next_num":1,"trial_type":"ticket-choose","trial_index":56,"time_elapsed":514848,"internal_node_id":"0.0-56.0"},{"result":158,"points":2,"place":1,"phase":0,"sequence":37,"prices":[177,175,186,209,158,181,188,167,208,154],"times":[1186,677,572,599,1052],"next_num":5,"trial_type":"ticket-choose","trial_index":57,"time_elapsed":521629,"internal_node_id":"0.0-57.0"},{"result":174,"points":1,"place":2,"phase":0,"sequence":38,"prices":[193,174,224,165,187,190,224,161,194,195],"times":[1143,977],"next_num":2,"trial_type":"ticket-choose","trial_index":58,"time_elapsed":525843,"internal_node_id":"0.0-58.0"},{"result":150,"points":3,"place":0,"phase":0,"sequence":39,"prices":[190,150,175,161,188,207,157,194,178,199],"times":[990,924],"next_num":2,"trial_type":"ticket-choose","trial_index":59,"time_elapsed":529898,"internal_node_id":"0.0-59.0"},{"result":165,"points":2,"place":1,"phase":0,"sequence":40,"prices":[177,175,187,209,165,180,188,165,154,208],"times":[1051,625,618,610,1676],"next_num":5,"trial_type":"ticket-choose","trial_index":60,"time_elapsed":537325,"internal_node_id":"0.0-60.0"},{"result":163,"points":3,"place":0,"phase":0,"sequence":41,"prices":[163,199,196,199,185,195,227,163,177,166],"times":[3959],"next_num":1,"trial_type":"ticket-choose","trial_index":61,"time_elapsed":543491,"internal_node_id":"0.0-61.0"},{"result":169,"points":0,"place":5,"phase":0,"sequence":42,"prices":[171,169,186,165,163,167,220,148,187,165],"times":[940,907],"next_num":2,"trial_type":"ticket-choose","trial_index":62,"time_elapsed":547326,"internal_node_id":"0.0-62.0"},{"result":167,"points":1,"place":2,"phase":0,"sequence":43,"prices":[158,175,186,209,177,181,188,167,208,154],"times":[717,548,545,539,555,578,590,1001],"next_num":8,"trial_type":"ticket-choose","trial_index":63,"time_elapsed":555658,"internal_node_id":"0.0-63.0"},{"result":166,"points":1,"place":2,"phase":0,"sequence":44,"prices":[177,175,186,210,165,179,187,166,153,208],"times":[903,615,552,578,522,554,564,948],"next_num":8,"trial_type":"ticket-choose","trial_index":64,"time_elapsed":564099,"internal_node_id":"0.0-64.0"},{"result":179,"points":0,"place":5,"phase":0,"sequence":45,"prices":[185,179,191,165,161,173,199,150,188,168],"times":[1146,980],"next_num":2,"trial_type":"ticket-choose","trial_index":65,"time_elapsed":568249,"internal_node_id":"0.0-65.0"},{"result":163,"points":2,"place":1,"phase":0,"sequence":46,"prices":[176,186,178,217,163,181,187,166,153,209],"times":[707,585,578,594,1389],"next_num":5,"trial_type":"ticket-choose","trial_index":66,"time_elapsed":574992,"internal_node_id":"0.0-66.0"},{"result":173,"points":2,"place":1,"phase":0,"sequence":47,"prices":[220,173,201,197,169,205,198,183,178,186],"times":[1005,1080],"next_num":2,"trial_type":"ticket-choose","trial_index":67,"time_elapsed":579151,"internal_node_id":"0.0-67.0"},{"result":166,"points":1,"place":2,"phase":0,"sequence":48,"prices":[163,174,186,212,176,181,187,166,153,209],"times":[791,600,586,648,895,655,623,1032],"next_num":8,"trial_type":"ticket-choose","trial_index":68,"time_elapsed":588648,"internal_node_id":"0.0-68.0"},{"result":158,"points":2,"place":1,"phase":0,"sequence":49,"prices":[158,175,186,211,177,180,187,166,209,153],"times":[1669],"next_num":1,"trial_type":"ticket-choose","trial_index":69,"time_elapsed":592269,"internal_node_id":"0.0-69.0"},{"responses":[{"value":0,"offby":-1,"category":"$115 - $130","category_index":0},{"value":0,"offby":-5,"category":"$131 - $145","category_index":1},{"value":100,"offby":88,"category":"$146 - $160","category_index":2},{"value":0,"offby":-22,"category":"$161 - $175","category_index":3},{"value":0,"offby":-34,"category":"$176 - $190","category_index":4},{"value":0,"offby":-15,"category":"$191 - $205","category_index":5},{"value":0,"offby":-11,"category":"$206 - $220","category_index":6}],"phase":1,"number":1,"trial_type":"bar-choose","trial_index":70,"time_elapsed":605069,"internal_node_id":"0.0-70.0"},{"rt":8264,"url":"\/christiane\/tickets\/utils\/testing2.html","trial_type":"point_update","trial_index":71,"time_elapsed":614478,"internal_node_id":"0.0-71.0"},{"phase":1,"order":[37,44,28,3,35,46,4,8,24,25,47,34,39,43,26,27,13,1,23,49,16,48,21,0,15,36,30,6,45,2,41,33,11,12,5,7,20,22,32,40,10,38,31,19,9,29,17,42,14,18],"trial_type":"store_order","trial_index":72,"time_elapsed":615480,"internal_node_id":"0.0-72.0"},{"result":171,"points":1,"place":4,"phase":1,"sequence":0,"prices":[171,203,175,170,167,220,192,186,165,165],"times":[2082],"next_num":1,"trial_type":"ticket-choose","trial_index":73,"time_elapsed":619698,"internal_node_id":"0.0-73.0"},{"result":167,"points":2,"place":1,"phase":1,"sequence":1,"prices":[189,167,180,197,165,168,172,213,178,171],"times":[1083,632],"next_num":2,"trial_type":"ticket-choose","trial_index":74,"time_elapsed":623762,"internal_node_id":"0.0-74.0"},{"result":186,"points":0,"place":6,"phase":1,"sequence":2,"prices":[174,186,176,217,181,187,163,166,153,209],"times":[1324,720],"next_num":2,"trial_type":"ticket-choose","trial_index":75,"time_elapsed":628692,"internal_node_id":"0.0-75.0"},{"result":185,"points":0,"place":6,"phase":1,"sequence":3,"prices":[175,185,178,215,181,186,167,168,208,156],"times":[686,493],"next_num":2,"trial_type":"ticket-choose","trial_index":76,"time_elapsed":632047,"internal_node_id":"0.0-76.0"},{"result":167,"points":2,"place":1,"phase":1,"sequence":4,"prices":[174,186,167,211,181,188,178,168,208,156],"times":[918,569,1051],"next_num":3,"trial_type":"ticket-choose","trial_index":77,"time_elapsed":636991,"internal_node_id":"0.0-77.0"},{"result":155,"points":2,"place":1,"phase":1,"sequence":5,"prices":[181,155,148,161,168,187,172,199,176,194],"times":[854,863],"next_num":2,"trial_type":"ticket-choose","trial_index":78,"time_elapsed":640986,"internal_node_id":"0.0-78.0"},{"result":163,"points":2,"place":1,"phase":1,"sequence":6,"prices":[174,186,163,212,181,187,176,166,153,209],"times":[860,626,879],"next_num":3,"trial_type":"ticket-choose","trial_index":79,"time_elapsed":645695,"internal_node_id":"0.0-79.0"},{"result":177,"points":1,"place":4,"phase":1,"sequence":7,"prices":[175,186,177,209,181,188,158,167,208,154],"times":[810,595,859],"next_num":3,"trial_type":"ticket-choose","trial_index":80,"time_elapsed":650262,"internal_node_id":"0.0-80.0"},{"result":172,"points":1,"place":3,"phase":1,"sequence":8,"prices":[191,172,169,175,182,203,170,195,165,176],"times":[539,972],"next_num":2,"trial_type":"ticket-choose","trial_index":81,"time_elapsed":653885,"internal_node_id":"0.0-81.0"},{"result":169,"points":2,"place":1,"phase":1,"sequence":9,"prices":[181,215,169,147,182,193,177,184,176,179],"times":[563,617,1056],"next_num":3,"trial_type":"ticket-choose","trial_index":82,"time_elapsed":658783,"internal_node_id":"0.0-82.0"},{"result":183,"points":0,"place":6,"phase":1,"sequence":10,"prices":[183,182,192,168,173,205,167,187,165,170],"times":[3684],"next_num":1,"trial_type":"ticket-choose","trial_index":83,"time_elapsed":665297,"internal_node_id":"0.0-83.0"},{"result":165,"points":2,"place":1,"phase":1,"sequence":11,"prices":[174,186,165,212,181,187,177,167,153,209],"times":[1920,604,1155],"next_num":3,"trial_type":"ticket-choose","trial_index":84,"time_elapsed":671720,"internal_node_id":"0.0-84.0"},{"result":163,"points":2,"place":1,"phase":1,"sequence":12,"prices":[175,186,163,214,179,187,176,166,153,208],"times":[1409,672,1082],"next_num":3,"trial_type":"ticket-choose","trial_index":85,"time_elapsed":677336,"internal_node_id":"0.0-85.0"},{"result":181,"points":0,"place":5,"phase":1,"sequence":13,"prices":[174,186,178,217,181,188,167,168,208,156],"times":[1080,559,862,13544,870],"next_num":5,"trial_type":"ticket-choose","trial_index":86,"time_elapsed":697122,"internal_node_id":"0.0-86.0"},{"result":173,"points":2,"place":1,"phase":1,"sequence":14,"prices":[222,173,202,197,143,205,198,183,178,186],"times":[9699,1048],"next_num":2,"trial_type":"ticket-choose","trial_index":87,"time_elapsed":710133,"internal_node_id":"0.0-87.0"},{"result":163,"points":2,"place":1,"phase":1,"sequence":15,"prices":[175,187,163,209,180,188,176,165,154,208],"times":[1161,610,924],"next_num":3,"trial_type":"ticket-choose","trial_index":88,"time_elapsed":715044,"internal_node_id":"0.0-88.0"},{"result":165,"points":2,"place":1,"phase":1,"sequence":16,"prices":[200,165,165,173,182,207,161,202,204,180],"times":[784,1015],"next_num":2,"trial_type":"ticket-choose","trial_index":89,"time_elapsed":718889,"internal_node_id":"0.0-89.0"},{"result":163,"points":1,"place":2,"phase":1,"sequence":17,"prices":[183,163,185,180,166,148,160,186,176,184],"times":[589,1152],"next_num":2,"trial_type":"ticket-choose","trial_index":90,"time_elapsed":722730,"internal_node_id":"0.0-90.0"},{"result":167,"points":2,"place":1,"phase":1,"sequence":18,"prices":[175,186,178,212,179,187,167,169,209,153],"times":[931,574,547,690,545,601,945],"next_num":7,"trial_type":"ticket-choose","trial_index":91,"time_elapsed":730787,"internal_node_id":"0.0-91.0"},{"result":165,"points":2,"place":1,"phase":1,"sequence":19,"prices":[175,186,165,214,179,187,177,166,153,208],"times":[524,568,916],"next_num":3,"trial_type":"ticket-choose","trial_index":92,"time_elapsed":735101,"internal_node_id":"0.0-92.0"},{"result":155,"points":2,"place":1,"phase":1,"sequence":20,"prices":[201,207,155,158,156,165,167,135,178,177],"times":[890,624,1036],"next_num":3,"trial_type":"ticket-choose","trial_index":93,"time_elapsed":739931,"internal_node_id":"0.0-93.0"},{"result":152,"points":3,"place":0,"phase":1,"sequence":21,"prices":[200,181,203,152,175,171,160,154,176,191],"times":[746,596,580,872],"next_num":4,"trial_type":"ticket-choose","trial_index":94,"time_elapsed":745396,"internal_node_id":"0.0-94.0"},{"result":158,"points":2,"place":1,"phase":1,"sequence":22,"prices":[175,186,158,211,180,187,177,166,209,153],"times":[1210,1217,799],"next_num":3,"trial_type":"ticket-choose","trial_index":95,"time_elapsed":750927,"internal_node_id":"0.0-95.0"},{"result":180,"points":0,"place":5,"phase":1,"sequence":23,"prices":[175,187,176,209,180,188,163,165,154,208],"times":[764,798,616,758,1028],"next_num":5,"trial_type":"ticket-choose","trial_index":96,"time_elapsed":757644,"internal_node_id":"0.0-96.0"},{"result":167,"points":2,"place":1,"phase":1,"sequence":24,"prices":[175,186,167,225,179,187,178,169,209,153],"times":[663,562,925],"next_num":3,"trial_type":"ticket-choose","trial_index":97,"time_elapsed":762447,"internal_node_id":"0.0-97.0"},{"result":163,"points":3,"place":0,"phase":1,"sequence":25,"prices":[168,199,196,198,185,195,227,163,177,166],"times":[782,637,624,600,783,649,680,900],"next_num":8,"trial_type":"ticket-choose","trial_index":98,"time_elapsed":772305,"internal_node_id":"0.0-98.0"},{"result":159,"points":1,"place":2,"phase":1,"sequence":26,"prices":[180,159,149,175,185,141,163,174,178,207],"times":[597,1602],"next_num":2,"trial_type":"ticket-choose","trial_index":99,"time_elapsed":776512,"internal_node_id":"0.0-99.0"},{"result":179,"points":0,"place":5,"phase":1,"sequence":27,"prices":[175,186,177,210,179,187,165,166,153,208],"times":[664,562,774,610,1112],"next_num":5,"trial_type":"ticket-choose","trial_index":100,"time_elapsed":783079,"internal_node_id":"0.0-100.0"},{"result":165,"points":3,"place":0,"phase":1,"sequence":28,"prices":[196,165,170,184,187,211,171,201,202,185],"times":[869,1121],"next_num":2,"trial_type":"ticket-choose","trial_index":101,"time_elapsed":787374,"internal_node_id":"0.0-101.0"},{"result":194,"points":0,"place":8,"phase":1,"sequence":29,"prices":[193,169,171,187,190,224,174,194,165,188],"times":[731,704,580,569,600,611,591,1058],"next_num":8,"trial_type":"ticket-choose","trial_index":102,"time_elapsed":796275,"internal_node_id":"0.0-102.0"},{"result":150,"points":3,"place":0,"phase":1,"sequence":30,"prices":[189,150,175,160,188,207,158,194,178,199],"times":[800,912],"next_num":2,"trial_type":"ticket-choose","trial_index":103,"time_elapsed":800030,"internal_node_id":"0.0-103.0"},{"result":177,"points":1,"place":4,"phase":1,"sequence":31,"prices":[175,187,177,209,180,188,165,165,154,208],"times":[495,563,1805],"next_num":3,"trial_type":"ticket-choose","trial_index":104,"time_elapsed":805306,"internal_node_id":"0.0-104.0"},{"result":165,"points":3,"place":0,"phase":1,"sequence":32,"prices":[192,165,171,178,188,217,172,195,197,186],"times":[793,971],"next_num":2,"trial_type":"ticket-choose","trial_index":105,"time_elapsed":809173,"internal_node_id":"0.0-105.0"},{"result":192,"points":0,"place":7,"phase":1,"sequence":33,"prices":[212,192,188,184,167,193,189,164,176,170],"times":[559,1853],"next_num":2,"trial_type":"ticket-choose","trial_index":106,"time_elapsed":813724,"internal_node_id":"0.0-106.0"},{"result":181,"points":0,"place":5,"phase":1,"sequence":34,"prices":[176,187,177,225,181,187,158,165,208,153],"times":[808,612,720,640,1192],"next_num":5,"trial_type":"ticket-choose","trial_index":107,"time_elapsed":820488,"internal_node_id":"0.0-107.0"},{"result":186,"points":0,"place":6,"phase":1,"sequence":35,"prices":[175,186,176,210,179,187,163,166,153,208],"times":[746,773],"next_num":2,"trial_type":"ticket-choose","trial_index":108,"time_elapsed":824148,"internal_node_id":"0.0-108.0"},{"result":187,"points":0,"place":6,"phase":1,"sequence":36,"prices":[201,187,157,184,198,179,188,185,178,170],"times":[711,876],"next_num":2,"trial_type":"ticket-choose","trial_index":109,"time_elapsed":827848,"internal_node_id":"0.0-109.0"},{"result":158,"points":2,"place":1,"phase":1,"sequence":37,"prices":[176,187,158,210,181,187,177,165,208,153],"times":[548,649,909],"next_num":3,"trial_type":"ticket-choose","trial_index":110,"time_elapsed":833159,"internal_node_id":"0.0-110.0"},{"result":167,"points":2,"place":1,"phase":1,"sequence":38,"prices":[175,185,167,224,181,186,178,168,208,156],"times":[1851,994,870],"next_num":3,"trial_type":"ticket-choose","trial_index":111,"time_elapsed":839210,"internal_node_id":"0.0-111.0"},{"result":184,"points":1,"place":3,"phase":1,"sequence":39,"prices":[210,184,226,193,215,158,199,175,176,208],"times":[757,782],"next_num":2,"trial_type":"ticket-choose","trial_index":112,"time_elapsed":842809,"internal_node_id":"0.0-112.0"},{"result":144,"points":3,"place":0,"phase":1,"sequence":40,"prices":[168,154,172,185,195,144,184,211,177,227],"times":[507,505,634,579,625,1177],"next_num":6,"trial_type":"ticket-choose","trial_index":113,"time_elapsed":849618,"internal_node_id":"0.0-113.0"},{"result":158,"points":2,"place":1,"phase":1,"sequence":41,"prices":[175,186,158,209,181,188,177,167,208,154],"times":[705,532,954],"next_num":3,"trial_type":"ticket-choose","trial_index":114,"time_elapsed":854124,"internal_node_id":"0.0-114.0"},{"result":165,"points":3,"place":0,"phase":1,"sequence":42,"prices":[193,165,175,181,185,224,180,199,218,184],"times":[427,1331],"next_num":2,"trial_type":"ticket-choose","trial_index":115,"time_elapsed":858045,"internal_node_id":"0.0-115.0"},{"result":165,"points":2,"place":1,"phase":1,"sequence":43,"prices":[175,187,165,209,180,188,177,166,154,208],"times":[718,631,1081],"next_num":3,"trial_type":"ticket-choose","trial_index":116,"time_elapsed":862683,"internal_node_id":"0.0-116.0"},{"result":171,"points":1,"place":3,"phase":1,"sequence":44,"prices":[185,170,182,201,173,199,171,188,165,168],"times":[1107,665,665,624,905,587,1066],"next_num":7,"trial_type":"ticket-choose","trial_index":117,"time_elapsed":873004,"internal_node_id":"0.0-117.0"},{"result":165,"points":2,"place":1,"phase":1,"sequence":45,"prices":[188,200,165,172,198,174,177,154,177,180],"times":[1227,618,962],"next_num":3,"trial_type":"ticket-choose","trial_index":118,"time_elapsed":878203,"internal_node_id":"0.0-118.0"},{"result":165,"points":2,"place":1,"phase":1,"sequence":46,"prices":[201,165,162,166,185,214,165,202,204,179],"times":[620,1160],"next_num":2,"trial_type":"ticket-choose","trial_index":119,"time_elapsed":882068,"internal_node_id":"0.0-119.0"},{"result":177,"points":1,"place":4,"phase":1,"sequence":47,"prices":[174,186,177,217,181,187,165,166,153,209],"times":[789,571,1421],"next_num":3,"trial_type":"ticket-choose","trial_index":120,"time_elapsed":887256,"internal_node_id":"0.0-120.0"},{"result":180,"points":0,"place":5,"phase":1,"sequence":48,"prices":[175,186,177,221,180,187,158,166,209,153],"times":[864,555,735,615,981],"next_num":5,"trial_type":"ticket-choose","trial_index":121,"time_elapsed":893698,"internal_node_id":"0.0-121.0"},{"result":169,"points":1,"place":3,"phase":1,"sequence":49,"prices":[198,193,169,163,202,182,152,164,177,171],"times":[818,642,1262],"next_num":3,"trial_type":"ticket-choose","trial_index":122,"time_elapsed":898848,"internal_node_id":"0.0-122.0"},{"responses":[{"value":0,"offby":-1,"category":"$115 - $130","category_index":0},{"value":0,"offby":-5,"category":"$131 - $145","category_index":1},{"value":30,"offby":18,"category":"$146 - $160","category_index":2},{"value":40,"offby":18,"category":"$161 - $175","category_index":3},{"value":20,"offby":-14,"category":"$176 - $190","category_index":4},{"value":10,"offby":-5,"category":"$191 - $205","category_index":5},{"value":0,"offby":-11,"category":"$206 - $220","category_index":6}],"phase":1,"number":1,"trial_type":"bar-choose","trial_index":123,"time_elapsed":915969,"internal_node_id":"0.0-123.0"},{"special_comment":"no","trial_type":"special_sequence","trial_index":124,"time_elapsed":921417,"internal_node_id":"0.0-124.0"},{"during":"Nothing","bonus":196,"trial_type":"final","trial_index":125,"time_elapsed":937705,"internal_node_id":"0.0-125.0"}],"bonus":196}