{"start_time":"2017-05-24 09:16:22","end_time":"2017-05-24 09:51:06","points_phase0":123,"points_phase1":127,"phase_order":0,"age":45,"gender":"m","tries":1,"during":"Nothing","worker_id":"AAXX5LDVJ32F8","assignment_id":"3P59JYT76MD1K1ADFP5F1OBCL6HT28","data":[{"rt":162099,"url":"\/christiane\/tickets\/utils\/consent.html","trial_type":"html","trial_index":0,"time_elapsed":162315,"internal_node_id":"0.0-0.0"},{"age":45,"gender":"m","trial_type":"age","trial_index":1,"time_elapsed":173515,"internal_node_id":"0.0-1.0"},{"worker_id":"AAXX5LDVJ32F8","trial_type":"workerid","trial_index":2,"time_elapsed":182067,"internal_node_id":"0.0-2.0"},{"tries":1,"trial_type":"instructions_check","trial_index":3,"time_elapsed":219971,"internal_node_id":"0.0-3.0"},{"rt":32166,"url":"\/christiane\/tickets\/utils\/start.html","trial_type":"html","trial_index":4,"time_elapsed":253344,"internal_node_id":"0.0-4.0"},{"trial_type":"number-animation","trial_index":5,"time_elapsed":282888,"internal_node_id":"0.0-5.0"},{"phase":0,"sequence":0,"avg":181,"response":180,"trial_type":"training_avg","trial_index":6,"time_elapsed":305007,"internal_node_id":"0.0-6.0"},{"trial_type":"number-animation","trial_index":7,"time_elapsed":325551,"internal_node_id":"0.0-7.0"},{"phase":0,"sequence":1,"avg":188,"response":188,"trial_type":"training_avg","trial_index":8,"time_elapsed":338535,"internal_node_id":"0.0-8.0"},{"trial_type":"number-animation","trial_index":9,"time_elapsed":361830,"internal_node_id":"0.0-9.0"},{"phase":0,"sequence":2,"avg":188,"response":189,"trial_type":"training_avg","trial_index":10,"time_elapsed":375710,"internal_node_id":"0.0-10.0"},{"trial_type":"number-animation","trial_index":11,"time_elapsed":399990,"internal_node_id":"0.0-11.0"},{"phase":0,"sequence":3,"avg":177,"response":177,"trial_type":"training_avg","trial_index":12,"time_elapsed":411038,"internal_node_id":"0.0-12.0"},{"trial_type":"number-animation","trial_index":13,"time_elapsed":430037,"internal_node_id":"0.0-13.0"},{"phase":0,"sequence":4,"avg":182,"response":182,"trial_type":"training_avg","trial_index":14,"time_elapsed":440293,"internal_node_id":"0.0-14.0"},{"responses":[{"value":0,"offby":-1,"category":"$115 - $130","category_index":0},{"value":5,"offby":0,"category":"$131 - $145","category_index":1},{"value":10,"offby":-2,"category":"$146 - $160","category_index":2},{"value":20,"offby":-2,"category":"$161 - $175","category_index":3},{"value":30,"offby":-4,"category":"$176 - $190","category_index":4},{"value":30,"offby":15,"category":"$191 - $205","category_index":5},{"value":5,"offby":-6,"category":"$206 - $220","category_index":6}],"phase":0,"number":0,"trial_type":"bar-choose","trial_index":15,"time_elapsed":582468,"internal_node_id":"0.0-15.0"},{"rt":19973,"url":"\/christiane\/tickets\/utils\/testing.html","trial_type":"html","trial_index":16,"time_elapsed":603650,"internal_node_id":"0.0-16.0"},{"phase":0,"order":[26,46,42,6,47,30,21,0,11,10,29,40,48,31,28,35,9,45,27,16,44,41,19,18,23,4,5,13,1,20,14,25,38,32,49,3,17,12,33,7,39,37,24,2,36,43,22,34,15,8],"trial_type":"store_order","trial_index":17,"time_elapsed":604650,"internal_node_id":"0.0-17.0"},{"result":165,"points":2,"place":1,"phase":0,"sequence":-1,"prices":[184,180,224,165,181,199,185,193,218,146],"times":[2315,1480,1152,1496],"next_num":4,"trial_type":"ticket-choose","trial_index":18,"time_elapsed":617481,"internal_node_id":"0.0-18.0"},{"rt":21628,"url":"\/christiane\/tickets\/utils\/testing_after.html","trial_type":"html","trial_index":19,"time_elapsed":640305,"internal_node_id":"0.0-19.0"},{"result":161,"points":3,"place":0,"phase":0,"sequence":0,"prices":[200,165,165,173,182,207,161,202,204,180],"times":[2431,1270,2095,766,1286,855,1398],"next_num":7,"trial_type":"ticket-choose","trial_index":20,"time_elapsed":656385,"internal_node_id":"0.0-20.0"},{"result":158,"points":3,"place":0,"phase":0,"sequence":1,"prices":[210,184,226,193,215,158,199,175,176,208],"times":[2246,790,743,758,791,2502],"next_num":6,"trial_type":"ticket-choose","trial_index":21,"time_elapsed":668528,"internal_node_id":"0.0-21.0"},{"result":143,"points":3,"place":0,"phase":0,"sequence":2,"prices":[222,173,202,197,143,205,198,183,178,186],"times":[1320,800,759,734,1455],"next_num":5,"trial_type":"ticket-choose","trial_index":22,"time_elapsed":677208,"internal_node_id":"0.0-22.0"},{"result":166,"points":1,"place":2,"phase":0,"sequence":3,"prices":[175,186,165,214,179,187,177,166,153,208],"times":[1615,790,1646,736,855,759,991,1567],"next_num":8,"trial_type":"ticket-choose","trial_index":23,"time_elapsed":691392,"internal_node_id":"0.0-23.0"},{"result":152,"points":3,"place":0,"phase":0,"sequence":4,"prices":[200,181,203,152,175,171,160,154,176,191],"times":[2975,720,1902,1414],"next_num":4,"trial_type":"ticket-choose","trial_index":24,"time_elapsed":701776,"internal_node_id":"0.0-24.0"},{"result":165,"points":3,"place":0,"phase":0,"sequence":5,"prices":[191,172,169,175,182,203,170,195,165,176],"times":[1223,912,758,862,807,759,814,1047,1238],"next_num":9,"trial_type":"ticket-choose","trial_index":25,"time_elapsed":714847,"internal_node_id":"0.0-25.0"},{"result":158,"points":2,"place":1,"phase":0,"sequence":6,"prices":[175,186,177,221,180,187,158,166,209,153],"times":[4015,918,734,783,753,1310,1301],"next_num":7,"trial_type":"ticket-choose","trial_index":26,"time_elapsed":729631,"internal_node_id":"0.0-26.0"},{"result":156,"points":3,"place":0,"phase":0,"sequence":7,"prices":[174,186,167,211,181,188,178,168,208,156],"times":[1214,735,1271,696,742,871,743,1159,687,1248],"next_num":10,"trial_type":"ticket-choose","trial_index":27,"time_elapsed":747078,"internal_node_id":"0.0-27.0"},{"result":153,"points":3,"place":0,"phase":0,"sequence":8,"prices":[174,186,177,217,181,187,165,166,153,209],"times":[2097,678,703,837,766,734,2590,983,1254],"next_num":9,"trial_type":"ticket-choose","trial_index":28,"time_elapsed":762270,"internal_node_id":"0.0-28.0"},{"result":165,"points":2,"place":1,"phase":0,"sequence":9,"prices":[175,187,177,209,180,188,165,165,154,208],"times":[5438,1102,1615,800,756,802,1991,1727],"next_num":8,"trial_type":"ticket-choose","trial_index":29,"time_elapsed":780862,"internal_node_id":"0.0-29.0"},{"result":165,"points":3,"place":0,"phase":0,"sequence":10,"prices":[185,170,182,201,173,199,171,188,165,168],"times":[1161,687,680,1021,802,923,751,831,1495],"next_num":9,"trial_type":"ticket-choose","trial_index":30,"time_elapsed":794550,"internal_node_id":"0.0-30.0"},{"result":150,"points":3,"place":0,"phase":0,"sequence":11,"prices":[189,150,175,160,188,207,158,194,178,199],"times":[6414,1215],"next_num":2,"trial_type":"ticket-choose","trial_index":31,"time_elapsed":804886,"internal_node_id":"0.0-31.0"},{"result":147,"points":3,"place":0,"phase":0,"sequence":12,"prices":[181,215,169,147,182,193,177,184,176,179],"times":[1789,679,992,1083],"next_num":4,"trial_type":"ticket-choose","trial_index":32,"time_elapsed":812437,"internal_node_id":"0.0-32.0"},{"result":165,"points":3,"place":0,"phase":0,"sequence":13,"prices":[171,203,175,170,167,220,192,186,165,165],"times":[1087,776,769,741,904,695,742,990,1143],"next_num":9,"trial_type":"ticket-choose","trial_index":33,"time_elapsed":824549,"internal_node_id":"0.0-33.0"},{"result":185,"points":1,"place":4,"phase":0,"sequence":14,"prices":[196,165,170,184,187,211,171,201,202,185],"times":[1207,831,751,750,759,695,911,917,759,1254],"next_num":10,"trial_type":"ticket-choose","trial_index":34,"time_elapsed":838629,"internal_node_id":"0.0-34.0"},{"result":154,"points":2,"place":1,"phase":0,"sequence":15,"prices":[168,154,172,185,195,144,184,211,177,227],"times":[1198,1176],"next_num":2,"trial_type":"ticket-choose","trial_index":35,"time_elapsed":843741,"internal_node_id":"0.0-35.0"},{"result":165,"points":2,"place":1,"phase":0,"sequence":16,"prices":[175,186,177,210,179,187,165,166,153,208],"times":[1144,759,782,752,719,688,1424],"next_num":7,"trial_type":"ticket-choose","trial_index":36,"time_elapsed":853500,"internal_node_id":"0.0-36.0"},{"result":164,"points":3,"place":0,"phase":0,"sequence":17,"prices":[212,192,188,184,167,193,189,164,176,170],"times":[1288,744,687,694,872,701,782,1256],"next_num":8,"trial_type":"ticket-choose","trial_index":37,"time_elapsed":864452,"internal_node_id":"0.0-37.0"},{"result":186,"points":1,"place":4,"phase":0,"sequence":18,"prices":[192,165,171,178,188,217,172,195,197,186],"times":[2392,1951,679,710,759,759,966,849,725,1062],"next_num":10,"trial_type":"ticket-choose","trial_index":38,"time_elapsed":880044,"internal_node_id":"0.0-38.0"},{"result":163,"points":2,"place":1,"phase":0,"sequence":19,"prices":[175,187,176,209,180,188,163,165,154,208],"times":[1074,822,672,704,1103,751,1174],"next_num":7,"trial_type":"ticket-choose","trial_index":39,"time_elapsed":889852,"internal_node_id":"0.0-39.0"},{"result":159,"points":1,"place":2,"phase":0,"sequence":20,"prices":[180,159,149,175,185,141,163,174,178,207],"times":[2402,1087],"next_num":2,"trial_type":"ticket-choose","trial_index":40,"time_elapsed":895820,"internal_node_id":"0.0-40.0"},{"result":155,"points":2,"place":1,"phase":0,"sequence":21,"prices":[201,207,155,158,156,165,167,135,178,177],"times":[934,716,1112],"next_num":3,"trial_type":"ticket-choose","trial_index":41,"time_elapsed":901116,"internal_node_id":"0.0-41.0"},{"result":158,"points":2,"place":1,"phase":0,"sequence":22,"prices":[175,186,158,209,181,188,177,167,208,154],"times":[962,687,1526],"next_num":3,"trial_type":"ticket-choose","trial_index":42,"time_elapsed":906836,"internal_node_id":"0.0-42.0"},{"result":158,"points":2,"place":1,"phase":0,"sequence":23,"prices":[175,186,158,211,180,187,177,166,209,153],"times":[824,743,1479],"next_num":3,"trial_type":"ticket-choose","trial_index":43,"time_elapsed":912540,"internal_node_id":"0.0-43.0"},{"result":158,"points":2,"place":1,"phase":0,"sequence":24,"prices":[176,187,177,225,181,187,158,165,208,153],"times":[983,631,2014,734,679,721,1454],"next_num":7,"trial_type":"ticket-choose","trial_index":44,"time_elapsed":923331,"internal_node_id":"0.0-44.0"},{"result":156,"points":3,"place":0,"phase":0,"sequence":25,"prices":[175,185,178,215,181,186,167,168,208,156],"times":[936,663,1158,757,680,688,1007,989,814,1232],"next_num":10,"trial_type":"ticket-choose","trial_index":45,"time_elapsed":947027,"internal_node_id":"0.0-45.0"},{"result":167,"points":2,"place":1,"phase":0,"sequence":26,"prices":[175,186,178,212,179,187,167,169,209,153],"times":[4104,685,991,767,680,759,1189],"next_num":7,"trial_type":"ticket-choose","trial_index":46,"time_elapsed":959587,"internal_node_id":"0.0-46.0"},{"result":163,"points":2,"place":1,"phase":0,"sequence":27,"prices":[175,187,163,209,180,188,176,165,154,208],"times":[1139,616,1480],"next_num":3,"trial_type":"ticket-choose","trial_index":47,"time_elapsed":965370,"internal_node_id":"0.0-47.0"},{"result":156,"points":3,"place":0,"phase":0,"sequence":28,"prices":[175,185,167,224,181,186,178,168,208,156],"times":[3681,662,910,751,744,799,662,1136,696,1199],"next_num":10,"trial_type":"ticket-choose","trial_index":48,"time_elapsed":983466,"internal_node_id":"0.0-48.0"},{"result":158,"points":2,"place":1,"phase":0,"sequence":29,"prices":[176,187,158,210,181,187,177,165,208,153],"times":[12784,709,1231],"next_num":3,"trial_type":"ticket-choose","trial_index":49,"time_elapsed":1000865,"internal_node_id":"0.0-49.0"},{"result":153,"points":3,"place":0,"phase":0,"sequence":30,"prices":[174,186,163,212,181,187,176,166,153,209],"times":[1072,911,1408,646,662,672,736,1159,1168],"next_num":9,"trial_type":"ticket-choose","trial_index":50,"time_elapsed":1013290,"internal_node_id":"0.0-50.0"},{"result":162,"points":3,"place":0,"phase":0,"sequence":31,"prices":[201,165,162,166,185,214,165,202,204,179],"times":[2477,1008,1112],"next_num":3,"trial_type":"ticket-choose","trial_index":51,"time_elapsed":1020426,"internal_node_id":"0.0-51.0"},{"result":163,"points":3,"place":0,"phase":0,"sequence":32,"prices":[168,199,196,198,185,195,227,163,177,166],"times":[3447,655,725,679,727,902,687,1078],"next_num":8,"trial_type":"ticket-choose","trial_index":52,"time_elapsed":1033202,"internal_node_id":"0.0-52.0"},{"result":165,"points":3,"place":0,"phase":0,"sequence":33,"prices":[193,169,171,187,190,224,174,194,165,188],"times":[4264,752,640,607,632,824,759,896,1087],"next_num":9,"trial_type":"ticket-choose","trial_index":53,"time_elapsed":1047889,"internal_node_id":"0.0-53.0"},{"result":148,"points":3,"place":0,"phase":0,"sequence":34,"prices":[183,163,185,180,166,148,160,186,176,184],"times":[1704,1632,672,678,927,1112],"next_num":6,"trial_type":"ticket-choose","trial_index":54,"time_elapsed":1058161,"internal_node_id":"0.0-54.0"},{"result":156,"points":3,"place":0,"phase":0,"sequence":35,"prices":[174,186,178,217,181,188,167,168,208,156],"times":[1585,711,663,711,689,1516,1367,1199,728,1062],"next_num":10,"trial_type":"ticket-choose","trial_index":55,"time_elapsed":1077432,"internal_node_id":"0.0-55.0"},{"result":163,"points":2,"place":1,"phase":0,"sequence":36,"prices":[174,186,176,217,181,187,163,166,153,209],"times":[2838,623,622,687,654,720,1254],"next_num":7,"trial_type":"ticket-choose","trial_index":56,"time_elapsed":1088312,"internal_node_id":"0.0-56.0"},{"result":153,"points":3,"place":0,"phase":0,"sequence":37,"prices":[175,186,163,214,179,187,176,166,153,208],"times":[1368,687,1008,577,655,799,702,871,1135],"next_num":9,"trial_type":"ticket-choose","trial_index":57,"time_elapsed":1100072,"internal_node_id":"0.0-57.0"},{"result":165,"points":3,"place":0,"phase":0,"sequence":38,"prices":[183,182,192,168,173,205,167,187,165,170],"times":[2525,1287,647,983,678,710,1047,716,1287],"next_num":9,"trial_type":"ticket-choose","trial_index":58,"time_elapsed":1114023,"internal_node_id":"0.0-58.0"},{"result":154,"points":3,"place":0,"phase":0,"sequence":39,"prices":[175,187,165,209,180,188,177,166,154,208],"times":[27183,711,1708,616,615,728,846,925,1119],"next_num":9,"trial_type":"ticket-choose","trial_index":59,"time_elapsed":1154767,"internal_node_id":"0.0-59.0"},{"result":165,"points":3,"place":0,"phase":0,"sequence":40,"prices":[189,167,180,197,165,168,172,213,178,171],"times":[2009,808,607,615,1503],"next_num":5,"trial_type":"ticket-choose","trial_index":60,"time_elapsed":1163599,"internal_node_id":"0.0-60.0"},{"result":163,"points":2,"place":1,"phase":0,"sequence":41,"prices":[198,193,169,163,202,182,152,164,177,171],"times":[16534,775,1015,2232],"next_num":4,"trial_type":"ticket-choose","trial_index":61,"time_elapsed":1187134,"internal_node_id":"0.0-61.0"},{"result":184,"points":1,"place":4,"phase":0,"sequence":42,"prices":[193,165,175,181,185,224,180,199,218,184],"times":[944,1134,494,607,679,830,822,776,871,1320],"next_num":10,"trial_type":"ticket-choose","trial_index":62,"time_elapsed":1201054,"internal_node_id":"0.0-62.0"},{"result":153,"points":3,"place":0,"phase":0,"sequence":43,"prices":[175,186,167,225,179,187,178,169,209,153],"times":[1663,863,1134,719,671,750,695,936,679,1063],"next_num":10,"trial_type":"ticket-choose","trial_index":63,"time_elapsed":1215526,"internal_node_id":"0.0-63.0"},{"result":154,"points":3,"place":0,"phase":0,"sequence":44,"prices":[188,200,165,172,198,174,177,154,177,180],"times":[3213,750,1151,735,760,799,678,1159],"next_num":8,"trial_type":"ticket-choose","trial_index":64,"time_elapsed":1228637,"internal_node_id":"0.0-64.0"},{"result":157,"points":3,"place":0,"phase":0,"sequence":45,"prices":[201,187,157,184,198,179,188,185,178,170],"times":[1486,599,1240],"next_num":3,"trial_type":"ticket-choose","trial_index":65,"time_elapsed":1234726,"internal_node_id":"0.0-65.0"},{"result":158,"points":2,"place":1,"phase":0,"sequence":46,"prices":[175,186,177,209,181,188,158,167,208,154],"times":[1071,830,1150,808,3206,799,1550],"next_num":7,"trial_type":"ticket-choose","trial_index":66,"time_elapsed":1247677,"internal_node_id":"0.0-66.0"},{"result":155,"points":2,"place":1,"phase":0,"sequence":47,"prices":[181,155,148,161,168,187,172,199,176,194],"times":[1092,1294],"next_num":2,"trial_type":"ticket-choose","trial_index":67,"time_elapsed":1252381,"internal_node_id":"0.0-67.0"},{"result":163,"points":2,"place":1,"phase":0,"sequence":48,"prices":[175,186,176,210,179,187,163,166,153,208],"times":[1223,796,1071,745,894,1015,2007],"next_num":7,"trial_type":"ticket-choose","trial_index":68,"time_elapsed":1263589,"internal_node_id":"0.0-68.0"},{"result":153,"points":3,"place":0,"phase":0,"sequence":49,"prices":[174,186,165,212,181,187,177,167,153,209],"times":[2648,863,1016,687,760,743,1024,991,1127],"next_num":9,"trial_type":"ticket-choose","trial_index":69,"time_elapsed":1277525,"internal_node_id":"0.0-69.0"},{"responses":[{"value":1,"offby":0,"category":"$115 - $130","category_index":0},{"value":3,"offby":-2,"category":"$131 - $145","category_index":1},{"value":11,"offby":-1,"category":"$146 - $160","category_index":2},{"value":28,"offby":6,"category":"$161 - $175","category_index":3},{"value":32,"offby":-2,"category":"$176 - $190","category_index":4},{"value":15,"offby":0,"category":"$191 - $205","category_index":5},{"value":10,"offby":-1,"category":"$206 - $220","category_index":6}],"phase":1,"number":1,"trial_type":"bar-choose","trial_index":70,"time_elapsed":1365933,"internal_node_id":"0.0-70.0"},{"rt":30569,"url":"\/christiane\/tickets\/utils\/testing2.html","trial_type":"point_update","trial_index":71,"time_elapsed":1397864,"internal_node_id":"0.0-71.0"},{"phase":1,"order":[8,44,25,45,6,1,40,4,23,33,38,20,42,14,13,12,15,21,2,34,22,31,19,49,47,17,9,5,32,16,39,11,43,24,0,46,37,18,26,30,27,36,7,48,3,10,29,41,35,28],"trial_type":"store_order","trial_index":72,"time_elapsed":1398866,"internal_node_id":"0.0-72.0"},{"result":153,"points":3,"place":0,"phase":1,"sequence":0,"prices":[165,174,186,212,177,181,187,166,153,209],"times":[2167,679,718,800,800,896,685,3335,1056],"next_num":9,"trial_type":"ticket-choose","trial_index":73,"time_elapsed":1414226,"internal_node_id":"0.0-73.0"},{"result":159,"points":1,"place":2,"phase":1,"sequence":1,"prices":[181,159,149,175,185,151,163,174,178,207],"times":[1383,1182],"next_num":2,"trial_type":"ticket-choose","trial_index":74,"time_elapsed":1419641,"internal_node_id":"0.0-74.0"},{"result":156,"points":3,"place":0,"phase":1,"sequence":2,"prices":[201,204,179,166,185,165,214,156,202,165],"times":[1189,688,767,1056,697,1093,672,1143],"next_num":8,"trial_type":"ticket-choose","trial_index":75,"time_elapsed":1430594,"internal_node_id":"0.0-75.0"},{"result":164,"points":3,"place":0,"phase":1,"sequence":3,"prices":[199,191,188,174,167,193,189,164,176,170],"times":[1423,846,815,711,1031,951,799,1128],"next_num":8,"trial_type":"ticket-choose","trial_index":76,"time_elapsed":1442201,"internal_node_id":"0.0-76.0"},{"result":153,"points":3,"place":0,"phase":1,"sequence":4,"prices":[165,175,186,214,177,179,187,166,153,208],"times":[2192,616,687,702,783,679,759,1951,999],"next_num":9,"trial_type":"ticket-choose","trial_index":77,"time_elapsed":1456281,"internal_node_id":"0.0-77.0"},{"result":156,"points":3,"place":0,"phase":1,"sequence":5,"prices":[167,175,185,224,178,181,186,168,208,156],"times":[1737,2367,615,647,691,732,823,954,997,1208],"next_num":10,"trial_type":"ticket-choose","trial_index":78,"time_elapsed":1472265,"internal_node_id":"0.0-78.0"},{"result":150,"points":3,"place":0,"phase":1,"sequence":6,"prices":[190,150,175,161,188,207,157,194,178,199],"times":[1686,1240],"next_num":2,"trial_type":"ticket-choose","trial_index":79,"time_elapsed":1477986,"internal_node_id":"0.0-79.0"},{"result":156,"points":3,"place":0,"phase":1,"sequence":7,"prices":[178,175,185,215,167,181,186,168,208,156],"times":[1229,616,640,790,1168,662,782,1240,742,1191],"next_num":10,"trial_type":"ticket-choose","trial_index":80,"time_elapsed":1498400,"internal_node_id":"0.0-80.0"},{"result":158,"points":2,"place":1,"phase":1,"sequence":8,"prices":[177,176,187,225,158,181,187,165,208,153],"times":[2592,703,741,742,1191],"next_num":5,"trial_type":"ticket-choose","trial_index":81,"time_elapsed":1507584,"internal_node_id":"0.0-81.0"},{"result":159,"points":3,"place":0,"phase":1,"sequence":9,"prices":[183,179,188,165,168,173,205,159,187,191],"times":[1038,736,878,1087,799,766,759,1233],"next_num":8,"trial_type":"ticket-choose","trial_index":82,"time_elapsed":1518824,"internal_node_id":"0.0-82.0"},{"result":163,"points":3,"place":0,"phase":1,"sequence":10,"prices":[163,199,196,199,185,195,227,163,177,166],"times":[1581,608,720,679,653,735,680,1759],"next_num":8,"trial_type":"ticket-choose","trial_index":83,"time_elapsed":1530135,"internal_node_id":"0.0-83.0"},{"result":158,"points":2,"place":1,"phase":1,"sequence":11,"prices":[158,176,187,210,177,181,187,165,208,153],"times":[2050],"next_num":1,"trial_type":"ticket-choose","trial_index":84,"time_elapsed":1534392,"internal_node_id":"0.0-84.0"},{"result":186,"points":1,"place":4,"phase":1,"sequence":12,"prices":[220,173,201,197,169,205,198,183,178,186],"times":[1527,631,767,896,1022,768,709,863,927,1367],"next_num":10,"trial_type":"ticket-choose","trial_index":85,"time_elapsed":1550202,"internal_node_id":"0.0-85.0"},{"result":153,"points":3,"place":0,"phase":1,"sequence":13,"prices":[163,174,186,212,176,181,187,166,153,209],"times":[1997,726,624,739,788,685,760,1087,974],"next_num":9,"trial_type":"ticket-choose","trial_index":86,"time_elapsed":1562487,"internal_node_id":"0.0-86.0"},{"result":154,"points":3,"place":0,"phase":1,"sequence":14,"prices":[163,175,187,209,176,180,188,165,154,208],"times":[1870,646,623,664,726,608,704,1248,1088],"next_num":9,"trial_type":"ticket-choose","trial_index":87,"time_elapsed":1574703,"internal_node_id":"0.0-87.0"},{"result":153,"points":3,"place":0,"phase":1,"sequence":15,"prices":[163,175,186,214,176,179,187,166,153,208],"times":[1383,590,693,655,679,638,735,1015,1127],"next_num":9,"trial_type":"ticket-choose","trial_index":88,"time_elapsed":1589215,"internal_node_id":"0.0-88.0"},{"result":163,"points":2,"place":1,"phase":1,"sequence":16,"prices":[176,175,186,210,163,179,187,166,153,208],"times":[2462,663,630,648,1180],"next_num":5,"trial_type":"ticket-choose","trial_index":89,"time_elapsed":1597926,"internal_node_id":"0.0-89.0"},{"result":158,"points":2,"place":1,"phase":1,"sequence":17,"prices":[177,175,186,221,158,180,187,166,209,153],"times":[1012,631,656,836,1263],"next_num":5,"trial_type":"ticket-choose","trial_index":90,"time_elapsed":1605422,"internal_node_id":"0.0-90.0"},{"result":153,"points":3,"place":0,"phase":1,"sequence":18,"prices":[167,175,186,225,178,179,187,169,209,153],"times":[1533,696,695,863,823,5071,1030,1168,759,984],"next_num":10,"trial_type":"ticket-choose","trial_index":91,"time_elapsed":1623374,"internal_node_id":"0.0-91.0"},{"result":156,"points":2,"place":1,"phase":1,"sequence":19,"prices":[180,156,149,160,168,186,172,198,176,195],"times":[2077,1279],"next_num":2,"trial_type":"ticket-choose","trial_index":92,"time_elapsed":1629142,"internal_node_id":"0.0-92.0"},{"result":154,"points":3,"place":0,"phase":1,"sequence":20,"prices":[177,175,186,209,158,181,188,167,208,154],"times":[4884,3248,511,679,599,727,991,975,718,1079],"next_num":10,"trial_type":"ticket-choose","trial_index":93,"time_elapsed":1648141,"internal_node_id":"0.0-93.0"},{"result":163,"points":2,"place":1,"phase":1,"sequence":21,"prices":[171,169,186,165,163,167,220,148,187,165],"times":[1940,1047,731,780,3008],"next_num":5,"trial_type":"ticket-choose","trial_index":94,"time_elapsed":1658709,"internal_node_id":"0.0-94.0"},{"result":158,"points":2,"place":1,"phase":1,"sequence":22,"prices":[158,175,186,209,177,181,188,167,208,154],"times":[1268],"next_num":1,"trial_type":"ticket-choose","trial_index":95,"time_elapsed":1661886,"internal_node_id":"0.0-95.0"},{"result":148,"points":3,"place":0,"phase":1,"sequence":23,"prices":[173,163,185,181,166,148,160,185,176,184],"times":[7470,1798,647,606,873,1199],"next_num":6,"trial_type":"ticket-choose","trial_index":96,"time_elapsed":1679909,"internal_node_id":"0.0-96.0"},{"result":152,"points":3,"place":0,"phase":1,"sequence":24,"prices":[200,180,203,152,175,170,160,154,176,191],"times":[990,712,671,1119],"next_num":4,"trial_type":"ticket-choose","trial_index":97,"time_elapsed":1686205,"internal_node_id":"0.0-97.0"},{"result":163,"points":2,"place":1,"phase":1,"sequence":25,"prices":[174,186,176,217,163,181,187,166,153,209],"times":[2711,647,678,1032,2486],"next_num":5,"trial_type":"ticket-choose","trial_index":98,"time_elapsed":1702749,"internal_node_id":"0.0-98.0"},{"result":153,"points":3,"place":0,"phase":1,"sequence":26,"prices":[177,175,186,210,165,179,187,166,153,208],"times":[1495,749,686,992,782,751,799,941,1158],"next_num":9,"trial_type":"ticket-choose","trial_index":99,"time_elapsed":1717360,"internal_node_id":"0.0-99.0"},{"result":153,"points":3,"place":0,"phase":1,"sequence":27,"prices":[178,175,186,212,167,179,187,169,209,153],"times":[1394,654,638,751,864,768,814,958,2655,1079],"next_num":10,"trial_type":"ticket-choose","trial_index":100,"time_elapsed":1738404,"internal_node_id":"0.0-100.0"},{"result":161,"points":3,"place":0,"phase":1,"sequence":28,"prices":[193,174,224,165,187,190,224,161,194,195],"times":[1192,695,630,981,624,662,687,1088],"next_num":8,"trial_type":"ticket-choose","trial_index":101,"time_elapsed":1748699,"internal_node_id":"0.0-101.0"},{"result":163,"points":2,"place":1,"phase":1,"sequence":29,"prices":[175,187,176,209,163,180,188,165,154,208],"times":[3023,670,741,663,1367],"next_num":5,"trial_type":"ticket-choose","trial_index":102,"time_elapsed":1758227,"internal_node_id":"0.0-102.0"},{"result":171,"points":1,"place":3,"phase":1,"sequence":30,"prices":[189,167,180,197,165,168,172,213,178,171],"times":[5145,823,662,974,1223,951,879,1007,846,1097],"next_num":10,"trial_type":"ticket-choose","trial_index":103,"time_elapsed":1776643,"internal_node_id":"0.0-103.0"},{"result":165,"points":2,"place":1,"phase":1,"sequence":31,"prices":[177,174,186,217,165,181,187,166,153,209],"times":[2005,678,743,681,1614],"next_num":5,"trial_type":"ticket-choose","trial_index":104,"time_elapsed":1785331,"internal_node_id":"0.0-104.0"},{"result":157,"points":3,"place":0,"phase":1,"sequence":32,"prices":[201,187,157,184,198,179,188,185,178,170],"times":[2264,655,1199],"next_num":3,"trial_type":"ticket-choose","trial_index":105,"time_elapsed":1792003,"internal_node_id":"0.0-105.0"},{"result":165,"points":3,"place":0,"phase":1,"sequence":33,"prices":[193,181,175,181,185,165,224,199,218,184],"times":[1366,599,719,798,670,1623],"next_num":6,"trial_type":"ticket-choose","trial_index":106,"time_elapsed":1800867,"internal_node_id":"0.0-106.0"},{"result":156,"points":3,"place":0,"phase":1,"sequence":34,"prices":[167,174,186,211,178,181,188,168,208,156],"times":[1168,654,743,696,800,824,927,1479,808,1095],"next_num":10,"trial_type":"ticket-choose","trial_index":107,"time_elapsed":1814450,"internal_node_id":"0.0-107.0"},{"result":158,"points":3,"place":0,"phase":1,"sequence":35,"prices":[214,184,226,192,215,158,199,175,176,208],"times":[1086,574,608,663,727,1277],"next_num":6,"trial_type":"ticket-choose","trial_index":108,"time_elapsed":1822790,"internal_node_id":"0.0-108.0"},{"result":165,"points":1,"place":2,"phase":1,"sequence":36,"prices":[199,193,169,165,202,182,151,164,176,171],"times":[1394,487,647,2695],"next_num":4,"trial_type":"ticket-choose","trial_index":109,"time_elapsed":1830795,"internal_node_id":"0.0-109.0"},{"result":158,"points":2,"place":1,"phase":1,"sequence":37,"prices":[158,175,186,211,177,180,187,166,209,153],"times":[1432],"next_num":1,"trial_type":"ticket-choose","trial_index":110,"time_elapsed":1834314,"internal_node_id":"0.0-110.0"},{"result":152,"points":3,"place":0,"phase":1,"sequence":38,"prices":[200,173,182,169,207,165,152,202,161,204],"times":[2981,823,646,919,726,1398,1168],"next_num":7,"trial_type":"ticket-choose","trial_index":111,"time_elapsed":1846522,"internal_node_id":"0.0-111.0"},{"result":157,"points":3,"place":0,"phase":1,"sequence":39,"prices":[191,170,182,165,175,182,203,157,195,200],"times":[1476,551,701,1463,704,790,815,1015],"next_num":8,"trial_type":"ticket-choose","trial_index":112,"time_elapsed":1857738,"internal_node_id":"0.0-112.0"},{"result":165,"points":3,"place":0,"phase":1,"sequence":40,"prices":[192,172,171,178,188,165,217,168,195,197],"times":[1183,744,716,781,735,1321],"next_num":6,"trial_type":"ticket-choose","trial_index":113,"time_elapsed":1866402,"internal_node_id":"0.0-113.0"},{"result":154,"points":3,"place":0,"phase":1,"sequence":41,"prices":[187,201,165,172,196,174,178,154,172,180],"times":[1381,734,1159,656,655,817,693,1056],"next_num":8,"trial_type":"ticket-choose","trial_index":114,"time_elapsed":1877273,"internal_node_id":"0.0-114.0"},{"result":154,"points":3,"place":0,"phase":1,"sequence":42,"prices":[165,175,187,209,177,180,188,167,154,208],"times":[1223,576,656,614,757,943,823,1151,983],"next_num":9,"trial_type":"ticket-choose","trial_index":115,"time_elapsed":1889209,"internal_node_id":"0.0-115.0"},{"result":147,"points":3,"place":0,"phase":1,"sequence":43,"prices":[181,214,169,147,182,193,178,184,176,179],"times":[1071,647,672,1222],"next_num":4,"trial_type":"ticket-choose","trial_index":116,"time_elapsed":1896136,"internal_node_id":"0.0-116.0"},{"result":156,"points":3,"place":0,"phase":1,"sequence":44,"prices":[178,174,186,217,167,181,188,168,208,156],"times":[1161,575,720,808,1039,967,864,1039,736,973],"next_num":10,"trial_type":"ticket-choose","trial_index":117,"time_elapsed":1910217,"internal_node_id":"0.0-117.0"},{"result":165,"points":2,"place":1,"phase":1,"sequence":45,"prices":[177,175,187,209,165,180,188,165,154,208],"times":[1086,710,695,711,1006,680,647,1318],"next_num":8,"trial_type":"ticket-choose","trial_index":118,"time_elapsed":1920808,"internal_node_id":"0.0-118.0"},{"result":161,"points":2,"place":1,"phase":1,"sequence":46,"prices":[185,179,191,165,161,173,199,150,188,168],"times":[1430,685,695,1865,1287],"next_num":5,"trial_type":"ticket-choose","trial_index":119,"time_elapsed":1929753,"internal_node_id":"0.0-119.0"},{"result":155,"points":2,"place":1,"phase":1,"sequence":47,"prices":[200,207,155,158,156,168,167,135,178,177],"times":[1691,647,1176],"next_num":3,"trial_type":"ticket-choose","trial_index":120,"time_elapsed":1935816,"internal_node_id":"0.0-120.0"},{"result":153,"points":2,"place":1,"phase":1,"sequence":48,"prices":[167,153,172,185,195,143,184,211,177,227],"times":[1694,1087],"next_num":2,"trial_type":"ticket-choose","trial_index":121,"time_elapsed":1940864,"internal_node_id":"0.0-121.0"},{"result":165,"points":3,"place":0,"phase":1,"sequence":49,"prices":[196,171,170,184,187,165,211,169,201,202],"times":[1216,703,743,727,831,1353],"next_num":6,"trial_type":"ticket-choose","trial_index":122,"time_elapsed":1949816,"internal_node_id":"0.0-122.0"},{"responses":[{"value":1,"offby":0,"category":"$115 - $130","category_index":0},{"value":10,"offby":5,"category":"$131 - $145","category_index":1},{"value":15,"offby":3,"category":"$146 - $160","category_index":2},{"value":23,"offby":1,"category":"$161 - $175","category_index":3},{"value":30,"offby":-4,"category":"$176 - $190","category_index":4},{"value":14,"offby":-1,"category":"$191 - $205","category_index":5},{"value":7,"offby":-4,"category":"$206 - $220","category_index":6}],"phase":1,"number":1,"trial_type":"bar-choose","trial_index":123,"time_elapsed":1993944,"internal_node_id":"0.0-123.0"},{"special_comment":"No","trial_type":"special_sequence","trial_index":124,"time_elapsed":2014967,"internal_node_id":"0.0-124.0"},{"during":"Nothing","bonus":332,"trial_type":"final","trial_index":125,"time_elapsed":2081464,"internal_node_id":"0.0-125.0"}],"bonus":332}