{"start_time":"2017-05-24 13:14:51","end_time":"2017-05-24 13:48:40","points_phase0":101,"points_phase1":88,"phase_order":0,"age":32,"gender":"m","tries":1,"during":"Nothing","worker_id":"ABMPX2Y2IRBMG","assignment_id":"3HL8HNGX46U21GDB5EF5U74P0409FR","data":[{"rt":715425,"url":"\/christiane\/tickets\/utils\/consent.html","trial_type":"html","trial_index":0,"time_elapsed":715618,"internal_node_id":"0.0-0.0"},{"age":32,"gender":"m","trial_type":"age","trial_index":1,"time_elapsed":723618,"internal_node_id":"0.0-1.0"},{"worker_id":"ABMPX2Y2IRBMG","trial_type":"workerid","trial_index":2,"time_elapsed":734880,"internal_node_id":"0.0-2.0"},{"tries":1,"trial_type":"instructions_check","trial_index":3,"time_elapsed":772948,"internal_node_id":"0.0-3.0"},{"rt":16020,"url":"\/christiane\/tickets\/utils\/start.html","trial_type":"html","trial_index":4,"time_elapsed":790076,"internal_node_id":"0.0-4.0"},{"trial_type":"number-animation","trial_index":5,"time_elapsed":800501,"internal_node_id":"0.0-5.0"},{"phase":0,"sequence":0,"avg":181,"response":183,"trial_type":"training_avg","trial_index":6,"time_elapsed":811626,"internal_node_id":"0.0-6.0"},{"trial_type":"number-animation","trial_index":7,"time_elapsed":831710,"internal_node_id":"0.0-7.0"},{"phase":0,"sequence":1,"avg":188,"response":180,"trial_type":"training_avg","trial_index":8,"time_elapsed":843850,"internal_node_id":"0.0-8.0"},{"trial_type":"number-animation","trial_index":9,"time_elapsed":853213,"internal_node_id":"0.0-9.0"},{"phase":0,"sequence":2,"avg":188,"response":160,"trial_type":"training_avg","trial_index":10,"time_elapsed":860735,"internal_node_id":"0.0-10.0"},{"trial_type":"number-animation","trial_index":11,"time_elapsed":869166,"internal_node_id":"0.0-11.0"},{"phase":0,"sequence":3,"avg":177,"response":163,"trial_type":"training_avg","trial_index":12,"time_elapsed":878508,"internal_node_id":"0.0-12.0"},{"trial_type":"number-animation","trial_index":13,"time_elapsed":886770,"internal_node_id":"0.0-13.0"},{"phase":0,"sequence":4,"avg":182,"response":175,"trial_type":"training_avg","trial_index":14,"time_elapsed":892256,"internal_node_id":"0.0-14.0"},{"responses":[{"value":0,"offby":-1,"category":"$115 - $130","category_index":0},{"value":5,"offby":0,"category":"$131 - $145","category_index":1},{"value":20,"offby":8,"category":"$146 - $160","category_index":2},{"value":20,"offby":-2,"category":"$161 - $175","category_index":3},{"value":30,"offby":-4,"category":"$176 - $190","category_index":4},{"value":20,"offby":5,"category":"$191 - $205","category_index":5},{"value":5,"offby":-6,"category":"$206 - $220","category_index":6}],"phase":0,"number":0,"trial_type":"bar-choose","trial_index":15,"time_elapsed":985860,"internal_node_id":"0.0-15.0"},{"rt":16752,"url":"\/christiane\/tickets\/utils\/testing.html","trial_type":"html","trial_index":16,"time_elapsed":1003729,"internal_node_id":"0.0-16.0"},{"phase":0,"order":[48,47,1,44,34,17,3,43,36,21,12,19,18,7,24,27,20,46,42,33,6,26,11,5,22,23,14,13,25,9,16,38,0,15,39,28,10,30,40,41,49,2,37,31,4,32,45,29,35,8],"trial_type":"store_order","trial_index":17,"time_elapsed":1004730,"internal_node_id":"0.0-17.0"},{"result":146,"points":3,"place":0,"phase":0,"sequence":-1,"prices":[184,180,224,165,181,199,185,193,218,146],"times":[2726,818,856,886,1002,849,850,1412,2503,1984],"next_num":10,"trial_type":"ticket-choose","trial_index":18,"time_elapsed":1022804,"internal_node_id":"0.0-18.0"},{"rt":13967,"url":"\/christiane\/tickets\/utils\/testing_after.html","trial_type":"html","trial_index":19,"time_elapsed":1037881,"internal_node_id":"0.0-19.0"},{"result":169,"points":2,"place":1,"phase":0,"sequence":0,"prices":[181,215,169,147,182,193,177,184,176,179],"times":[3288,683,1956],"next_num":3,"trial_type":"ticket-choose","trial_index":20,"time_elapsed":1046916,"internal_node_id":"0.0-20.0"},{"result":152,"points":3,"place":0,"phase":0,"sequence":1,"prices":[200,181,203,152,175,171,160,154,176,191],"times":[2560,723,636,1882],"next_num":4,"trial_type":"ticket-choose","trial_index":21,"time_elapsed":1056013,"internal_node_id":"0.0-21.0"},{"result":156,"points":3,"place":0,"phase":0,"sequence":2,"prices":[175,185,167,224,181,186,178,168,208,156],"times":[1898,804,1894,628,596,780,848,2261,602,1083],"next_num":10,"trial_type":"ticket-choose","trial_index":22,"time_elapsed":1073829,"internal_node_id":"0.0-22.0"},{"result":159,"points":1,"place":2,"phase":0,"sequence":3,"prices":[180,159,149,175,185,141,163,174,178,207],"times":[4133,2183],"next_num":2,"trial_type":"ticket-choose","trial_index":23,"time_elapsed":1082669,"internal_node_id":"0.0-23.0"},{"result":148,"points":3,"place":0,"phase":0,"sequence":4,"prices":[181,155,148,161,168,187,172,199,176,194],"times":[4872,2119,1118],"next_num":3,"trial_type":"ticket-choose","trial_index":24,"time_elapsed":1093447,"internal_node_id":"0.0-24.0"},{"result":153,"points":3,"place":0,"phase":0,"sequence":5,"prices":[174,186,176,217,181,187,163,166,153,209],"times":[1587,885,664,693,801,739,2722,1041,850],"next_num":9,"trial_type":"ticket-choose","trial_index":25,"time_elapsed":1107240,"internal_node_id":"0.0-25.0"},{"result":156,"points":3,"place":0,"phase":0,"sequence":6,"prices":[174,186,178,217,181,188,167,168,208,156],"times":[2098,760,549,663,654,633,1138,1110,751,964],"next_num":10,"trial_type":"ticket-choose","trial_index":26,"time_elapsed":1120797,"internal_node_id":"0.0-26.0"},{"result":157,"points":3,"place":0,"phase":0,"sequence":7,"prices":[201,187,157,184,198,179,188,185,178,170],"times":[3937,674,1267],"next_num":3,"trial_type":"ticket-choose","trial_index":27,"time_elapsed":1129088,"internal_node_id":"0.0-27.0"},{"result":154,"points":3,"place":0,"phase":0,"sequence":8,"prices":[188,200,165,172,198,174,177,154,177,180],"times":[1320,570,1095,596,608,780,667,1091],"next_num":8,"trial_type":"ticket-choose","trial_index":28,"time_elapsed":1139371,"internal_node_id":"0.0-28.0"},{"result":158,"points":2,"place":1,"phase":0,"sequence":9,"prices":[175,186,177,221,180,187,158,166,209,153],"times":[1596,431,1269,657,771,618,1082],"next_num":7,"trial_type":"ticket-choose","trial_index":29,"time_elapsed":1149097,"internal_node_id":"0.0-29.0"},{"result":163,"points":2,"place":1,"phase":0,"sequence":10,"prices":[175,186,163,214,179,187,176,166,153,208],"times":[1854,414,993],"next_num":3,"trial_type":"ticket-choose","trial_index":30,"time_elapsed":1154971,"internal_node_id":"0.0-30.0"},{"result":158,"points":2,"place":1,"phase":0,"sequence":11,"prices":[175,186,158,209,181,188,177,167,208,154],"times":[765,219,992],"next_num":3,"trial_type":"ticket-choose","trial_index":31,"time_elapsed":1159599,"internal_node_id":"0.0-31.0"},{"result":166,"points":1,"place":2,"phase":0,"sequence":12,"prices":[175,186,158,211,180,187,177,166,209,153],"times":[783,1108,993,613,694,666,675,1743],"next_num":8,"trial_type":"ticket-choose","trial_index":32,"time_elapsed":1170460,"internal_node_id":"0.0-32.0"},{"result":165,"points":2,"place":1,"phase":0,"sequence":13,"prices":[175,187,165,209,180,188,177,166,154,208],"times":[1373,789,1052],"next_num":3,"trial_type":"ticket-choose","trial_index":33,"time_elapsed":1176321,"internal_node_id":"0.0-33.0"},{"result":184,"points":1,"place":4,"phase":0,"sequence":14,"prices":[193,165,175,181,185,224,180,199,218,184],"times":[807,605,683,529,589,667,763,950,1307,935],"next_num":10,"trial_type":"ticket-choose","trial_index":34,"time_elapsed":1188525,"internal_node_id":"0.0-34.0"},{"result":165,"points":3,"place":0,"phase":0,"sequence":15,"prices":[192,165,171,178,188,217,172,195,197,186],"times":[3015,912],"next_num":2,"trial_type":"ticket-choose","trial_index":35,"time_elapsed":1194811,"internal_node_id":"0.0-35.0"},{"result":158,"points":2,"place":1,"phase":0,"sequence":16,"prices":[176,187,158,210,181,187,177,165,208,153],"times":[1327,599,1030],"next_num":3,"trial_type":"ticket-choose","trial_index":36,"time_elapsed":1200058,"internal_node_id":"0.0-36.0"},{"result":158,"points":3,"place":0,"phase":0,"sequence":17,"prices":[210,184,226,193,215,158,199,175,176,208],"times":[1279,1913,1512,693,660,1264],"next_num":6,"trial_type":"ticket-choose","trial_index":37,"time_elapsed":1210518,"internal_node_id":"0.0-37.0"},{"result":143,"points":3,"place":0,"phase":0,"sequence":18,"prices":[222,173,202,197,143,205,198,183,178,186],"times":[1029,414,641,877,976],"next_num":5,"trial_type":"ticket-choose","trial_index":38,"time_elapsed":1217275,"internal_node_id":"0.0-38.0"},{"result":168,"points":1,"place":2,"phase":0,"sequence":19,"prices":[183,182,192,168,173,205,167,187,165,170],"times":[1487,782,713,934],"next_num":4,"trial_type":"ticket-choose","trial_index":39,"time_elapsed":1223974,"internal_node_id":"0.0-39.0"},{"result":166,"points":1,"place":2,"phase":0,"sequence":20,"prices":[175,186,165,214,179,187,177,166,153,208],"times":[814,519,491,704,557,587,952,934],"next_num":8,"trial_type":"ticket-choose","trial_index":40,"time_elapsed":1233100,"internal_node_id":"0.0-40.0"},{"result":161,"points":3,"place":0,"phase":0,"sequence":21,"prices":[200,165,165,173,182,207,161,202,204,180],"times":[691,1731,1290,587,653,640,1102],"next_num":7,"trial_type":"ticket-choose","trial_index":41,"time_elapsed":1243069,"internal_node_id":"0.0-41.0"},{"result":165,"points":2,"place":1,"phase":0,"sequence":22,"prices":[174,186,177,217,181,187,165,166,153,209],"times":[2412,1415,762,636,1921,963,1146],"next_num":7,"trial_type":"ticket-choose","trial_index":42,"time_elapsed":1255985,"internal_node_id":"0.0-42.0"},{"result":186,"points":0,"place":6,"phase":0,"sequence":23,"prices":[175,186,178,212,179,187,167,169,209,153],"times":[850,1052],"next_num":2,"trial_type":"ticket-choose","trial_index":43,"time_elapsed":1260159,"internal_node_id":"0.0-43.0"},{"result":158,"points":2,"place":1,"phase":0,"sequence":24,"prices":[175,186,177,209,181,188,158,167,208,154],"times":[1250,626,511,616,600,583,1090],"next_num":7,"trial_type":"ticket-choose","trial_index":44,"time_elapsed":1268718,"internal_node_id":"0.0-44.0"},{"result":158,"points":2,"place":1,"phase":0,"sequence":25,"prices":[176,187,177,225,181,187,158,165,208,153],"times":[785,425,469,676,714,620,1388],"next_num":7,"trial_type":"ticket-choose","trial_index":45,"time_elapsed":1277005,"internal_node_id":"0.0-45.0"},{"result":166,"points":1,"place":2,"phase":0,"sequence":26,"prices":[174,186,163,212,181,187,176,166,153,209],"times":[984,569,629,849,1436,873,1877,918],"next_num":8,"trial_type":"ticket-choose","trial_index":46,"time_elapsed":1288641,"internal_node_id":"0.0-46.0"},{"result":163,"points":2,"place":1,"phase":0,"sequence":27,"prices":[175,187,163,209,180,188,176,165,154,208],"times":[1312,922,1013],"next_num":3,"trial_type":"ticket-choose","trial_index":47,"time_elapsed":1294242,"internal_node_id":"0.0-47.0"},{"result":165,"points":2,"place":1,"phase":0,"sequence":28,"prices":[201,165,162,166,185,214,165,202,204,179],"times":[1075,1019],"next_num":2,"trial_type":"ticket-choose","trial_index":48,"time_elapsed":1298500,"internal_node_id":"0.0-48.0"},{"result":177,"points":1,"place":4,"phase":0,"sequence":29,"prices":[175,186,177,210,179,187,165,166,153,208],"times":[898,511,953],"next_num":3,"trial_type":"ticket-choose","trial_index":49,"time_elapsed":1303485,"internal_node_id":"0.0-49.0"},{"result":163,"points":2,"place":1,"phase":0,"sequence":30,"prices":[175,187,176,209,180,188,163,165,154,208],"times":[847,1209,896,656,653,647,1120],"next_num":7,"trial_type":"ticket-choose","trial_index":50,"time_elapsed":1312749,"internal_node_id":"0.0-50.0"},{"result":163,"points":3,"place":0,"phase":0,"sequence":31,"prices":[168,199,196,198,185,195,227,163,177,166],"times":[1671,605,689,669,689,753,751,1111],"next_num":8,"trial_type":"ticket-choose","trial_index":51,"time_elapsed":1323675,"internal_node_id":"0.0-51.0"},{"result":167,"points":2,"place":1,"phase":0,"sequence":32,"prices":[174,186,167,211,181,188,178,168,208,156],"times":[1489,867,990],"next_num":3,"trial_type":"ticket-choose","trial_index":52,"time_elapsed":1329656,"internal_node_id":"0.0-52.0"},{"result":176,"points":1,"place":4,"phase":0,"sequence":33,"prices":[175,186,176,210,179,187,163,166,153,208],"times":[1159,1145,1215],"next_num":3,"trial_type":"ticket-choose","trial_index":53,"time_elapsed":1335736,"internal_node_id":"0.0-53.0"},{"result":167,"points":2,"place":1,"phase":0,"sequence":34,"prices":[189,167,180,197,165,168,172,213,178,171],"times":[1107,1204],"next_num":2,"trial_type":"ticket-choose","trial_index":54,"time_elapsed":1340442,"internal_node_id":"0.0-54.0"},{"result":165,"points":3,"place":0,"phase":0,"sequence":35,"prices":[196,165,170,184,187,211,171,201,202,185],"times":[1579,987],"next_num":2,"trial_type":"ticket-choose","trial_index":55,"time_elapsed":1345274,"internal_node_id":"0.0-55.0"},{"result":165,"points":2,"place":1,"phase":0,"sequence":36,"prices":[175,187,177,209,180,188,165,165,154,208],"times":[714,604,665,799,796,691,938],"next_num":7,"trial_type":"ticket-choose","trial_index":56,"time_elapsed":1353764,"internal_node_id":"0.0-56.0"},{"result":169,"points":2,"place":1,"phase":0,"sequence":37,"prices":[191,172,169,175,182,203,170,195,165,176],"times":[1251,1094,887],"next_num":3,"trial_type":"ticket-choose","trial_index":57,"time_elapsed":1359441,"internal_node_id":"0.0-57.0"},{"result":160,"points":1,"place":2,"phase":0,"sequence":38,"prices":[189,150,175,160,188,207,158,194,178,199],"times":[988,473,855,799],"next_num":4,"trial_type":"ticket-choose","trial_index":58,"time_elapsed":1365657,"internal_node_id":"0.0-58.0"},{"result":155,"points":2,"place":1,"phase":0,"sequence":39,"prices":[201,207,155,158,156,165,167,135,178,177],"times":[943,1049,1005],"next_num":3,"trial_type":"ticket-choose","trial_index":59,"time_elapsed":1370961,"internal_node_id":"0.0-59.0"},{"result":163,"points":1,"place":2,"phase":0,"sequence":40,"prices":[183,163,185,180,166,148,160,186,176,184],"times":[1778,935],"next_num":2,"trial_type":"ticket-choose","trial_index":60,"time_elapsed":1375839,"internal_node_id":"0.0-60.0"},{"result":167,"points":2,"place":1,"phase":0,"sequence":41,"prices":[175,186,167,225,179,187,178,169,209,153],"times":[1727,385,926],"next_num":3,"trial_type":"ticket-choose","trial_index":61,"time_elapsed":1381373,"internal_node_id":"0.0-61.0"},{"result":169,"points":1,"place":3,"phase":0,"sequence":42,"prices":[198,193,169,163,202,182,152,164,177,171],"times":[1960,1193,1126],"next_num":3,"trial_type":"ticket-choose","trial_index":62,"time_elapsed":1388120,"internal_node_id":"0.0-62.0"},{"result":167,"points":1,"place":2,"phase":0,"sequence":43,"prices":[171,203,175,170,167,220,192,186,165,165],"times":[1078,1325,713,679,885],"next_num":5,"trial_type":"ticket-choose","trial_index":63,"time_elapsed":1395559,"internal_node_id":"0.0-63.0"},{"result":156,"points":3,"place":0,"phase":0,"sequence":44,"prices":[175,185,178,215,181,186,167,168,208,156],"times":[1082,591,703,684,712,626,915,944,666,1013],"next_num":10,"trial_type":"ticket-choose","trial_index":64,"time_elapsed":1408536,"internal_node_id":"0.0-64.0"},{"result":169,"points":2,"place":1,"phase":0,"sequence":45,"prices":[193,169,171,187,190,224,174,194,165,188],"times":[1975,1346],"next_num":2,"trial_type":"ticket-choose","trial_index":65,"time_elapsed":1414435,"internal_node_id":"0.0-65.0"},{"result":167,"points":2,"place":1,"phase":0,"sequence":46,"prices":[212,192,188,184,167,193,189,164,176,170],"times":[8574,818,646,813,1206],"next_num":5,"trial_type":"ticket-choose","trial_index":66,"time_elapsed":1429331,"internal_node_id":"0.0-66.0"},{"result":165,"points":3,"place":0,"phase":0,"sequence":47,"prices":[185,170,182,201,173,199,171,188,165,168],"times":[1162,641,606,636,857,656,768,633,945],"next_num":9,"trial_type":"ticket-choose","trial_index":67,"time_elapsed":1440066,"internal_node_id":"0.0-67.0"},{"result":154,"points":2,"place":1,"phase":0,"sequence":48,"prices":[168,154,172,185,195,144,184,211,177,227],"times":[1725,933],"next_num":2,"trial_type":"ticket-choose","trial_index":68,"time_elapsed":1444760,"internal_node_id":"0.0-68.0"},{"result":165,"points":2,"place":1,"phase":0,"sequence":49,"prices":[174,186,165,212,181,187,177,167,153,209],"times":[826,684,1087],"next_num":3,"trial_type":"ticket-choose","trial_index":69,"time_elapsed":1449600,"internal_node_id":"0.0-69.0"},{"responses":[{"value":0,"offby":-1,"category":"$115 - $130","category_index":0},{"value":0,"offby":-5,"category":"$131 - $145","category_index":1},{"value":10,"offby":-2,"category":"$146 - $160","category_index":2},{"value":35,"offby":13,"category":"$161 - $175","category_index":3},{"value":40,"offby":6,"category":"$176 - $190","category_index":4},{"value":10,"offby":-5,"category":"$191 - $205","category_index":5},{"value":5,"offby":-6,"category":"$206 - $220","category_index":6}],"phase":1,"number":1,"trial_type":"bar-choose","trial_index":70,"time_elapsed":1503016,"internal_node_id":"0.0-70.0"},{"rt":95521,"url":"\/christiane\/tickets\/utils\/testing2.html","trial_type":"point_update","trial_index":71,"time_elapsed":1599773,"internal_node_id":"0.0-71.0"},{"phase":1,"order":[20,11,22,14,18,42,8,2,16,30,45,25,49,9,0,37,32,10,35,6,28,23,17,3,47,5,4,31,34,13,40,41,26,24,12,39,33,46,38,1,7,27,15,29,19,21,36,43,48,44],"trial_type":"store_order","trial_index":72,"time_elapsed":1600780,"internal_node_id":"0.0-72.0"},{"result":165,"points":1,"place":2,"phase":1,"sequence":0,"prices":[158,176,187,210,177,181,187,165,208,153],"times":[1514,510,350,514,616,590,596,1590],"next_num":8,"trial_type":"ticket-choose","trial_index":73,"time_elapsed":1611080,"internal_node_id":"0.0-73.0"},{"result":153,"points":3,"place":0,"phase":1,"sequence":1,"prices":[177,174,186,217,165,181,187,166,153,209],"times":[1225,538,421,571,605,685,703,1777,985],"next_num":9,"trial_type":"ticket-choose","trial_index":74,"time_elapsed":1622264,"internal_node_id":"0.0-74.0"},{"result":158,"points":2,"place":1,"phase":1,"sequence":2,"prices":[177,175,186,209,158,181,188,167,208,154],"times":[1593,472,857,307,946],"next_num":5,"trial_type":"ticket-choose","trial_index":75,"time_elapsed":1629336,"internal_node_id":"0.0-75.0"},{"result":212,"points":0,"place":9,"phase":1,"sequence":3,"prices":[163,174,186,212,176,181,187,166,153,209],"times":[930,389,481,452],"next_num":4,"trial_type":"ticket-choose","trial_index":76,"time_elapsed":1634522,"internal_node_id":"0.0-76.0"},{"result":158,"points":2,"place":1,"phase":1,"sequence":4,"prices":[158,175,186,211,177,180,187,166,209,153],"times":[1067],"next_num":1,"trial_type":"ticket-choose","trial_index":77,"time_elapsed":1637600,"internal_node_id":"0.0-77.0"},{"result":169,"points":3,"place":0,"phase":1,"sequence":5,"prices":[220,173,201,197,169,205,198,183,178,186],"times":[969,444,520,483,1076],"next_num":5,"trial_type":"ticket-choose","trial_index":78,"time_elapsed":1643686,"internal_node_id":"0.0-78.0"},{"result":165,"points":2,"place":1,"phase":1,"sequence":6,"prices":[165,174,186,212,177,181,187,166,153,209],"times":[1169],"next_num":1,"trial_type":"ticket-choose","trial_index":79,"time_elapsed":1646751,"internal_node_id":"0.0-79.0"},{"result":167,"points":2,"place":1,"phase":1,"sequence":7,"prices":[167,175,186,225,178,179,187,169,209,153],"times":[1056],"next_num":1,"trial_type":"ticket-choose","trial_index":80,"time_elapsed":1649551,"internal_node_id":"0.0-80.0"},{"result":163,"points":2,"place":1,"phase":1,"sequence":8,"prices":[176,187,179,209,163,180,188,165,154,208],"times":[842,226,325,501,986],"next_num":5,"trial_type":"ticket-choose","trial_index":81,"time_elapsed":1655133,"internal_node_id":"0.0-81.0"},{"result":165,"points":2,"place":1,"phase":1,"sequence":9,"prices":[191,170,182,165,175,182,203,157,195,200],"times":[1142,614,819,981],"next_num":4,"trial_type":"ticket-choose","trial_index":82,"time_elapsed":1661319,"internal_node_id":"0.0-82.0"},{"result":167,"points":2,"place":1,"phase":1,"sequence":10,"prices":[199,191,188,174,167,193,189,164,176,170],"times":[1283,581,354,825,915],"next_num":5,"trial_type":"ticket-choose","trial_index":83,"time_elapsed":1668004,"internal_node_id":"0.0-83.0"},{"result":166,"points":1,"place":3,"phase":1,"sequence":11,"prices":[201,204,179,166,185,165,214,156,202,165],"times":[1425,242,441,731],"next_num":4,"trial_type":"ticket-choose","trial_index":84,"time_elapsed":1673260,"internal_node_id":"0.0-84.0"},{"result":163,"points":1,"place":2,"phase":1,"sequence":12,"prices":[173,163,185,181,166,148,160,185,176,184],"times":[1092,887],"next_num":2,"trial_type":"ticket-choose","trial_index":85,"time_elapsed":1677261,"internal_node_id":"0.0-85.0"},{"result":153,"points":3,"place":0,"phase":1,"sequence":13,"prices":[177,175,186,210,165,179,187,166,153,208],"times":[959,607,379,365,329,482,730,856,875],"next_num":9,"trial_type":"ticket-choose","trial_index":86,"time_elapsed":1686417,"internal_node_id":"0.0-86.0"},{"result":168,"points":1,"place":2,"phase":1,"sequence":14,"prices":[167,174,186,211,178,181,188,168,208,156],"times":[1391,443,299,608,579,552,633,829],"next_num":8,"trial_type":"ticket-choose","trial_index":87,"time_elapsed":1695211,"internal_node_id":"0.0-87.0"},{"result":169,"points":1,"place":3,"phase":1,"sequence":15,"prices":[199,193,169,165,202,182,151,164,176,171],"times":[1065,484,971],"next_num":3,"trial_type":"ticket-choose","trial_index":88,"time_elapsed":1700098,"internal_node_id":"0.0-88.0"},{"result":165,"points":2,"place":1,"phase":1,"sequence":16,"prices":[193,174,224,165,187,190,224,161,194,195],"times":[780,633,1005,5445],"next_num":4,"trial_type":"ticket-choose","trial_index":89,"time_elapsed":1710854,"internal_node_id":"0.0-89.0"},{"result":175,"points":1,"place":3,"phase":1,"sequence":17,"prices":[177,175,187,209,165,180,188,165,154,208],"times":[766,794],"next_num":2,"trial_type":"ticket-choose","trial_index":90,"time_elapsed":1714765,"internal_node_id":"0.0-90.0"},{"result":153,"points":2,"place":1,"phase":1,"sequence":18,"prices":[167,153,172,185,195,143,184,211,177,227],"times":[1196,1122],"next_num":2,"trial_type":"ticket-choose","trial_index":91,"time_elapsed":1719198,"internal_node_id":"0.0-91.0"},{"result":177,"points":1,"place":4,"phase":1,"sequence":19,"prices":[165,175,186,214,177,179,187,166,153,208],"times":[864,1772,1485,917,1151],"next_num":5,"trial_type":"ticket-choose","trial_index":92,"time_elapsed":1728229,"internal_node_id":"0.0-92.0"},{"result":171,"points":1,"place":3,"phase":1,"sequence":20,"prices":[196,171,170,184,187,165,211,169,201,202],"times":[1090,933],"next_num":2,"trial_type":"ticket-choose","trial_index":93,"time_elapsed":1732435,"internal_node_id":"0.0-93.0"},{"result":165,"points":1,"place":2,"phase":1,"sequence":21,"prices":[177,176,187,225,158,181,187,165,208,153],"times":[1153,276,421,471,528,762,546,1193],"next_num":8,"trial_type":"ticket-choose","trial_index":94,"time_elapsed":1741401,"internal_node_id":"0.0-94.0"},{"result":163,"points":2,"place":1,"phase":1,"sequence":22,"prices":[176,186,178,217,163,181,187,166,153,209],"times":[981,539,509,912,955],"next_num":5,"trial_type":"ticket-choose","trial_index":95,"time_elapsed":1748067,"internal_node_id":"0.0-95.0"},{"result":167,"points":2,"place":1,"phase":1,"sequence":23,"prices":[178,174,186,217,167,181,188,168,208,156],"times":[952,272,379,562,933],"next_num":5,"trial_type":"ticket-choose","trial_index":96,"time_elapsed":1754476,"internal_node_id":"0.0-96.0"},{"result":152,"points":3,"place":0,"phase":1,"sequence":24,"prices":[200,180,203,152,175,170,160,154,176,191],"times":[978,364,606,891],"next_num":4,"trial_type":"ticket-choose","trial_index":97,"time_elapsed":1759719,"internal_node_id":"0.0-97.0"},{"result":167,"points":2,"place":1,"phase":1,"sequence":25,"prices":[178,175,186,212,167,179,187,169,209,153],"times":[1301,472,768,704,964],"next_num":5,"trial_type":"ticket-choose","trial_index":98,"time_elapsed":1766740,"internal_node_id":"0.0-98.0"},{"result":167,"points":2,"place":1,"phase":1,"sequence":26,"prices":[178,175,185,215,167,181,186,168,208,156],"times":[924,1035,602,585,963],"next_num":5,"trial_type":"ticket-choose","trial_index":99,"time_elapsed":1773903,"internal_node_id":"0.0-99.0"},{"result":163,"points":2,"place":1,"phase":1,"sequence":27,"prices":[171,169,186,165,163,167,220,148,187,165],"times":[2823,654,509,452,560],"next_num":5,"trial_type":"ticket-choose","trial_index":100,"time_elapsed":1781623,"internal_node_id":"0.0-100.0"},{"result":149,"points":3,"place":0,"phase":1,"sequence":28,"prices":[180,156,149,160,168,186,172,198,176,195],"times":[1108,384,608],"next_num":3,"trial_type":"ticket-choose","trial_index":101,"time_elapsed":1786049,"internal_node_id":"0.0-101.0"},{"result":163,"points":2,"place":1,"phase":1,"sequence":29,"prices":[163,175,187,209,176,180,188,165,154,208],"times":[1749],"next_num":1,"trial_type":"ticket-choose","trial_index":102,"time_elapsed":1789618,"internal_node_id":"0.0-102.0"},{"result":150,"points":3,"place":0,"phase":1,"sequence":30,"prices":[190,150,175,161,188,207,157,194,178,199],"times":[1076,789],"next_num":2,"trial_type":"ticket-choose","trial_index":103,"time_elapsed":1793736,"internal_node_id":"0.0-103.0"},{"result":158,"points":1,"place":3,"phase":1,"sequence":31,"prices":[200,207,155,158,156,168,167,135,178,177],"times":[1529,634,1077,2899],"next_num":4,"trial_type":"ticket-choose","trial_index":104,"time_elapsed":1802414,"internal_node_id":"0.0-104.0"},{"result":152,"points":3,"place":0,"phase":1,"sequence":32,"prices":[200,173,182,169,207,165,152,202,161,204],"times":[748,384,1185,1289,520,461,830],"next_num":7,"trial_type":"ticket-choose","trial_index":105,"time_elapsed":1810953,"internal_node_id":"0.0-105.0"},{"result":184,"points":1,"place":4,"phase":1,"sequence":33,"prices":[193,181,175,181,185,165,224,199,218,184],"times":[1424,537,711,610,664,971,647,674,608,773],"next_num":10,"trial_type":"ticket-choose","trial_index":106,"time_elapsed":1822714,"internal_node_id":"0.0-106.0"},{"result":163,"points":2,"place":1,"phase":1,"sequence":34,"prices":[163,175,186,214,176,179,187,166,153,208],"times":[1081],"next_num":1,"trial_type":"ticket-choose","trial_index":107,"time_elapsed":1825773,"internal_node_id":"0.0-107.0"},{"result":167,"points":2,"place":1,"phase":1,"sequence":35,"prices":[189,167,180,197,165,168,172,213,178,171],"times":[1068,850],"next_num":2,"trial_type":"ticket-choose","trial_index":108,"time_elapsed":1829709,"internal_node_id":"0.0-108.0"},{"result":188,"points":0,"place":7,"phase":1,"sequence":36,"prices":[183,179,188,165,168,173,205,159,187,191],"times":[911,930,890],"next_num":3,"trial_type":"ticket-choose","trial_index":109,"time_elapsed":1834604,"internal_node_id":"0.0-109.0"},{"result":184,"points":1,"place":3,"phase":1,"sequence":37,"prices":[214,184,226,192,215,158,199,175,176,208],"times":[1133,1050],"next_num":2,"trial_type":"ticket-choose","trial_index":110,"time_elapsed":1839031,"internal_node_id":"0.0-110.0"},{"result":163,"points":3,"place":0,"phase":1,"sequence":38,"prices":[163,199,196,199,185,195,227,163,177,166],"times":[3268],"next_num":1,"trial_type":"ticket-choose","trial_index":111,"time_elapsed":1846525,"internal_node_id":"0.0-111.0"},{"result":156,"points":3,"place":0,"phase":1,"sequence":39,"prices":[167,175,185,224,178,181,186,168,208,156],"times":[1950,678,1483,597,626,720,592,1197,624,675],"next_num":10,"trial_type":"ticket-choose","trial_index":112,"time_elapsed":1859355,"internal_node_id":"0.0-112.0"},{"result":167,"points":1,"place":2,"phase":1,"sequence":40,"prices":[165,175,187,209,177,180,188,167,154,208],"times":[1000,617,748,1011,693,675,599,1036],"next_num":8,"trial_type":"ticket-choose","trial_index":113,"time_elapsed":1869231,"internal_node_id":"0.0-113.0"},{"result":165,"points":3,"place":0,"phase":1,"sequence":41,"prices":[192,172,171,178,188,165,217,168,195,197],"times":[986,561,690,649,599,1250],"next_num":6,"trial_type":"ticket-choose","trial_index":114,"time_elapsed":1877169,"internal_node_id":"0.0-114.0"},{"result":166,"points":1,"place":2,"phase":1,"sequence":42,"prices":[176,175,186,210,163,179,187,166,153,208],"times":[2372,1098,645,773,1317,2117,741,763],"next_num":8,"trial_type":"ticket-choose","trial_index":115,"time_elapsed":1890416,"internal_node_id":"0.0-115.0"},{"result":191,"points":0,"place":8,"phase":1,"sequence":43,"prices":[185,179,191,165,161,173,199,150,188,168],"times":[796,863,933],"next_num":3,"trial_type":"ticket-choose","trial_index":116,"time_elapsed":1895467,"internal_node_id":"0.0-116.0"},{"result":158,"points":2,"place":1,"phase":1,"sequence":44,"prices":[158,175,186,209,177,181,188,167,208,154],"times":[1288],"next_num":1,"trial_type":"ticket-choose","trial_index":117,"time_elapsed":1898508,"internal_node_id":"0.0-117.0"},{"result":166,"points":1,"place":2,"phase":1,"sequence":45,"prices":[177,175,186,221,158,180,187,166,209,153],"times":[1021,1184,647,615,679,214,740,825],"next_num":8,"trial_type":"ticket-choose","trial_index":118,"time_elapsed":1907858,"internal_node_id":"0.0-118.0"},{"result":165,"points":2,"place":1,"phase":1,"sequence":46,"prices":[187,201,165,172,196,174,178,154,172,180],"times":[4276,924,1021],"next_num":3,"trial_type":"ticket-choose","trial_index":119,"time_elapsed":1916553,"internal_node_id":"0.0-119.0"},{"result":170,"points":2,"place":1,"phase":1,"sequence":47,"prices":[201,187,157,184,198,179,188,185,178,170],"times":[1160,582,910,1298,1329,1227,814,684,808,836],"next_num":11,"trial_type":"ticket-choose","trial_index":120,"time_elapsed":1930946,"internal_node_id":"0.0-120.0"},{"result":169,"points":2,"place":1,"phase":1,"sequence":48,"prices":[181,214,169,147,182,193,178,184,176,179],"times":[1369,998,873],"next_num":3,"trial_type":"ticket-choose","trial_index":121,"time_elapsed":1936564,"internal_node_id":"0.0-121.0"},{"result":159,"points":1,"place":2,"phase":1,"sequence":49,"prices":[181,159,149,175,185,151,163,174,178,207],"times":[729,1045],"next_num":2,"trial_type":"ticket-choose","trial_index":122,"time_elapsed":1940353,"internal_node_id":"0.0-122.0"},{"responses":[{"value":0,"offby":-1,"category":"$115 - $130","category_index":0},{"value":5,"offby":0,"category":"$131 - $145","category_index":1},{"value":15,"offby":3,"category":"$146 - $160","category_index":2},{"value":25,"offby":3,"category":"$161 - $175","category_index":3},{"value":30,"offby":-4,"category":"$176 - $190","category_index":4},{"value":20,"offby":5,"category":"$191 - $205","category_index":5},{"value":5,"offby":-6,"category":"$206 - $220","category_index":6}],"phase":1,"number":1,"trial_type":"bar-choose","trial_index":123,"time_elapsed":1984166,"internal_node_id":"0.0-123.0"},{"special_comment":"No.","trial_type":"special_sequence","trial_index":124,"time_elapsed":1989693,"internal_node_id":"0.0-124.0"},{"during":"Nothing","bonus":252,"trial_type":"final","trial_index":125,"time_elapsed":2025655,"internal_node_id":"0.0-125.0"}],"bonus":252}