{"start_time":"2017-05-24 12:03:39","end_time":"2017-05-24 12:38:03","points_phase0":94,"points_phase1":105,"phase_order":1,"age":51,"gender":"m","tries":1,"during":"Nothing","worker_id":"ADGQOL6YC087W","assignment_id":"3IXQG4FA2URCOZ1V0CT9BHD4L68B9B","data":[{"rt":410968,"url":"\/christiane\/tickets\/utils\/consent.html","trial_type":"html","trial_index":0,"time_elapsed":411984,"internal_node_id":"0.0-0.0"},{"age":51,"gender":"m","trial_type":"age","trial_index":1,"time_elapsed":686184,"internal_node_id":"0.0-1.0"},{"worker_id":"ADGQOL6YC087W","trial_type":"workerid","trial_index":2,"time_elapsed":690988,"internal_node_id":"0.0-2.0"},{"tries":1,"trial_type":"instructions_check","trial_index":3,"time_elapsed":746616,"internal_node_id":"0.0-3.0"},{"rt":15391,"url":"\/christiane\/tickets\/utils\/start.html","trial_type":"html","trial_index":4,"time_elapsed":763155,"internal_node_id":"0.0-4.0"},{"trial_type":"number-animation","trial_index":5,"time_elapsed":799521,"internal_node_id":"0.0-5.0"},{"phase":0,"sequence":0,"avg":181,"response":180,"trial_type":"training_avg","trial_index":6,"time_elapsed":812891,"internal_node_id":"0.0-6.0"},{"trial_type":"number-animation","trial_index":7,"time_elapsed":879306,"internal_node_id":"0.0-7.0"},{"phase":0,"sequence":1,"avg":188,"response":189,"trial_type":"training_avg","trial_index":8,"time_elapsed":891177,"internal_node_id":"0.0-8.0"},{"trial_type":"number-animation","trial_index":9,"time_elapsed":930880,"internal_node_id":"0.0-9.0"},{"phase":0,"sequence":2,"avg":188,"response":188,"trial_type":"training_avg","trial_index":10,"time_elapsed":940225,"internal_node_id":"0.0-10.0"},{"trial_type":"number-animation","trial_index":11,"time_elapsed":974367,"internal_node_id":"0.0-11.0"},{"phase":0,"sequence":3,"avg":177,"response":177,"trial_type":"training_avg","trial_index":12,"time_elapsed":983021,"internal_node_id":"0.0-12.0"},{"trial_type":"number-animation","trial_index":13,"time_elapsed":1020221,"internal_node_id":"0.0-13.0"},{"phase":0,"sequence":4,"avg":182,"response":181,"trial_type":"training_avg","trial_index":14,"time_elapsed":1027553,"internal_node_id":"0.0-14.0"},{"responses":[{"value":1,"offby":0,"category":"$115 - $130","category_index":0},{"value":3,"offby":-2,"category":"$131 - $145","category_index":1},{"value":5,"offby":-7,"category":"$146 - $160","category_index":2},{"value":11,"offby":-11,"category":"$161 - $175","category_index":3},{"value":66,"offby":32,"category":"$176 - $190","category_index":4},{"value":10,"offby":-5,"category":"$191 - $205","category_index":5},{"value":4,"offby":-7,"category":"$206 - $220","category_index":6}],"phase":0,"number":0,"trial_type":"bar-choose","trial_index":15,"time_elapsed":1127683,"internal_node_id":"0.0-15.0"},{"rt":16808,"url":"\/christiane\/tickets\/utils\/testing.html","trial_type":"html","trial_index":16,"time_elapsed":1145657,"internal_node_id":"0.0-16.0"},{"phase":0,"order":[18,30,2,11,1,42,37,5,23,17,24,41,43,9,29,16,47,3,31,22,40,4,38,46,45,12,7,39,6,35,48,36,19,0,28,20,10,8,25,44,32,14,34,26,33,27,21,49,13,15],"trial_type":"store_order","trial_index":17,"time_elapsed":1146659,"internal_node_id":"0.0-17.0"},{"result":165,"points":2,"place":1,"phase":0,"sequence":-1,"prices":[184,180,224,165,181,199,185,193,218,146],"times":[4421,1172,810,2289],"next_num":4,"trial_type":"ticket-choose","trial_index":18,"time_elapsed":1159073,"internal_node_id":"0.0-18.0"},{"rt":22554,"url":"\/christiane\/tickets\/utils\/testing_after.html","trial_type":"html","trial_index":19,"time_elapsed":1182775,"internal_node_id":"0.0-19.0"},{"result":163,"points":2,"place":1,"phase":0,"sequence":0,"prices":[163,174,186,212,176,181,187,166,153,209],"times":[3802],"next_num":1,"trial_type":"ticket-choose","trial_index":20,"time_elapsed":1189908,"internal_node_id":"0.0-20.0"},{"result":163,"points":2,"place":1,"phase":0,"sequence":1,"prices":[176,187,179,209,163,180,188,165,154,208],"times":[1241,615,555,666,1385],"next_num":5,"trial_type":"ticket-choose","trial_index":21,"time_elapsed":1198333,"internal_node_id":"0.0-21.0"},{"result":165,"points":2,"place":1,"phase":0,"sequence":2,"prices":[191,170,182,165,175,182,203,157,195,200],"times":[1840,529,534,1183],"next_num":4,"trial_type":"ticket-choose","trial_index":22,"time_elapsed":1205733,"internal_node_id":"0.0-22.0"},{"result":168,"points":1,"place":2,"phase":0,"sequence":3,"prices":[167,174,186,211,178,181,188,168,208,156],"times":[1404,491,450,536,514,1212,830,1236],"next_num":8,"trial_type":"ticket-choose","trial_index":23,"time_elapsed":1216494,"internal_node_id":"0.0-23.0"},{"result":155,"points":2,"place":1,"phase":0,"sequence":4,"prices":[200,207,155,158,156,168,167,135,178,177],"times":[1749,697,1166],"next_num":3,"trial_type":"ticket-choose","trial_index":24,"time_elapsed":1223473,"internal_node_id":"0.0-24.0"},{"result":167,"points":2,"place":1,"phase":0,"sequence":5,"prices":[167,175,185,224,178,181,186,168,208,156],"times":[1801],"next_num":1,"trial_type":"ticket-choose","trial_index":25,"time_elapsed":1227882,"internal_node_id":"0.0-25.0"},{"result":163,"points":2,"place":1,"phase":0,"sequence":6,"prices":[163,175,187,209,176,180,188,165,154,208],"times":[1146],"next_num":1,"trial_type":"ticket-choose","trial_index":26,"time_elapsed":1231692,"internal_node_id":"0.0-26.0"},{"result":167,"points":2,"place":1,"phase":0,"sequence":7,"prices":[178,175,185,215,167,181,186,168,208,156],"times":[1585,476,544,541,1082],"next_num":5,"trial_type":"ticket-choose","trial_index":27,"time_elapsed":1239203,"internal_node_id":"0.0-27.0"},{"result":165,"points":3,"place":0,"phase":0,"sequence":8,"prices":[192,172,171,178,188,165,217,168,195,197],"times":[1180,497,453,492,620,1079],"next_num":6,"trial_type":"ticket-choose","trial_index":28,"time_elapsed":1248095,"internal_node_id":"0.0-28.0"},{"result":161,"points":1,"place":2,"phase":0,"sequence":9,"prices":[190,150,175,161,188,207,157,194,178,199],"times":[2501,650,1744,958],"next_num":4,"trial_type":"ticket-choose","trial_index":29,"time_elapsed":1256921,"internal_node_id":"0.0-29.0"},{"result":165,"points":2,"place":1,"phase":0,"sequence":10,"prices":[177,174,186,217,165,181,187,166,153,209],"times":[1058,516,576,456,1094],"next_num":5,"trial_type":"ticket-choose","trial_index":30,"time_elapsed":1263879,"internal_node_id":"0.0-30.0"},{"result":163,"points":2,"place":1,"phase":0,"sequence":11,"prices":[176,175,186,210,163,179,187,166,153,208],"times":[861,473,573,584,978],"next_num":5,"trial_type":"ticket-choose","trial_index":31,"time_elapsed":1270594,"internal_node_id":"0.0-31.0"},{"result":169,"points":1,"place":3,"phase":0,"sequence":12,"prices":[199,193,169,165,202,182,151,164,176,171],"times":[1325,580,2192],"next_num":3,"trial_type":"ticket-choose","trial_index":32,"time_elapsed":1277603,"internal_node_id":"0.0-32.0"},{"result":165,"points":2,"place":1,"phase":0,"sequence":13,"prices":[183,179,188,165,168,173,205,159,187,191],"times":[945,489,443,1856],"next_num":4,"trial_type":"ticket-choose","trial_index":33,"time_elapsed":1284593,"internal_node_id":"0.0-33.0"},{"result":164,"points":3,"place":0,"phase":0,"sequence":14,"prices":[199,191,188,174,167,193,189,164,176,170],"times":[891,448,500,496,1098,557,933,1053],"next_num":8,"trial_type":"ticket-choose","trial_index":34,"time_elapsed":1295247,"internal_node_id":"0.0-34.0"},{"result":186,"points":1,"place":4,"phase":0,"sequence":15,"prices":[220,173,201,197,169,205,198,183,178,186],"times":[1026,511,570,509,1275,467,525,1024,1044,1878],"next_num":10,"trial_type":"ticket-choose","trial_index":35,"time_elapsed":1308558,"internal_node_id":"0.0-35.0"},{"result":158,"points":3,"place":0,"phase":0,"sequence":16,"prices":[214,184,226,192,215,158,199,175,176,208],"times":[1135,578,589,586,576,1117],"next_num":6,"trial_type":"ticket-choose","trial_index":36,"time_elapsed":1317108,"internal_node_id":"0.0-36.0"},{"result":165,"points":2,"place":1,"phase":0,"sequence":17,"prices":[165,175,186,214,177,179,187,166,153,208],"times":[1123],"next_num":1,"trial_type":"ticket-choose","trial_index":37,"time_elapsed":1320634,"internal_node_id":"0.0-37.0"},{"result":152,"points":3,"place":0,"phase":0,"sequence":18,"prices":[200,180,203,152,175,170,160,154,176,191],"times":[781,510,513,1077],"next_num":4,"trial_type":"ticket-choose","trial_index":38,"time_elapsed":1327095,"internal_node_id":"0.0-38.0"},{"result":169,"points":1,"place":3,"phase":0,"sequence":19,"prices":[200,173,182,169,207,165,152,202,161,204],"times":[983,696,496,1908],"next_num":4,"trial_type":"ticket-choose","trial_index":39,"time_elapsed":1334112,"internal_node_id":"0.0-39.0"},{"result":167,"points":2,"place":1,"phase":0,"sequence":20,"prices":[178,174,186,217,167,181,188,168,208,156],"times":[868,469,2663,556,1052],"next_num":5,"trial_type":"ticket-choose","trial_index":40,"time_elapsed":1342796,"internal_node_id":"0.0-40.0"},{"result":158,"points":2,"place":1,"phase":0,"sequence":21,"prices":[158,175,186,209,177,181,188,167,208,154],"times":[1303],"next_num":1,"trial_type":"ticket-choose","trial_index":41,"time_elapsed":1346492,"internal_node_id":"0.0-41.0"},{"result":169,"points":1,"place":2,"phase":0,"sequence":22,"prices":[167,175,186,225,178,179,187,169,209,153],"times":[1139,498,561,829,581,596,819,2200],"next_num":8,"trial_type":"ticket-choose","trial_index":42,"time_elapsed":1357670,"internal_node_id":"0.0-42.0"},{"result":165,"points":2,"place":1,"phase":0,"sequence":23,"prices":[177,175,187,209,165,180,188,165,154,208],"times":[1050,579,512,581,1010],"next_num":5,"trial_type":"ticket-choose","trial_index":43,"time_elapsed":1364757,"internal_node_id":"0.0-43.0"},{"result":163,"points":2,"place":1,"phase":0,"sequence":24,"prices":[163,175,186,214,176,179,187,166,153,208],"times":[1374],"next_num":1,"trial_type":"ticket-choose","trial_index":44,"time_elapsed":1368389,"internal_node_id":"0.0-44.0"},{"result":167,"points":1,"place":2,"phase":0,"sequence":25,"prices":[177,175,186,209,158,181,188,167,208,154],"times":[777,521,517,586,479,1227,543,1168],"next_num":8,"trial_type":"ticket-choose","trial_index":45,"time_elapsed":1377795,"internal_node_id":"0.0-45.0"},{"result":157,"points":3,"place":0,"phase":0,"sequence":26,"prices":[201,187,157,184,198,179,188,185,178,170],"times":[2610,700,1067],"next_num":3,"trial_type":"ticket-choose","trial_index":46,"time_elapsed":1385187,"internal_node_id":"0.0-46.0"},{"result":166,"points":1,"place":3,"phase":0,"sequence":27,"prices":[201,204,179,166,185,165,214,156,202,165],"times":[12653,569,670,1129],"next_num":4,"trial_type":"ticket-choose","trial_index":47,"time_elapsed":1403276,"internal_node_id":"0.0-47.0"},{"result":169,"points":0,"place":5,"phase":0,"sequence":28,"prices":[171,169,186,165,163,167,220,148,187,165],"times":[1103,1102],"next_num":2,"trial_type":"ticket-choose","trial_index":48,"time_elapsed":1408064,"internal_node_id":"0.0-48.0"},{"result":165,"points":2,"place":1,"phase":0,"sequence":29,"prices":[165,175,187,209,177,180,188,167,154,208],"times":[1172],"next_num":1,"trial_type":"ticket-choose","trial_index":49,"time_elapsed":1411413,"internal_node_id":"0.0-49.0"},{"result":156,"points":2,"place":1,"phase":0,"sequence":30,"prices":[180,156,149,160,168,186,172,198,176,195],"times":[711,1007],"next_num":2,"trial_type":"ticket-choose","trial_index":50,"time_elapsed":1415759,"internal_node_id":"0.0-50.0"},{"result":167,"points":2,"place":1,"phase":0,"sequence":31,"prices":[178,175,186,212,167,179,187,169,209,153],"times":[5044,566,594,566,978],"next_num":5,"trial_type":"ticket-choose","trial_index":51,"time_elapsed":1426474,"internal_node_id":"0.0-51.0"},{"result":158,"points":2,"place":1,"phase":0,"sequence":32,"prices":[158,176,187,210,177,181,187,165,208,153],"times":[1184],"next_num":1,"trial_type":"ticket-choose","trial_index":52,"time_elapsed":1430076,"internal_node_id":"0.0-52.0"},{"result":165,"points":2,"place":1,"phase":0,"sequence":33,"prices":[193,174,224,165,187,190,224,161,194,195],"times":[1103,477,579,972],"next_num":4,"trial_type":"ticket-choose","trial_index":53,"time_elapsed":1435953,"internal_node_id":"0.0-53.0"},{"result":165,"points":3,"place":0,"phase":0,"sequence":34,"prices":[189,167,180,197,165,168,172,213,178,171],"times":[711,418,665,1068,956],"next_num":5,"trial_type":"ticket-choose","trial_index":54,"time_elapsed":1443503,"internal_node_id":"0.0-54.0"},{"result":165,"points":1,"place":2,"phase":0,"sequence":35,"prices":[185,179,191,165,161,173,199,150,188,168],"times":[6268,573,626,903],"next_num":4,"trial_type":"ticket-choose","trial_index":55,"time_elapsed":1454642,"internal_node_id":"0.0-55.0"},{"result":163,"points":1,"place":2,"phase":0,"sequence":36,"prices":[173,163,185,181,166,148,160,185,176,184],"times":[734,955],"next_num":2,"trial_type":"ticket-choose","trial_index":56,"time_elapsed":1458602,"internal_node_id":"0.0-56.0"},{"result":158,"points":2,"place":1,"phase":0,"sequence":37,"prices":[177,175,186,221,158,180,187,166,209,153],"times":[570,442,582,590,1001],"next_num":5,"trial_type":"ticket-choose","trial_index":57,"time_elapsed":1465088,"internal_node_id":"0.0-57.0"},{"result":158,"points":2,"place":1,"phase":0,"sequence":38,"prices":[177,176,187,225,158,181,187,165,208,153],"times":[8496,701,541,555,1037],"next_num":5,"trial_type":"ticket-choose","trial_index":58,"time_elapsed":1479424,"internal_node_id":"0.0-58.0"},{"result":163,"points":2,"place":1,"phase":0,"sequence":39,"prices":[176,186,178,217,163,181,187,166,153,209],"times":[1689,498,509,570,1673],"next_num":5,"trial_type":"ticket-choose","trial_index":59,"time_elapsed":1487393,"internal_node_id":"0.0-59.0"},{"result":163,"points":3,"place":0,"phase":0,"sequence":40,"prices":[163,199,196,199,185,195,227,163,177,166],"times":[1052],"next_num":1,"trial_type":"ticket-choose","trial_index":60,"time_elapsed":1490768,"internal_node_id":"0.0-60.0"},{"result":165,"points":3,"place":0,"phase":0,"sequence":41,"prices":[196,171,170,184,187,165,211,169,201,202],"times":[721,470,503,647,499,937],"next_num":6,"trial_type":"ticket-choose","trial_index":61,"time_elapsed":1497896,"internal_node_id":"0.0-61.0"},{"result":165,"points":2,"place":1,"phase":0,"sequence":42,"prices":[177,175,186,210,165,179,187,166,153,208],"times":[2611,525,620,620,975],"next_num":5,"trial_type":"ticket-choose","trial_index":62,"time_elapsed":1506240,"internal_node_id":"0.0-62.0"},{"result":158,"points":2,"place":1,"phase":0,"sequence":43,"prices":[158,175,186,211,177,180,187,166,209,153],"times":[986],"next_num":1,"trial_type":"ticket-choose","trial_index":63,"time_elapsed":1509333,"internal_node_id":"0.0-63.0"},{"result":167,"points":1,"place":2,"phase":0,"sequence":44,"prices":[167,153,172,185,195,143,184,211,177,227],"times":[1583],"next_num":1,"trial_type":"ticket-choose","trial_index":64,"time_elapsed":1513080,"internal_node_id":"0.0-64.0"},{"result":179,"points":1,"place":4,"phase":0,"sequence":45,"prices":[181,214,169,147,182,193,178,184,176,179],"times":[894,459,951,460,997,552,571,645,740,1646],"next_num":10,"trial_type":"ticket-choose","trial_index":65,"time_elapsed":1526826,"internal_node_id":"0.0-65.0"},{"result":159,"points":1,"place":2,"phase":0,"sequence":46,"prices":[181,159,149,175,185,151,163,174,178,207],"times":[1086,885],"next_num":2,"trial_type":"ticket-choose","trial_index":66,"time_elapsed":1531225,"internal_node_id":"0.0-66.0"},{"result":165,"points":3,"place":0,"phase":0,"sequence":47,"prices":[193,181,175,181,185,165,224,199,218,184],"times":[770,715,586,536,616,983],"next_num":6,"trial_type":"ticket-choose","trial_index":67,"time_elapsed":1538723,"internal_node_id":"0.0-67.0"},{"result":165,"points":2,"place":1,"phase":0,"sequence":48,"prices":[165,174,186,212,177,181,187,166,153,209],"times":[1395],"next_num":1,"trial_type":"ticket-choose","trial_index":68,"time_elapsed":1542174,"internal_node_id":"0.0-68.0"},{"result":165,"points":2,"place":1,"phase":0,"sequence":49,"prices":[187,201,165,172,196,174,178,154,172,180],"times":[1362,779,1104],"next_num":3,"trial_type":"ticket-choose","trial_index":69,"time_elapsed":1548262,"internal_node_id":"0.0-69.0"},{"responses":[{"value":0,"offby":-1,"category":"$115 - $130","category_index":0},{"value":1,"offby":-4,"category":"$131 - $145","category_index":1},{"value":20,"offby":8,"category":"$146 - $160","category_index":2},{"value":34,"offby":12,"category":"$161 - $175","category_index":3},{"value":28,"offby":-6,"category":"$176 - $190","category_index":4},{"value":13,"offby":-2,"category":"$191 - $205","category_index":5},{"value":4,"offby":-7,"category":"$206 - $220","category_index":6}],"phase":1,"number":1,"trial_type":"bar-choose","trial_index":70,"time_elapsed":1596292,"internal_node_id":"0.0-70.0"},{"rt":15641,"url":"\/christiane\/tickets\/utils\/testing2.html","trial_type":"point_update","trial_index":71,"time_elapsed":1613236,"internal_node_id":"0.0-71.0"},{"phase":1,"order":[14,16,30,0,41,1,13,4,27,40,11,15,37,33,45,42,46,6,47,26,3,19,2,10,12,22,43,25,31,7,34,5,20,32,39,29,49,21,23,17,38,28,9,18,35,48,44,24,8,36],"trial_type":"store_order","trial_index":72,"time_elapsed":1614239,"internal_node_id":"0.0-72.0"},{"result":158,"points":2,"place":1,"phase":1,"sequence":0,"prices":[175,186,158,211,180,187,177,166,209,153],"times":[1944,643,1151],"next_num":3,"trial_type":"ticket-choose","trial_index":73,"time_elapsed":1620494,"internal_node_id":"0.0-73.0"},{"result":165,"points":3,"place":0,"phase":1,"sequence":1,"prices":[191,172,169,175,182,203,170,195,165,176],"times":[990,559,1602,599,647,707,646,972,937],"next_num":9,"trial_type":"ticket-choose","trial_index":74,"time_elapsed":1632028,"internal_node_id":"0.0-74.0"},{"result":167,"points":2,"place":1,"phase":1,"sequence":2,"prices":[175,186,167,225,179,187,178,169,209,153],"times":[1511,1028,1024],"next_num":3,"trial_type":"ticket-choose","trial_index":75,"time_elapsed":1638044,"internal_node_id":"0.0-75.0"},{"result":165,"points":2,"place":1,"phase":1,"sequence":3,"prices":[174,186,177,217,181,187,165,166,153,209],"times":[737,564,584,621,688,679,1008],"next_num":7,"trial_type":"ticket-choose","trial_index":76,"time_elapsed":1646269,"internal_node_id":"0.0-76.0"},{"result":167,"points":2,"place":1,"phase":1,"sequence":4,"prices":[175,185,167,224,181,186,178,168,208,156],"times":[975,574,1433],"next_num":3,"trial_type":"ticket-choose","trial_index":77,"time_elapsed":1651777,"internal_node_id":"0.0-77.0"},{"result":143,"points":3,"place":0,"phase":1,"sequence":5,"prices":[222,173,202,197,143,205,198,183,178,186],"times":[741,595,630,876,1103],"next_num":5,"trial_type":"ticket-choose","trial_index":78,"time_elapsed":1658699,"internal_node_id":"0.0-78.0"},{"result":169,"points":1,"place":3,"phase":1,"sequence":6,"prices":[198,193,169,163,202,182,152,164,177,171],"times":[745,535,1422],"next_num":3,"trial_type":"ticket-choose","trial_index":79,"time_elapsed":1663992,"internal_node_id":"0.0-79.0"},{"result":167,"points":2,"place":1,"phase":1,"sequence":7,"prices":[175,186,178,212,179,187,167,169,209,153],"times":[1121,554,585,656,630,716,1051],"next_num":7,"trial_type":"ticket-choose","trial_index":80,"time_elapsed":1672654,"internal_node_id":"0.0-80.0"},{"result":158,"points":2,"place":1,"phase":1,"sequence":8,"prices":[176,187,177,225,181,187,158,165,208,153],"times":[1630,511,576,636,595,674,939],"next_num":7,"trial_type":"ticket-choose","trial_index":81,"time_elapsed":1681400,"internal_node_id":"0.0-81.0"},{"result":163,"points":2,"place":1,"phase":1,"sequence":9,"prices":[174,186,176,217,181,187,163,166,153,209],"times":[935,630,531,591,675,879,989],"next_num":7,"trial_type":"ticket-choose","trial_index":82,"time_elapsed":1690186,"internal_node_id":"0.0-82.0"},{"result":165,"points":3,"place":0,"phase":1,"sequence":10,"prices":[193,165,175,181,185,224,180,199,218,184],"times":[905,955],"next_num":2,"trial_type":"ticket-choose","trial_index":83,"time_elapsed":1694578,"internal_node_id":"0.0-83.0"},{"result":155,"points":2,"place":1,"phase":1,"sequence":11,"prices":[201,207,155,158,156,165,167,135,178,177],"times":[743,554,1007],"next_num":3,"trial_type":"ticket-choose","trial_index":84,"time_elapsed":1699535,"internal_node_id":"0.0-84.0"},{"result":157,"points":3,"place":0,"phase":1,"sequence":12,"prices":[201,187,157,184,198,179,188,185,178,170],"times":[689,532,970],"next_num":3,"trial_type":"ticket-choose","trial_index":85,"time_elapsed":1704418,"internal_node_id":"0.0-85.0"},{"result":165,"points":2,"place":1,"phase":1,"sequence":13,"prices":[175,186,177,210,179,187,165,166,153,208],"times":[1130,586,513,583,579,581,1046],"next_num":7,"trial_type":"ticket-choose","trial_index":86,"time_elapsed":1713122,"internal_node_id":"0.0-86.0"},{"result":165,"points":3,"place":0,"phase":1,"sequence":14,"prices":[185,170,182,201,173,199,171,188,165,168],"times":[1182,560,576,601,608,640,873,871,1067],"next_num":9,"trial_type":"ticket-choose","trial_index":87,"time_elapsed":1724309,"internal_node_id":"0.0-87.0"},{"result":163,"points":2,"place":1,"phase":1,"sequence":15,"prices":[175,187,176,209,180,188,163,165,154,208],"times":[1310,506,552,583,579,600,1273],"next_num":7,"trial_type":"ticket-choose","trial_index":88,"time_elapsed":1732964,"internal_node_id":"0.0-88.0"},{"result":152,"points":3,"place":0,"phase":1,"sequence":16,"prices":[200,181,203,152,175,171,160,154,176,191],"times":[1217,590,584,928],"next_num":4,"trial_type":"ticket-choose","trial_index":89,"time_elapsed":1739053,"internal_node_id":"0.0-89.0"},{"result":167,"points":2,"place":1,"phase":1,"sequence":17,"prices":[174,186,178,217,181,188,167,168,208,156],"times":[715,642,649,566,552,570,1148],"next_num":7,"trial_type":"ticket-choose","trial_index":90,"time_elapsed":1747282,"internal_node_id":"0.0-90.0"},{"result":167,"points":1,"place":2,"phase":1,"sequence":18,"prices":[171,203,175,170,167,220,192,186,165,165],"times":[1397,545,4000,530,668],"next_num":5,"trial_type":"ticket-choose","trial_index":91,"time_elapsed":1757806,"internal_node_id":"0.0-91.0"},{"result":158,"points":2,"place":1,"phase":1,"sequence":19,"prices":[175,186,177,209,181,188,158,167,208,154],"times":[977,496,502,525,503,493,884],"next_num":7,"trial_type":"ticket-choose","trial_index":92,"time_elapsed":1765657,"internal_node_id":"0.0-92.0"},{"result":150,"points":3,"place":0,"phase":1,"sequence":20,"prices":[189,150,175,160,188,207,158,194,178,199],"times":[1008,752],"next_num":2,"trial_type":"ticket-choose","trial_index":93,"time_elapsed":1769710,"internal_node_id":"0.0-93.0"},{"result":167,"points":2,"place":1,"phase":1,"sequence":21,"prices":[175,185,178,215,181,186,167,168,208,156],"times":[1233,527,530,531,496,564,738],"next_num":7,"trial_type":"ticket-choose","trial_index":94,"time_elapsed":1777756,"internal_node_id":"0.0-94.0"},{"result":168,"points":1,"place":2,"phase":1,"sequence":22,"prices":[168,199,196,198,185,195,227,163,177,166],"times":[3113],"next_num":1,"trial_type":"ticket-choose","trial_index":95,"time_elapsed":1783222,"internal_node_id":"0.0-95.0"},{"result":158,"points":3,"place":0,"phase":1,"sequence":23,"prices":[210,184,226,193,215,158,199,175,176,208],"times":[877,435,546,501,496,830],"next_num":6,"trial_type":"ticket-choose","trial_index":96,"time_elapsed":1790187,"internal_node_id":"0.0-96.0"},{"result":164,"points":3,"place":0,"phase":1,"sequence":24,"prices":[212,192,188,184,167,193,189,164,176,170],"times":[847,497,415,467,439,654,565,1213],"next_num":8,"trial_type":"ticket-choose","trial_index":97,"time_elapsed":1799058,"internal_node_id":"0.0-97.0"},{"result":163,"points":2,"place":1,"phase":1,"sequence":25,"prices":[175,186,163,214,179,187,176,166,153,208],"times":[1295,536,747],"next_num":3,"trial_type":"ticket-choose","trial_index":98,"time_elapsed":1804137,"internal_node_id":"0.0-98.0"},{"result":165,"points":2,"place":1,"phase":1,"sequence":26,"prices":[175,187,165,209,180,188,177,166,154,208],"times":[1073,452,710],"next_num":3,"trial_type":"ticket-choose","trial_index":99,"time_elapsed":1808881,"internal_node_id":"0.0-99.0"},{"result":167,"points":2,"place":1,"phase":1,"sequence":27,"prices":[189,167,180,197,165,168,172,213,178,171],"times":[880,1782],"next_num":2,"trial_type":"ticket-choose","trial_index":100,"time_elapsed":1813768,"internal_node_id":"0.0-100.0"},{"result":165,"points":2,"place":1,"phase":1,"sequence":28,"prices":[175,186,165,214,179,187,177,166,153,208],"times":[752,532,792],"next_num":3,"trial_type":"ticket-choose","trial_index":101,"time_elapsed":1818401,"internal_node_id":"0.0-101.0"},{"result":168,"points":1,"place":2,"phase":1,"sequence":29,"prices":[168,154,172,185,195,144,184,211,177,227],"times":[3193],"next_num":1,"trial_type":"ticket-choose","trial_index":102,"time_elapsed":1823800,"internal_node_id":"0.0-102.0"},{"result":179,"points":1,"place":4,"phase":1,"sequence":30,"prices":[181,215,169,147,182,193,177,184,176,179],"times":[756,495,985,434,1248,532,758,655,660,1481],"next_num":10,"trial_type":"ticket-choose","trial_index":103,"time_elapsed":1837363,"internal_node_id":"0.0-103.0"},{"result":165,"points":2,"place":1,"phase":1,"sequence":31,"prices":[188,200,165,172,198,174,177,154,177,180],"times":[885,527,738],"next_num":3,"trial_type":"ticket-choose","trial_index":104,"time_elapsed":1842157,"internal_node_id":"0.0-104.0"},{"result":158,"points":2,"place":1,"phase":1,"sequence":32,"prices":[175,186,158,209,181,188,177,167,208,154],"times":[783,567,768],"next_num":3,"trial_type":"ticket-choose","trial_index":105,"time_elapsed":1846775,"internal_node_id":"0.0-105.0"},{"result":167,"points":2,"place":1,"phase":1,"sequence":33,"prices":[174,186,167,211,181,188,178,168,208,156],"times":[975,532,686],"next_num":3,"trial_type":"ticket-choose","trial_index":106,"time_elapsed":1851376,"internal_node_id":"0.0-106.0"},{"result":165,"points":3,"place":0,"phase":1,"sequence":34,"prices":[196,165,170,184,187,211,171,201,202,185],"times":[778,722],"next_num":2,"trial_type":"ticket-choose","trial_index":107,"time_elapsed":1855681,"internal_node_id":"0.0-107.0"},{"result":158,"points":2,"place":1,"phase":1,"sequence":35,"prices":[176,187,158,210,181,187,177,165,208,153],"times":[849,502,785],"next_num":3,"trial_type":"ticket-choose","trial_index":108,"time_elapsed":1860351,"internal_node_id":"0.0-108.0"},{"result":165,"points":2,"place":1,"phase":1,"sequence":36,"prices":[175,187,177,209,180,188,165,165,154,208],"times":[1102,468,464,499,471,463,1066],"next_num":7,"trial_type":"ticket-choose","trial_index":109,"time_elapsed":1868268,"internal_node_id":"0.0-109.0"},{"result":165,"points":2,"place":1,"phase":1,"sequence":37,"prices":[174,186,165,212,181,187,177,167,153,209],"times":[812,568,707],"next_num":3,"trial_type":"ticket-choose","trial_index":110,"time_elapsed":1872962,"internal_node_id":"0.0-110.0"},{"result":165,"points":2,"place":1,"phase":1,"sequence":38,"prices":[201,165,162,166,185,214,165,202,204,179],"times":[723,842],"next_num":2,"trial_type":"ticket-choose","trial_index":111,"time_elapsed":1876854,"internal_node_id":"0.0-111.0"},{"result":159,"points":1,"place":2,"phase":1,"sequence":39,"prices":[180,159,149,175,185,141,163,174,178,207],"times":[552,793],"next_num":2,"trial_type":"ticket-choose","trial_index":112,"time_elapsed":1880557,"internal_node_id":"0.0-112.0"},{"result":165,"points":3,"place":0,"phase":1,"sequence":40,"prices":[193,169,171,187,190,224,174,194,165,188],"times":[877,1688,560,470,529,751,597,527,1375],"next_num":9,"trial_type":"ticket-choose","trial_index":113,"time_elapsed":1891961,"internal_node_id":"0.0-113.0"},{"result":163,"points":2,"place":1,"phase":1,"sequence":41,"prices":[174,186,163,212,181,187,176,166,153,209],"times":[1136,559,745],"next_num":3,"trial_type":"ticket-choose","trial_index":114,"time_elapsed":1896983,"internal_node_id":"0.0-114.0"},{"result":148,"points":3,"place":0,"phase":1,"sequence":42,"prices":[181,155,148,161,168,187,172,199,176,194],"times":[748,467,861],"next_num":3,"trial_type":"ticket-choose","trial_index":115,"time_elapsed":1902196,"internal_node_id":"0.0-115.0"},{"result":165,"points":2,"place":1,"phase":1,"sequence":43,"prices":[200,165,165,173,182,207,161,202,204,180],"times":[976,850],"next_num":2,"trial_type":"ticket-choose","trial_index":116,"time_elapsed":1906310,"internal_node_id":"0.0-116.0"},{"result":168,"points":1,"place":2,"phase":1,"sequence":44,"prices":[183,182,192,168,173,205,167,187,165,170],"times":[643,528,549,776],"next_num":4,"trial_type":"ticket-choose","trial_index":117,"time_elapsed":1911554,"internal_node_id":"0.0-117.0"},{"result":165,"points":3,"place":0,"phase":1,"sequence":45,"prices":[192,165,171,178,188,217,172,195,197,186],"times":[624,1060],"next_num":2,"trial_type":"ticket-choose","trial_index":118,"time_elapsed":1915958,"internal_node_id":"0.0-118.0"},{"result":158,"points":2,"place":1,"phase":1,"sequence":46,"prices":[175,186,177,221,180,187,158,166,209,153],"times":[3025,501,463,534,528,527,809],"next_num":7,"trial_type":"ticket-choose","trial_index":119,"time_elapsed":1925725,"internal_node_id":"0.0-119.0"},{"result":163,"points":1,"place":2,"phase":1,"sequence":47,"prices":[183,163,185,180,166,148,160,186,176,184],"times":[623,786],"next_num":2,"trial_type":"ticket-choose","trial_index":120,"time_elapsed":1929521,"internal_node_id":"0.0-120.0"},{"result":163,"points":2,"place":1,"phase":1,"sequence":48,"prices":[175,187,163,209,180,188,176,165,154,208],"times":[819,529,806],"next_num":3,"trial_type":"ticket-choose","trial_index":121,"time_elapsed":1934539,"internal_node_id":"0.0-121.0"},{"result":163,"points":2,"place":1,"phase":1,"sequence":49,"prices":[175,186,176,210,179,187,163,166,153,208],"times":[1589,944,595,502,508,689,805],"next_num":7,"trial_type":"ticket-choose","trial_index":122,"time_elapsed":1944321,"internal_node_id":"0.0-122.0"},{"responses":[{"value":0,"offby":-1,"category":"$115 - $130","category_index":0},{"value":5,"offby":0,"category":"$131 - $145","category_index":1},{"value":11,"offby":-1,"category":"$146 - $160","category_index":2},{"value":31,"offby":9,"category":"$161 - $175","category_index":3},{"value":27,"offby":-7,"category":"$176 - $190","category_index":4},{"value":19,"offby":4,"category":"$191 - $205","category_index":5},{"value":7,"offby":-4,"category":"$206 - $220","category_index":6}],"phase":1,"number":1,"trial_type":"bar-choose","trial_index":123,"time_elapsed":1983246,"internal_node_id":"0.0-123.0"},{"special_comment":"Not really, I just went with my gut feelings.","trial_type":"special_sequence","trial_index":124,"time_elapsed":2020570,"internal_node_id":"0.0-124.0"},{"during":"Nothing","bonus":264,"trial_type":"final","trial_index":125,"time_elapsed":2057583,"internal_node_id":"0.0-125.0"}],"bonus":264}