{"start_time":"2017-05-24 15:28:26","end_time":"2017-05-24 15:50:09","points_phase0":99,"points_phase1":103,"phase_order":0,"age":30,"gender":"f","tries":1,"during":"Nothing","worker_id":"AHT8HA3JRWVGV","assignment_id":"3W8CV64QJ3SMFC4H0435XSG2GKU9H8","data":[{"rt":5693,"url":"\/christiane\/tickets\/utils\/consent.html","trial_type":"html","trial_index":0,"time_elapsed":5915,"internal_node_id":"0.0-0.0"},{"age":30,"gender":"f","trial_type":"age","trial_index":1,"time_elapsed":11923,"internal_node_id":"0.0-1.0"},{"worker_id":"AHT8HA3JRWVGV","trial_type":"workerid","trial_index":2,"time_elapsed":16041,"internal_node_id":"0.0-2.0"},{"tries":1,"trial_type":"instructions_check","trial_index":3,"time_elapsed":50378,"internal_node_id":"0.0-3.0"},{"rt":32698,"url":"\/christiane\/tickets\/utils\/start.html","trial_type":"html","trial_index":4,"time_elapsed":84240,"internal_node_id":"0.0-4.0"},{"trial_type":"number-animation","trial_index":5,"time_elapsed":108256,"internal_node_id":"0.0-5.0"},{"phase":0,"sequence":0,"avg":181,"response":175,"trial_type":"training_avg","trial_index":6,"time_elapsed":117376,"internal_node_id":"0.0-6.0"},{"trial_type":"number-animation","trial_index":7,"time_elapsed":127946,"internal_node_id":"0.0-7.0"},{"phase":0,"sequence":1,"avg":188,"response":185,"trial_type":"training_avg","trial_index":8,"time_elapsed":135136,"internal_node_id":"0.0-8.0"},{"trial_type":"number-animation","trial_index":9,"time_elapsed":146376,"internal_node_id":"0.0-9.0"},{"phase":0,"sequence":2,"avg":188,"response":191,"trial_type":"training_avg","trial_index":10,"time_elapsed":155048,"internal_node_id":"0.0-10.0"},{"trial_type":"number-animation","trial_index":11,"time_elapsed":206343,"internal_node_id":"0.0-11.0"},{"phase":0,"sequence":3,"avg":177,"response":177,"trial_type":"training_avg","trial_index":12,"time_elapsed":240679,"internal_node_id":"0.0-12.0"},{"trial_type":"number-animation","trial_index":13,"time_elapsed":251302,"internal_node_id":"0.0-13.0"},{"phase":0,"sequence":4,"avg":182,"response":172,"trial_type":"training_avg","trial_index":14,"time_elapsed":256911,"internal_node_id":"0.0-14.0"},{"responses":[{"value":0,"offby":-1,"category":"$115 - $130","category_index":0},{"value":0,"offby":-5,"category":"$131 - $145","category_index":1},{"value":0,"offby":-12,"category":"$146 - $160","category_index":2},{"value":23,"offby":1,"category":"$161 - $175","category_index":3},{"value":49,"offby":15,"category":"$176 - $190","category_index":4},{"value":28,"offby":13,"category":"$191 - $205","category_index":5},{"value":0,"offby":-11,"category":"$206 - $220","category_index":6}],"phase":0,"number":0,"trial_type":"bar-choose","trial_index":15,"time_elapsed":301465,"internal_node_id":"0.0-15.0"},{"rt":16864,"url":"\/christiane\/tickets\/utils\/testing.html","trial_type":"html","trial_index":16,"time_elapsed":319479,"internal_node_id":"0.0-16.0"},{"phase":0,"order":[17,35,13,10,47,18,37,33,8,40,15,25,12,38,21,29,34,28,31,32,3,45,44,42,11,14,16,20,48,46,4,0,43,23,30,24,7,36,49,26,19,27,2,39,9,41,1,22,5,6],"trial_type":"store_order","trial_index":17,"time_elapsed":320479,"internal_node_id":"0.0-17.0"},{"result":165,"points":2,"place":1,"phase":0,"sequence":-1,"prices":[184,180,224,165,181,199,185,193,218,146],"times":[2495,1189,998,1406],"next_num":4,"trial_type":"ticket-choose","trial_index":18,"time_elapsed":330670,"internal_node_id":"0.0-18.0"},{"rt":30824,"url":"\/christiane\/tickets\/utils\/testing_after.html","trial_type":"html","trial_index":19,"time_elapsed":362631,"internal_node_id":"0.0-19.0"},{"result":163,"points":2,"place":1,"phase":0,"sequence":0,"prices":[174,186,176,217,181,187,163,166,153,209],"times":[1655,965,1070,821,775,711,1597],"next_num":7,"trial_type":"ticket-choose","trial_index":20,"time_elapsed":374455,"internal_node_id":"0.0-20.0"},{"result":168,"points":1,"place":2,"phase":0,"sequence":1,"prices":[168,154,172,185,195,144,184,211,177,227],"times":[3326],"next_num":1,"trial_type":"ticket-choose","trial_index":21,"time_elapsed":380127,"internal_node_id":"0.0-21.0"},{"result":163,"points":2,"place":1,"phase":0,"sequence":2,"prices":[175,187,163,209,180,188,176,165,154,208],"times":[1060,607,1015],"next_num":3,"trial_type":"ticket-choose","trial_index":22,"time_elapsed":385672,"internal_node_id":"0.0-22.0"},{"result":165,"points":2,"place":1,"phase":0,"sequence":3,"prices":[175,187,177,209,180,188,165,165,154,208],"times":[1222,596,614,685,815,830,1262],"next_num":7,"trial_type":"ticket-choose","trial_index":23,"time_elapsed":395630,"internal_node_id":"0.0-23.0"},{"result":160,"points":1,"place":2,"phase":0,"sequence":4,"prices":[200,181,203,152,175,171,160,154,176,191],"times":[1279,669,615,611,721,647,997],"next_num":7,"trial_type":"ticket-choose","trial_index":24,"time_elapsed":404942,"internal_node_id":"0.0-24.0"},{"result":158,"points":2,"place":1,"phase":0,"sequence":5,"prices":[175,186,158,211,180,187,177,166,209,153],"times":[1188,670,990],"next_num":3,"trial_type":"ticket-choose","trial_index":25,"time_elapsed":410566,"internal_node_id":"0.0-25.0"},{"result":163,"points":2,"place":1,"phase":0,"sequence":6,"prices":[198,193,169,163,202,182,152,164,177,171],"times":[1123,671,783,1127],"next_num":4,"trial_type":"ticket-choose","trial_index":26,"time_elapsed":417294,"internal_node_id":"0.0-26.0"},{"result":165,"points":3,"place":0,"phase":0,"sequence":7,"prices":[183,182,192,168,173,205,167,187,165,170],"times":[1030,645,671,997,735,861,1046,983,943],"next_num":9,"trial_type":"ticket-choose","trial_index":27,"time_elapsed":429477,"internal_node_id":"0.0-27.0"},{"result":165,"points":2,"place":1,"phase":0,"sequence":8,"prices":[174,186,165,212,181,187,177,167,153,209],"times":[1345,855,998],"next_num":3,"trial_type":"ticket-choose","trial_index":28,"time_elapsed":435510,"internal_node_id":"0.0-28.0"},{"result":150,"points":3,"place":0,"phase":0,"sequence":9,"prices":[189,150,175,160,188,207,158,194,178,199],"times":[1952,1014],"next_num":2,"trial_type":"ticket-choose","trial_index":29,"time_elapsed":440957,"internal_node_id":"0.0-29.0"},{"result":163,"points":2,"place":1,"phase":0,"sequence":10,"prices":[175,186,176,210,179,187,163,166,153,208],"times":[1154,679,629,677,743,982,933],"next_num":7,"trial_type":"ticket-choose","trial_index":30,"time_elapsed":450165,"internal_node_id":"0.0-30.0"},{"result":165,"points":2,"place":1,"phase":0,"sequence":11,"prices":[201,165,162,166,185,214,165,202,204,179],"times":[1445,1310],"next_num":2,"trial_type":"ticket-choose","trial_index":31,"time_elapsed":455381,"internal_node_id":"0.0-31.0"},{"result":163,"points":2,"place":1,"phase":0,"sequence":12,"prices":[175,186,163,214,179,187,176,166,153,208],"times":[1059,678,943],"next_num":3,"trial_type":"ticket-choose","trial_index":32,"time_elapsed":460580,"internal_node_id":"0.0-32.0"},{"result":163,"points":3,"place":0,"phase":0,"sequence":13,"prices":[168,199,196,198,185,195,227,163,177,166],"times":[965,655,765,839,872,965,917,1047],"next_num":8,"trial_type":"ticket-choose","trial_index":33,"time_elapsed":471405,"internal_node_id":"0.0-33.0"},{"result":158,"points":2,"place":1,"phase":0,"sequence":14,"prices":[175,186,177,221,180,187,158,166,209,153],"times":[3006,678,639,669,646,668,1070],"next_num":7,"trial_type":"ticket-choose","trial_index":34,"time_elapsed":482300,"internal_node_id":"0.0-34.0"},{"result":165,"points":3,"place":0,"phase":0,"sequence":15,"prices":[185,170,182,201,173,199,171,188,165,168],"times":[1326,670,639,726,726,1014,997,1030,950],"next_num":9,"trial_type":"ticket-choose","trial_index":35,"time_elapsed":494477,"internal_node_id":"0.0-35.0"},{"result":155,"points":2,"place":1,"phase":0,"sequence":16,"prices":[181,155,148,161,168,187,172,199,176,194],"times":[3052,919],"next_num":2,"trial_type":"ticket-choose","trial_index":36,"time_elapsed":500684,"internal_node_id":"0.0-36.0"},{"result":185,"points":1,"place":4,"phase":0,"sequence":17,"prices":[196,165,170,184,187,211,171,201,202,185],"times":[1045,1054,615,623,693,750,815,1022,1262,766],"next_num":10,"trial_type":"ticket-choose","trial_index":37,"time_elapsed":513645,"internal_node_id":"0.0-37.0"},{"result":167,"points":1,"place":2,"phase":0,"sequence":18,"prices":[171,203,175,170,167,220,192,186,165,165],"times":[1198,740,798,1214,1271],"next_num":5,"trial_type":"ticket-choose","trial_index":38,"time_elapsed":521940,"internal_node_id":"0.0-38.0"},{"result":165,"points":3,"place":0,"phase":0,"sequence":19,"prices":[193,169,171,187,190,224,174,194,165,188],"times":[1161,918,781,669,678,926,799,823,926],"next_num":9,"trial_type":"ticket-choose","trial_index":39,"time_elapsed":533613,"internal_node_id":"0.0-39.0"},{"result":167,"points":2,"place":1,"phase":0,"sequence":20,"prices":[174,186,178,217,181,188,167,168,208,156],"times":[1781,640,597,823,694,702,941],"next_num":7,"trial_type":"ticket-choose","trial_index":40,"time_elapsed":543212,"internal_node_id":"0.0-40.0"},{"result":167,"points":2,"place":1,"phase":0,"sequence":21,"prices":[212,192,188,184,167,193,189,164,176,170],"times":[1079,814,854,702,983],"next_num":5,"trial_type":"ticket-choose","trial_index":41,"time_elapsed":550637,"internal_node_id":"0.0-41.0"},{"result":159,"points":1,"place":2,"phase":0,"sequence":22,"prices":[180,159,149,175,185,141,163,174,178,207],"times":[1029,984],"next_num":2,"trial_type":"ticket-choose","trial_index":42,"time_elapsed":563548,"internal_node_id":"0.0-42.0"},{"result":143,"points":3,"place":0,"phase":0,"sequence":23,"prices":[222,173,202,197,143,205,198,183,178,186],"times":[1197,622,671,671,1175],"next_num":5,"trial_type":"ticket-choose","trial_index":43,"time_elapsed":570820,"internal_node_id":"0.0-43.0"},{"result":165,"points":2,"place":1,"phase":0,"sequence":24,"prices":[174,186,177,217,181,187,165,166,153,209],"times":[1086,686,741,671,662,647,1237],"next_num":7,"trial_type":"ticket-choose","trial_index":44,"time_elapsed":580260,"internal_node_id":"0.0-44.0"},{"result":163,"points":2,"place":1,"phase":0,"sequence":25,"prices":[174,186,163,212,181,187,176,166,153,209],"times":[1302,638,1079],"next_num":3,"trial_type":"ticket-choose","trial_index":45,"time_elapsed":585765,"internal_node_id":"0.0-45.0"},{"result":163,"points":2,"place":1,"phase":0,"sequence":26,"prices":[175,187,176,209,180,188,163,165,154,208],"times":[1055,673,740,592,709,687,1215],"next_num":7,"trial_type":"ticket-choose","trial_index":46,"time_elapsed":596940,"internal_node_id":"0.0-46.0"},{"result":158,"points":2,"place":1,"phase":0,"sequence":27,"prices":[176,187,158,210,181,187,177,165,208,153],"times":[1493,647,975],"next_num":3,"trial_type":"ticket-choose","trial_index":47,"time_elapsed":602445,"internal_node_id":"0.0-47.0"},{"result":169,"points":2,"place":1,"phase":0,"sequence":28,"prices":[181,215,169,147,182,193,177,184,176,179],"times":[1254,654,991],"next_num":3,"trial_type":"ticket-choose","trial_index":48,"time_elapsed":607868,"internal_node_id":"0.0-48.0"},{"result":158,"points":3,"place":0,"phase":0,"sequence":29,"prices":[210,184,226,193,215,158,199,175,176,208],"times":[929,632,703,710,766,1063],"next_num":6,"trial_type":"ticket-choose","trial_index":49,"time_elapsed":615924,"internal_node_id":"0.0-49.0"},{"result":167,"points":2,"place":1,"phase":0,"sequence":30,"prices":[175,185,178,215,181,186,167,168,208,156],"times":[1093,614,686,656,671,711,1084],"next_num":7,"trial_type":"ticket-choose","trial_index":50,"time_elapsed":624653,"internal_node_id":"0.0-50.0"},{"result":168,"points":1,"place":2,"phase":0,"sequence":31,"prices":[174,186,167,211,181,188,178,168,208,156],"times":[1030,670,663,670,647,630,870,1023],"next_num":8,"trial_type":"ticket-choose","trial_index":51,"time_elapsed":634540,"internal_node_id":"0.0-51.0"},{"result":157,"points":3,"place":0,"phase":0,"sequence":32,"prices":[201,187,157,184,198,179,188,185,178,170],"times":[1088,743,1103],"next_num":3,"trial_type":"ticket-choose","trial_index":52,"time_elapsed":639973,"internal_node_id":"0.0-52.0"},{"result":158,"points":2,"place":1,"phase":0,"sequence":33,"prices":[176,187,177,225,181,187,158,165,208,153],"times":[1495,646,623,694,717,782,966],"next_num":7,"trial_type":"ticket-choose","trial_index":53,"time_elapsed":649316,"internal_node_id":"0.0-53.0"},{"result":165,"points":3,"place":0,"phase":0,"sequence":34,"prices":[191,172,169,175,182,203,170,195,165,176],"times":[1262,686,1317,685,695,678,670,1054,1046],"next_num":9,"trial_type":"ticket-choose","trial_index":54,"time_elapsed":661284,"internal_node_id":"0.0-54.0"},{"result":184,"points":1,"place":4,"phase":0,"sequence":35,"prices":[193,165,175,181,185,224,180,199,218,184],"times":[1662,1206,607,597,646,703,798,779,803,803],"next_num":10,"trial_type":"ticket-choose","trial_index":55,"time_elapsed":674228,"internal_node_id":"0.0-55.0"},{"result":165,"points":2,"place":1,"phase":0,"sequence":36,"prices":[175,187,165,209,180,188,177,166,154,208],"times":[1269,638,892],"next_num":3,"trial_type":"ticket-choose","trial_index":56,"time_elapsed":679427,"internal_node_id":"0.0-56.0"},{"result":165,"points":2,"place":1,"phase":0,"sequence":37,"prices":[188,200,165,172,198,174,177,154,177,180],"times":[1574,669,960],"next_num":3,"trial_type":"ticket-choose","trial_index":57,"time_elapsed":684995,"internal_node_id":"0.0-57.0"},{"result":163,"points":1,"place":2,"phase":0,"sequence":38,"prices":[183,163,185,180,166,148,160,186,176,184],"times":[1063,966],"next_num":2,"trial_type":"ticket-choose","trial_index":58,"time_elapsed":689411,"internal_node_id":"0.0-58.0"},{"result":161,"points":3,"place":0,"phase":0,"sequence":39,"prices":[200,165,165,173,182,207,161,202,204,180],"times":[971,920,957,711,759,725,1167],"next_num":7,"trial_type":"ticket-choose","trial_index":59,"time_elapsed":698931,"internal_node_id":"0.0-59.0"},{"result":158,"points":2,"place":1,"phase":0,"sequence":40,"prices":[175,186,158,209,181,188,177,167,208,154],"times":[1796,663,1054],"next_num":3,"trial_type":"ticket-choose","trial_index":60,"time_elapsed":705075,"internal_node_id":"0.0-60.0"},{"result":186,"points":1,"place":4,"phase":0,"sequence":41,"prices":[192,165,171,178,188,217,172,195,197,186],"times":[2396,1318,669,695,646,654,711,879,855,702],"next_num":10,"trial_type":"ticket-choose","trial_index":61,"time_elapsed":719298,"internal_node_id":"0.0-61.0"},{"result":169,"points":1,"place":2,"phase":0,"sequence":42,"prices":[175,186,167,225,179,187,178,169,209,153],"times":[1207,671,925,631,574,598,613,1726],"next_num":8,"trial_type":"ticket-choose","trial_index":62,"time_elapsed":730036,"internal_node_id":"0.0-62.0"},{"result":165,"points":3,"place":0,"phase":0,"sequence":43,"prices":[189,167,180,197,165,168,172,213,178,171],"times":[1910,1079,663,695,1142],"next_num":5,"trial_type":"ticket-choose","trial_index":63,"time_elapsed":738364,"internal_node_id":"0.0-63.0"},{"result":165,"points":2,"place":1,"phase":0,"sequence":44,"prices":[175,186,177,210,179,187,165,166,153,208],"times":[2301,750,591,669,679,701,1000],"next_num":7,"trial_type":"ticket-choose","trial_index":64,"time_elapsed":748502,"internal_node_id":"0.0-64.0"},{"result":155,"points":2,"place":1,"phase":0,"sequence":45,"prices":[201,207,155,158,156,165,167,135,178,177],"times":[1346,694,1031],"next_num":3,"trial_type":"ticket-choose","trial_index":65,"time_elapsed":754107,"internal_node_id":"0.0-65.0"},{"result":168,"points":1,"place":2,"phase":0,"sequence":46,"prices":[175,185,167,224,181,186,178,168,208,156],"times":[1885,766,1591,622,719,661,639,974],"next_num":8,"trial_type":"ticket-choose","trial_index":66,"time_elapsed":765531,"internal_node_id":"0.0-66.0"},{"result":158,"points":2,"place":1,"phase":0,"sequence":47,"prices":[175,186,177,209,181,188,158,167,208,154],"times":[4974,662,622,726,799,654,975],"next_num":7,"trial_type":"ticket-choose","trial_index":67,"time_elapsed":778739,"internal_node_id":"0.0-67.0"},{"result":167,"points":2,"place":1,"phase":0,"sequence":48,"prices":[175,186,178,212,179,187,167,169,209,153],"times":[1822,749,654,630,614,678,976],"next_num":7,"trial_type":"ticket-choose","trial_index":68,"time_elapsed":788355,"internal_node_id":"0.0-68.0"},{"result":166,"points":1,"place":2,"phase":0,"sequence":49,"prices":[175,186,165,214,179,187,177,166,153,208],"times":[2581,655,638,718,693,662,694,894],"next_num":8,"trial_type":"ticket-choose","trial_index":69,"time_elapsed":799836,"internal_node_id":"0.0-69.0"},{"responses":[{"value":0,"offby":-1,"category":"$115 - $130","category_index":0},{"value":4,"offby":-1,"category":"$131 - $145","category_index":1},{"value":8,"offby":-4,"category":"$146 - $160","category_index":2},{"value":13,"offby":-9,"category":"$161 - $175","category_index":3},{"value":35,"offby":1,"category":"$176 - $190","category_index":4},{"value":30,"offby":15,"category":"$191 - $205","category_index":5},{"value":10,"offby":-1,"category":"$206 - $220","category_index":6}],"phase":1,"number":1,"trial_type":"bar-choose","trial_index":70,"time_elapsed":823077,"internal_node_id":"0.0-70.0"},{"rt":17414,"url":"\/christiane\/tickets\/utils\/testing2.html","trial_type":"point_update","trial_index":71,"time_elapsed":841788,"internal_node_id":"0.0-71.0"},{"phase":1,"order":[2,45,40,22,41,32,34,6,26,48,31,16,25,20,14,27,35,44,37,33,7,38,10,49,24,12,11,29,4,15,36,0,8,42,18,47,3,9,28,43,17,23,5,1,19,30,21,39,46,13],"trial_type":"store_order","trial_index":72,"time_elapsed":842788,"internal_node_id":"0.0-72.0"},{"result":169,"points":1,"place":2,"phase":1,"sequence":0,"prices":[167,175,186,225,178,179,187,169,209,153],"times":[1597,646,599,607,647,582,614,983],"next_num":8,"trial_type":"ticket-choose","trial_index":73,"time_elapsed":852619,"internal_node_id":"0.0-73.0"},{"result":167,"points":2,"place":1,"phase":1,"sequence":1,"prices":[199,191,188,174,167,193,189,164,176,170],"times":[981,541,647,726,1134],"next_num":5,"trial_type":"ticket-choose","trial_index":74,"time_elapsed":860698,"internal_node_id":"0.0-74.0"},{"result":150,"points":3,"place":0,"phase":1,"sequence":2,"prices":[190,150,175,161,188,207,157,194,178,199],"times":[36737,943],"next_num":2,"trial_type":"ticket-choose","trial_index":75,"time_elapsed":900721,"internal_node_id":"0.0-75.0"},{"result":158,"points":2,"place":1,"phase":1,"sequence":3,"prices":[177,175,186,209,158,181,188,167,208,154],"times":[1013,605,655,598,992],"next_num":5,"trial_type":"ticket-choose","trial_index":76,"time_elapsed":907555,"internal_node_id":"0.0-76.0"},{"result":155,"points":2,"place":1,"phase":1,"sequence":4,"prices":[200,207,155,158,156,168,167,135,178,177],"times":[1166,638,887],"next_num":3,"trial_type":"ticket-choose","trial_index":77,"time_elapsed":912596,"internal_node_id":"0.0-77.0"},{"result":165,"points":2,"place":1,"phase":1,"sequence":5,"prices":[193,174,224,165,187,190,224,161,194,195],"times":[1244,1478,622,926],"next_num":4,"trial_type":"ticket-choose","trial_index":78,"time_elapsed":919426,"internal_node_id":"0.0-78.0"},{"result":156,"points":2,"place":1,"phase":1,"sequence":6,"prices":[180,156,149,160,168,186,172,198,176,195],"times":[1046,839],"next_num":2,"trial_type":"ticket-choose","trial_index":79,"time_elapsed":923571,"internal_node_id":"0.0-79.0"},{"result":165,"points":2,"place":1,"phase":1,"sequence":7,"prices":[165,175,186,214,177,179,187,166,153,208],"times":[1465],"next_num":1,"trial_type":"ticket-choose","trial_index":80,"time_elapsed":926922,"internal_node_id":"0.0-80.0"},{"result":169,"points":1,"place":3,"phase":1,"sequence":8,"prices":[200,173,182,169,207,165,152,202,161,204],"times":[878,614,606,966],"next_num":4,"trial_type":"ticket-choose","trial_index":81,"time_elapsed":932651,"internal_node_id":"0.0-81.0"},{"result":169,"points":2,"place":1,"phase":1,"sequence":9,"prices":[181,214,169,147,182,193,178,184,176,179],"times":[1228,775,957],"next_num":3,"trial_type":"ticket-choose","trial_index":82,"time_elapsed":937994,"internal_node_id":"0.0-82.0"},{"result":165,"points":1,"place":2,"phase":1,"sequence":10,"prices":[171,169,186,165,163,167,220,148,187,165],"times":[851,1247,647,893],"next_num":4,"trial_type":"ticket-choose","trial_index":83,"time_elapsed":944195,"internal_node_id":"0.0-83.0"},{"result":163,"points":2,"place":1,"phase":1,"sequence":11,"prices":[176,187,179,209,163,180,188,165,154,208],"times":[1090,765,671,637,886],"next_num":5,"trial_type":"ticket-choose","trial_index":84,"time_elapsed":950946,"internal_node_id":"0.0-84.0"},{"result":166,"points":1,"place":3,"phase":1,"sequence":12,"prices":[201,204,179,166,185,165,214,156,202,165],"times":[2355,607,613,998],"next_num":4,"trial_type":"ticket-choose","trial_index":85,"time_elapsed":958099,"internal_node_id":"0.0-85.0"},{"result":158,"points":2,"place":1,"phase":1,"sequence":13,"prices":[158,176,187,210,177,181,187,165,208,153],"times":[1480],"next_num":1,"trial_type":"ticket-choose","trial_index":86,"time_elapsed":961842,"internal_node_id":"0.0-86.0"},{"result":153,"points":3,"place":0,"phase":1,"sequence":14,"prices":[163,174,186,212,176,181,187,166,153,209],"times":[1145,613,663,655,583,677,679,1677,960],"next_num":9,"trial_type":"ticket-choose","trial_index":87,"time_elapsed":973249,"internal_node_id":"0.0-87.0"},{"result":165,"points":3,"place":0,"phase":1,"sequence":15,"prices":[192,172,171,178,188,165,217,168,195,197],"times":[1158,551,528,558,583,918],"next_num":6,"trial_type":"ticket-choose","trial_index":88,"time_elapsed":980617,"internal_node_id":"0.0-88.0"},{"result":167,"points":1,"place":2,"phase":1,"sequence":16,"prices":[167,153,172,185,195,143,184,211,177,227],"times":[4421],"next_num":1,"trial_type":"ticket-choose","trial_index":89,"time_elapsed":987169,"internal_node_id":"0.0-89.0"},{"result":159,"points":1,"place":2,"phase":1,"sequence":17,"prices":[181,159,149,175,185,151,163,174,178,207],"times":[974,838],"next_num":2,"trial_type":"ticket-choose","trial_index":90,"time_elapsed":991130,"internal_node_id":"0.0-90.0"},{"result":169,"points":1,"place":3,"phase":1,"sequence":18,"prices":[199,193,169,165,202,182,151,164,176,171],"times":[967,604,879],"next_num":3,"trial_type":"ticket-choose","trial_index":91,"time_elapsed":995904,"internal_node_id":"0.0-91.0"},{"result":165,"points":2,"place":1,"phase":1,"sequence":19,"prices":[183,179,188,165,168,173,205,159,187,191],"times":[977,686,590,1055],"next_num":4,"trial_type":"ticket-choose","trial_index":92,"time_elapsed":1002009,"internal_node_id":"0.0-92.0"},{"result":167,"points":1,"place":2,"phase":1,"sequence":20,"prices":[165,175,187,209,177,180,188,167,154,208],"times":[1395,750,575,637,632,664,654,1629],"next_num":8,"trial_type":"ticket-choose","trial_index":93,"time_elapsed":1012473,"internal_node_id":"0.0-93.0"},{"result":163,"points":3,"place":0,"phase":1,"sequence":21,"prices":[163,199,196,199,185,195,227,163,177,166],"times":[1390,607,694,622,655,677,662,1198],"next_num":8,"trial_type":"ticket-choose","trial_index":94,"time_elapsed":1022520,"internal_node_id":"0.0-94.0"},{"result":165,"points":2,"place":1,"phase":1,"sequence":22,"prices":[177,175,187,209,165,180,188,165,154,208],"times":[1207,708,590,630,1326],"next_num":5,"trial_type":"ticket-choose","trial_index":95,"time_elapsed":1029761,"internal_node_id":"0.0-95.0"},{"result":148,"points":3,"place":0,"phase":1,"sequence":23,"prices":[173,163,185,181,166,148,160,185,176,184],"times":[3446,1109,640,560,1054,893],"next_num":6,"trial_type":"ticket-choose","trial_index":96,"time_elapsed":1040538,"internal_node_id":"0.0-96.0"},{"result":165,"points":3,"place":0,"phase":1,"sequence":24,"prices":[193,181,175,181,185,165,224,199,218,184],"times":[1122,638,679,614,615,927],"next_num":6,"trial_type":"ticket-choose","trial_index":97,"time_elapsed":1048161,"internal_node_id":"0.0-97.0"},{"result":153,"points":3,"place":0,"phase":1,"sequence":25,"prices":[163,175,186,214,176,179,187,166,153,208],"times":[1458,606,703,638,679,631,701,960,965],"next_num":9,"trial_type":"ticket-choose","trial_index":98,"time_elapsed":1059098,"internal_node_id":"0.0-98.0"},{"result":153,"points":3,"place":0,"phase":1,"sequence":26,"prices":[177,174,186,217,165,181,187,166,153,209],"times":[1106,806,830,678,774,648,604,1104,926],"next_num":9,"trial_type":"ticket-choose","trial_index":99,"time_elapsed":1070859,"internal_node_id":"0.0-99.0"},{"result":165,"points":1,"place":2,"phase":1,"sequence":27,"prices":[185,179,191,165,161,173,199,150,188,168],"times":[1042,730,662,870],"next_num":4,"trial_type":"ticket-choose","trial_index":100,"time_elapsed":1076697,"internal_node_id":"0.0-100.0"},{"result":156,"points":3,"place":0,"phase":1,"sequence":28,"prices":[178,175,185,215,167,181,186,168,208,156],"times":[949,663,654,686,1336,597,638,1047,769,679],"next_num":10,"trial_type":"ticket-choose","trial_index":101,"time_elapsed":1088969,"internal_node_id":"0.0-101.0"},{"result":163,"points":2,"place":1,"phase":1,"sequence":29,"prices":[176,175,186,210,163,179,187,166,153,208],"times":[1341,718,742,719,1000],"next_num":5,"trial_type":"ticket-choose","trial_index":102,"time_elapsed":1096281,"internal_node_id":"0.0-102.0"},{"result":165,"points":2,"place":1,"phase":1,"sequence":30,"prices":[187,201,165,172,196,174,178,154,172,180],"times":[1125,1663,1196],"next_num":3,"trial_type":"ticket-choose","trial_index":103,"time_elapsed":1102634,"internal_node_id":"0.0-103.0"},{"result":168,"points":1,"place":2,"phase":1,"sequence":31,"prices":[167,174,186,211,178,181,188,168,208,156],"times":[1080,856,774,679,640,688,679,966],"next_num":8,"trial_type":"ticket-choose","trial_index":104,"time_elapsed":1112402,"internal_node_id":"0.0-104.0"},{"result":153,"points":3,"place":0,"phase":1,"sequence":32,"prices":[165,174,186,212,177,181,187,166,153,209],"times":[3892,573,607,628,655,639,671,766,935],"next_num":9,"trial_type":"ticket-choose","trial_index":105,"time_elapsed":1125466,"internal_node_id":"0.0-105.0"},{"result":186,"points":1,"place":4,"phase":1,"sequence":33,"prices":[220,173,201,197,169,205,198,183,178,186],"times":[1111,672,596,678,805,657,670,791,727,1182],"next_num":10,"trial_type":"ticket-choose","trial_index":106,"time_elapsed":1137617,"internal_node_id":"0.0-106.0"},{"result":158,"points":2,"place":1,"phase":1,"sequence":34,"prices":[158,175,186,211,177,180,187,166,209,153],"times":[929],"next_num":1,"trial_type":"ticket-choose","trial_index":107,"time_elapsed":1140401,"internal_node_id":"0.0-107.0"},{"result":152,"points":3,"place":0,"phase":1,"sequence":35,"prices":[200,180,203,152,175,170,160,154,176,191],"times":[990,622,678,1029],"next_num":4,"trial_type":"ticket-choose","trial_index":108,"time_elapsed":1146417,"internal_node_id":"0.0-108.0"},{"result":167,"points":2,"place":1,"phase":1,"sequence":36,"prices":[178,174,186,217,167,181,188,168,208,156],"times":[1221,678,695,687,950],"next_num":5,"trial_type":"ticket-choose","trial_index":109,"time_elapsed":1153576,"internal_node_id":"0.0-109.0"},{"result":165,"points":2,"place":1,"phase":1,"sequence":37,"prices":[177,175,186,210,165,179,187,166,153,208],"times":[3686,750,630,622,871],"next_num":5,"trial_type":"ticket-choose","trial_index":110,"time_elapsed":1162864,"internal_node_id":"0.0-110.0"},{"result":165,"points":3,"place":0,"phase":1,"sequence":38,"prices":[196,171,170,184,187,165,211,169,201,202],"times":[1367,679,932,710,647,958],"next_num":6,"trial_type":"ticket-choose","trial_index":111,"time_elapsed":1171265,"internal_node_id":"0.0-111.0"},{"result":157,"points":3,"place":0,"phase":1,"sequence":39,"prices":[201,187,157,184,198,179,188,185,178,170],"times":[1014,636,1007],"next_num":3,"trial_type":"ticket-choose","trial_index":112,"time_elapsed":1176160,"internal_node_id":"0.0-112.0"},{"result":163,"points":2,"place":1,"phase":1,"sequence":40,"prices":[176,186,178,217,163,181,187,166,153,209],"times":[2486,863,974,670,1182],"next_num":5,"trial_type":"ticket-choose","trial_index":113,"time_elapsed":1185152,"internal_node_id":"0.0-113.0"},{"result":158,"points":2,"place":1,"phase":1,"sequence":41,"prices":[177,176,187,225,158,181,187,165,208,153],"times":[1181,686,630,694,1022],"next_num":5,"trial_type":"ticket-choose","trial_index":114,"time_elapsed":1192201,"internal_node_id":"0.0-114.0"},{"result":167,"points":2,"place":1,"phase":1,"sequence":42,"prices":[178,175,186,212,167,179,187,169,209,153],"times":[886,734,694,669,926],"next_num":5,"trial_type":"ticket-choose","trial_index":115,"time_elapsed":1198792,"internal_node_id":"0.0-115.0"},{"result":168,"points":1,"place":2,"phase":1,"sequence":43,"prices":[167,175,185,224,178,181,186,168,208,156],"times":[1095,656,571,718,638,606,645,1144],"next_num":8,"trial_type":"ticket-choose","trial_index":116,"time_elapsed":1208319,"internal_node_id":"0.0-116.0"},{"result":158,"points":2,"place":1,"phase":1,"sequence":44,"prices":[158,175,186,209,177,181,188,167,208,154],"times":[1958],"next_num":1,"trial_type":"ticket-choose","trial_index":117,"time_elapsed":1212255,"internal_node_id":"0.0-117.0"},{"result":165,"points":2,"place":1,"phase":1,"sequence":45,"prices":[191,170,182,165,175,182,203,157,195,200],"times":[1015,614,582,983],"next_num":4,"trial_type":"ticket-choose","trial_index":118,"time_elapsed":1218105,"internal_node_id":"0.0-118.0"},{"result":158,"points":2,"place":1,"phase":1,"sequence":46,"prices":[177,175,186,221,158,180,187,166,209,153],"times":[1068,1272,629,694,935],"next_num":5,"trial_type":"ticket-choose","trial_index":119,"time_elapsed":1225463,"internal_node_id":"0.0-119.0"},{"result":167,"points":2,"place":1,"phase":1,"sequence":47,"prices":[189,167,180,197,165,168,172,213,178,171],"times":[1082,912],"next_num":2,"trial_type":"ticket-choose","trial_index":120,"time_elapsed":1229999,"internal_node_id":"0.0-120.0"},{"result":158,"points":3,"place":0,"phase":1,"sequence":48,"prices":[214,184,226,192,215,158,199,175,176,208],"times":[822,663,799,680,724,1071],"next_num":6,"trial_type":"ticket-choose","trial_index":121,"time_elapsed":1237928,"internal_node_id":"0.0-121.0"},{"result":154,"points":3,"place":0,"phase":1,"sequence":49,"prices":[163,175,187,209,176,180,188,165,154,208],"times":[1340,646,630,631,639,719,757,1032,1318],"next_num":9,"trial_type":"ticket-choose","trial_index":122,"time_elapsed":1249431,"internal_node_id":"0.0-122.0"},{"responses":[{"value":0,"offby":-1,"category":"$115 - $130","category_index":0},{"value":7,"offby":2,"category":"$131 - $145","category_index":1},{"value":18,"offby":6,"category":"$146 - $160","category_index":2},{"value":29,"offby":7,"category":"$161 - $175","category_index":3},{"value":38,"offby":4,"category":"$176 - $190","category_index":4},{"value":8,"offby":-7,"category":"$191 - $205","category_index":5},{"value":0,"offby":-11,"category":"$206 - $220","category_index":6}],"phase":1,"number":1,"trial_type":"bar-choose","trial_index":123,"time_elapsed":1276666,"internal_node_id":"0.0-123.0"},{"special_comment":"no","trial_type":"special_sequence","trial_index":124,"time_elapsed":1281872,"internal_node_id":"0.0-124.0"},{"during":"Nothing","bonus":268,"trial_type":"final","trial_index":125,"time_elapsed":1301017,"internal_node_id":"0.0-125.0"}],"bonus":268}