{"start_time":"2017-05-24 12:25:32","end_time":"2017-05-24 12:47:48","points_phase0":99,"points_phase1":107,"phase_order":1,"age":36,"gender":"f","tries":1,"during":"Nothing","worker_id":"AK7LGB1QOGA1P","assignment_id":"3R9WASFE209H77VO9C947V6IF7PFZD","data":[{"rt":37482,"url":"\/christiane\/tickets\/utils\/consent.html","trial_type":"html","trial_index":0,"time_elapsed":37647,"internal_node_id":"0.0-0.0"},{"age":36,"gender":"f","trial_type":"age","trial_index":1,"time_elapsed":44436,"internal_node_id":"0.0-1.0"},{"worker_id":"AK7LGB1QOGA1P","trial_type":"workerid","trial_index":2,"time_elapsed":55786,"internal_node_id":"0.0-2.0"},{"tries":1,"trial_type":"instructions_check","trial_index":3,"time_elapsed":87054,"internal_node_id":"0.0-3.0"},{"rt":14188,"url":"\/christiane\/tickets\/utils\/start.html","trial_type":"html","trial_index":4,"time_elapsed":102444,"internal_node_id":"0.0-4.0"},{"trial_type":"number-animation","trial_index":5,"time_elapsed":212182,"internal_node_id":"0.0-5.0"},{"phase":0,"sequence":0,"avg":181,"response":180,"trial_type":"training_avg","trial_index":6,"time_elapsed":227947,"internal_node_id":"0.0-6.0"},{"trial_type":"number-animation","trial_index":7,"time_elapsed":285145,"internal_node_id":"0.0-7.0"},{"phase":0,"sequence":1,"avg":188,"response":188,"trial_type":"training_avg","trial_index":8,"time_elapsed":302490,"internal_node_id":"0.0-8.0"},{"trial_type":"number-animation","trial_index":9,"time_elapsed":351108,"internal_node_id":"0.0-9.0"},{"phase":0,"sequence":2,"avg":188,"response":188,"trial_type":"training_avg","trial_index":10,"time_elapsed":363338,"internal_node_id":"0.0-10.0"},{"trial_type":"number-animation","trial_index":11,"time_elapsed":415656,"internal_node_id":"0.0-11.0"},{"phase":0,"sequence":3,"avg":177,"response":177,"trial_type":"training_avg","trial_index":12,"time_elapsed":426915,"internal_node_id":"0.0-12.0"},{"trial_type":"number-animation","trial_index":13,"time_elapsed":480059,"internal_node_id":"0.0-13.0"},{"phase":0,"sequence":4,"avg":182,"response":181,"trial_type":"training_avg","trial_index":14,"time_elapsed":493420,"internal_node_id":"0.0-14.0"},{"responses":[{"value":0,"offby":-1,"category":"$115 - $130","category_index":0},{"value":0,"offby":-5,"category":"$131 - $145","category_index":1},{"value":5,"offby":-7,"category":"$146 - $160","category_index":2},{"value":20,"offby":-2,"category":"$161 - $175","category_index":3},{"value":75,"offby":41,"category":"$176 - $190","category_index":4},{"value":0,"offby":-15,"category":"$191 - $205","category_index":5},{"value":0,"offby":-11,"category":"$206 - $220","category_index":6}],"phase":0,"number":0,"trial_type":"bar-choose","trial_index":15,"time_elapsed":559736,"internal_node_id":"0.0-15.0"},{"rt":12673,"url":"\/christiane\/tickets\/utils\/testing.html","trial_type":"html","trial_index":16,"time_elapsed":573594,"internal_node_id":"0.0-16.0"},{"phase":0,"order":[10,18,32,49,29,48,11,3,1,7,20,28,17,31,30,9,2,21,26,14,45,16,41,33,46,4,5,36,44,24,19,42,39,40,38,8,37,23,13,35,47,6,12,25,34,0,15,22,43,27],"trial_type":"store_order","trial_index":17,"time_elapsed":574595,"internal_node_id":"0.0-17.0"},{"result":165,"points":2,"place":1,"phase":0,"sequence":-1,"prices":[184,180,224,165,181,199,185,193,218,146],"times":[2804,1253,1224,1496],"next_num":4,"trial_type":"ticket-choose","trial_index":18,"time_elapsed":585052,"internal_node_id":"0.0-18.0"},{"rt":16646,"url":"\/christiane\/tickets\/utils\/testing_after.html","trial_type":"html","trial_index":19,"time_elapsed":602873,"internal_node_id":"0.0-19.0"},{"result":163,"points":2,"place":1,"phase":0,"sequence":0,"prices":[176,187,179,209,163,180,188,165,154,208],"times":[1344,784,863,871,1186],"next_num":5,"trial_type":"ticket-choose","trial_index":20,"time_elapsed":612574,"internal_node_id":"0.0-20.0"},{"result":163,"points":2,"place":1,"phase":0,"sequence":1,"prices":[163,175,187,209,176,180,188,165,154,208],"times":[1460],"next_num":1,"trial_type":"ticket-choose","trial_index":21,"time_elapsed":617000,"internal_node_id":"0.0-21.0"},{"result":165,"points":2,"place":1,"phase":0,"sequence":2,"prices":[165,175,187,209,177,180,188,167,154,208],"times":[928],"next_num":1,"trial_type":"ticket-choose","trial_index":22,"time_elapsed":620779,"internal_node_id":"0.0-22.0"},{"result":150,"points":3,"place":0,"phase":0,"sequence":3,"prices":[190,150,175,161,188,207,157,194,178,199],"times":[1059,909],"next_num":2,"trial_type":"ticket-choose","trial_index":23,"time_elapsed":626162,"internal_node_id":"0.0-23.0"},{"result":169,"points":3,"place":0,"phase":0,"sequence":4,"prices":[220,173,201,197,169,205,198,183,178,186],"times":[998,1341,662,677,1062],"next_num":5,"trial_type":"ticket-choose","trial_index":24,"time_elapsed":634636,"internal_node_id":"0.0-24.0"},{"result":152,"points":3,"place":0,"phase":0,"sequence":5,"prices":[200,180,203,152,175,170,160,154,176,191],"times":[977,614,638,885],"next_num":4,"trial_type":"ticket-choose","trial_index":25,"time_elapsed":641083,"internal_node_id":"0.0-25.0"},{"result":163,"points":2,"place":1,"phase":0,"sequence":6,"prices":[176,186,178,217,163,181,187,166,153,209],"times":[1407,578,601,608,915],"next_num":5,"trial_type":"ticket-choose","trial_index":26,"time_elapsed":648702,"internal_node_id":"0.0-26.0"},{"result":165,"points":2,"place":1,"phase":0,"sequence":7,"prices":[183,179,188,165,168,173,205,159,187,191],"times":[889,555,561,772],"next_num":4,"trial_type":"ticket-choose","trial_index":27,"time_elapsed":654523,"internal_node_id":"0.0-27.0"},{"result":167,"points":2,"place":1,"phase":0,"sequence":8,"prices":[199,191,188,174,167,193,189,164,176,170],"times":[836,607,687,971,869],"next_num":5,"trial_type":"ticket-choose","trial_index":28,"time_elapsed":661678,"internal_node_id":"0.0-28.0"},{"result":163,"points":2,"place":1,"phase":0,"sequence":9,"prices":[163,174,186,212,176,181,187,166,153,209],"times":[906],"next_num":1,"trial_type":"ticket-choose","trial_index":29,"time_elapsed":665102,"internal_node_id":"0.0-29.0"},{"result":163,"points":2,"place":1,"phase":0,"sequence":10,"prices":[176,175,186,210,163,179,187,166,153,208],"times":[673,787,647,600,816],"next_num":5,"trial_type":"ticket-choose","trial_index":30,"time_elapsed":671957,"internal_node_id":"0.0-30.0"},{"result":165,"points":2,"place":1,"phase":0,"sequence":11,"prices":[177,175,187,209,165,180,188,165,154,208],"times":[692,713,608,717,909],"next_num":5,"trial_type":"ticket-choose","trial_index":31,"time_elapsed":678957,"internal_node_id":"0.0-31.0"},{"result":158,"points":3,"place":0,"phase":0,"sequence":12,"prices":[214,184,226,192,215,158,199,175,176,208],"times":[783,592,584,701,638,1041],"next_num":6,"trial_type":"ticket-choose","trial_index":32,"time_elapsed":686924,"internal_node_id":"0.0-32.0"},{"result":165,"points":3,"place":0,"phase":0,"sequence":13,"prices":[193,181,175,181,185,165,224,199,218,184],"times":[875,823,595,584,593,869],"next_num":6,"trial_type":"ticket-choose","trial_index":33,"time_elapsed":694665,"internal_node_id":"0.0-33.0"},{"result":163,"points":1,"place":2,"phase":0,"sequence":14,"prices":[173,163,185,181,166,148,160,185,176,184],"times":[884,839],"next_num":2,"trial_type":"ticket-choose","trial_index":34,"time_elapsed":698768,"internal_node_id":"0.0-34.0"},{"result":163,"points":2,"place":1,"phase":0,"sequence":15,"prices":[163,175,186,214,176,179,187,166,153,208],"times":[1013],"next_num":1,"trial_type":"ticket-choose","trial_index":35,"time_elapsed":702107,"internal_node_id":"0.0-35.0"},{"result":165,"points":2,"place":1,"phase":0,"sequence":16,"prices":[177,174,186,217,165,181,187,166,153,209],"times":[697,615,879,616,855],"next_num":5,"trial_type":"ticket-choose","trial_index":36,"time_elapsed":709240,"internal_node_id":"0.0-36.0"},{"result":158,"points":2,"place":1,"phase":0,"sequence":17,"prices":[158,176,187,210,177,181,187,165,208,153],"times":[896],"next_num":1,"trial_type":"ticket-choose","trial_index":37,"time_elapsed":712602,"internal_node_id":"0.0-37.0"},{"result":165,"points":1,"place":2,"phase":0,"sequence":18,"prices":[185,179,191,165,161,173,199,150,188,168],"times":[789,592,585,1140],"next_num":4,"trial_type":"ticket-choose","trial_index":38,"time_elapsed":718523,"internal_node_id":"0.0-38.0"},{"result":158,"points":2,"place":1,"phase":0,"sequence":19,"prices":[158,175,186,211,177,180,187,166,209,153],"times":[1122],"next_num":1,"trial_type":"ticket-choose","trial_index":39,"time_elapsed":722325,"internal_node_id":"0.0-39.0"},{"result":167,"points":1,"place":2,"phase":0,"sequence":20,"prices":[167,153,172,185,195,143,184,211,177,227],"times":[906],"next_num":1,"trial_type":"ticket-choose","trial_index":40,"time_elapsed":725301,"internal_node_id":"0.0-40.0"},{"result":147,"points":3,"place":0,"phase":0,"sequence":21,"prices":[181,214,169,147,182,193,178,184,176,179],"times":[799,568,1041,862],"next_num":4,"trial_type":"ticket-choose","trial_index":41,"time_elapsed":731516,"internal_node_id":"0.0-41.0"},{"result":158,"points":2,"place":1,"phase":0,"sequence":22,"prices":[177,175,186,209,158,181,188,167,208,154],"times":[811,647,700,633,979],"next_num":5,"trial_type":"ticket-choose","trial_index":42,"time_elapsed":738248,"internal_node_id":"0.0-42.0"},{"result":158,"points":2,"place":1,"phase":0,"sequence":23,"prices":[177,176,187,225,158,181,187,165,208,153],"times":[758,623,624,606,779],"next_num":5,"trial_type":"ticket-choose","trial_index":43,"time_elapsed":744632,"internal_node_id":"0.0-43.0"},{"result":157,"points":3,"place":0,"phase":0,"sequence":24,"prices":[191,170,182,165,175,182,203,157,195,200],"times":[676,592,615,1132,586,908,570,894],"next_num":8,"trial_type":"ticket-choose","trial_index":44,"time_elapsed":754341,"internal_node_id":"0.0-44.0"},{"result":166,"points":1,"place":2,"phase":0,"sequence":25,"prices":[165,174,186,212,177,181,187,166,153,209],"times":[3150,625,576,556,592,593,577,779],"next_num":8,"trial_type":"ticket-choose","trial_index":45,"time_elapsed":765191,"internal_node_id":"0.0-45.0"},{"result":165,"points":2,"place":1,"phase":0,"sequence":26,"prices":[165,175,186,214,177,179,187,166,153,208],"times":[1043],"next_num":1,"trial_type":"ticket-choose","trial_index":46,"time_elapsed":768142,"internal_node_id":"0.0-46.0"},{"result":167,"points":2,"place":1,"phase":0,"sequence":27,"prices":[167,175,185,224,178,181,186,168,208,156],"times":[929],"next_num":1,"trial_type":"ticket-choose","trial_index":47,"time_elapsed":771034,"internal_node_id":"0.0-47.0"},{"result":156,"points":2,"place":1,"phase":0,"sequence":28,"prices":[180,156,149,160,168,186,172,198,176,195],"times":[873,847],"next_num":2,"trial_type":"ticket-choose","trial_index":48,"time_elapsed":774845,"internal_node_id":"0.0-48.0"},{"result":167,"points":2,"place":1,"phase":0,"sequence":29,"prices":[178,174,186,217,167,181,188,168,208,156],"times":[835,609,537,623,1587],"next_num":5,"trial_type":"ticket-choose","trial_index":49,"time_elapsed":781699,"internal_node_id":"0.0-49.0"},{"result":165,"points":3,"place":0,"phase":0,"sequence":30,"prices":[189,167,180,197,165,168,172,213,178,171],"times":[776,993,584,555,887],"next_num":5,"trial_type":"ticket-choose","trial_index":50,"time_elapsed":788385,"internal_node_id":"0.0-50.0"},{"result":166,"points":1,"place":3,"phase":0,"sequence":31,"prices":[201,204,179,166,185,165,214,156,202,165],"times":[759,597,696,969],"next_num":4,"trial_type":"ticket-choose","trial_index":51,"time_elapsed":793921,"internal_node_id":"0.0-51.0"},{"result":165,"points":3,"place":0,"phase":0,"sequence":32,"prices":[196,171,170,184,187,165,211,169,201,202],"times":[750,539,569,655,638,855],"next_num":6,"trial_type":"ticket-choose","trial_index":52,"time_elapsed":800836,"internal_node_id":"0.0-52.0"},{"result":167,"points":2,"place":1,"phase":0,"sequence":33,"prices":[178,175,185,215,167,181,186,168,208,156],"times":[929,508,592,607,1819],"next_num":5,"trial_type":"ticket-choose","trial_index":53,"time_elapsed":808046,"internal_node_id":"0.0-53.0"},{"result":165,"points":1,"place":2,"phase":0,"sequence":34,"prices":[171,169,186,165,163,167,220,148,187,165],"times":[781,878,547,855],"next_num":4,"trial_type":"ticket-choose","trial_index":54,"time_elapsed":813614,"internal_node_id":"0.0-54.0"},{"result":159,"points":1,"place":2,"phase":0,"sequence":35,"prices":[181,159,149,175,185,151,163,174,178,207],"times":[912,863],"next_num":2,"trial_type":"ticket-choose","trial_index":55,"time_elapsed":817654,"internal_node_id":"0.0-55.0"},{"result":158,"points":2,"place":1,"phase":0,"sequence":36,"prices":[158,175,186,209,177,181,188,167,208,154],"times":[1274],"next_num":1,"trial_type":"ticket-choose","trial_index":56,"time_elapsed":821233,"internal_node_id":"0.0-56.0"},{"result":197,"points":0,"place":8,"phase":0,"sequence":37,"prices":[192,172,171,178,188,165,217,168,195,197],"times":[705,538,552,702,599,994,583,763,591,1071],"next_num":11,"trial_type":"ticket-choose","trial_index":57,"time_elapsed":832652,"internal_node_id":"0.0-57.0"},{"result":165,"points":1,"place":2,"phase":0,"sequence":38,"prices":[199,193,169,165,202,182,151,164,176,171],"times":[983,569,958,776],"next_num":4,"trial_type":"ticket-choose","trial_index":58,"time_elapsed":838697,"internal_node_id":"0.0-58.0"},{"result":165,"points":2,"place":1,"phase":0,"sequence":39,"prices":[177,175,186,210,165,179,187,166,153,208],"times":[715,538,577,579,753],"next_num":5,"trial_type":"ticket-choose","trial_index":59,"time_elapsed":844535,"internal_node_id":"0.0-59.0"},{"result":167,"points":2,"place":1,"phase":0,"sequence":40,"prices":[167,174,186,211,178,181,188,168,208,156],"times":[1005],"next_num":1,"trial_type":"ticket-choose","trial_index":60,"time_elapsed":847351,"internal_node_id":"0.0-60.0"},{"result":163,"points":3,"place":0,"phase":0,"sequence":41,"prices":[163,199,196,199,185,195,227,163,177,166],"times":[772],"next_num":1,"trial_type":"ticket-choose","trial_index":61,"time_elapsed":849980,"internal_node_id":"0.0-61.0"},{"result":158,"points":2,"place":1,"phase":0,"sequence":42,"prices":[177,175,186,221,158,180,187,166,209,153],"times":[666,600,571,568,1216],"next_num":5,"trial_type":"ticket-choose","trial_index":62,"time_elapsed":856348,"internal_node_id":"0.0-62.0"},{"result":165,"points":2,"place":1,"phase":0,"sequence":43,"prices":[193,174,224,165,187,190,224,161,194,195],"times":[768,637,562,724],"next_num":4,"trial_type":"ticket-choose","trial_index":63,"time_elapsed":861468,"internal_node_id":"0.0-63.0"},{"result":157,"points":3,"place":0,"phase":0,"sequence":44,"prices":[201,187,157,184,198,179,188,185,178,170],"times":[684,601,801],"next_num":3,"trial_type":"ticket-choose","trial_index":64,"time_elapsed":865679,"internal_node_id":"0.0-64.0"},{"result":155,"points":2,"place":1,"phase":0,"sequence":45,"prices":[200,207,155,158,156,168,167,135,178,177],"times":[760,579,785],"next_num":3,"trial_type":"ticket-choose","trial_index":65,"time_elapsed":869943,"internal_node_id":"0.0-65.0"},{"result":165,"points":1,"place":2,"phase":0,"sequence":46,"prices":[200,173,182,169,207,165,152,202,161,204],"times":[659,617,576,1441,600,763],"next_num":6,"trial_type":"ticket-choose","trial_index":66,"time_elapsed":877454,"internal_node_id":"0.0-66.0"},{"result":165,"points":2,"place":1,"phase":0,"sequence":47,"prices":[187,201,165,172,196,174,178,154,172,180],"times":[556,600,833],"next_num":3,"trial_type":"ticket-choose","trial_index":67,"time_elapsed":881773,"internal_node_id":"0.0-67.0"},{"result":169,"points":1,"place":2,"phase":0,"sequence":48,"prices":[167,175,186,225,178,179,187,169,209,153],"times":[705,615,585,601,608,599,614,1220],"next_num":8,"trial_type":"ticket-choose","trial_index":68,"time_elapsed":890670,"internal_node_id":"0.0-68.0"},{"result":167,"points":2,"place":1,"phase":0,"sequence":49,"prices":[178,175,186,212,167,179,187,169,209,153],"times":[830,615,579,623,847],"next_num":5,"trial_type":"ticket-choose","trial_index":69,"time_elapsed":896801,"internal_node_id":"0.0-69.0"},{"responses":[{"value":0,"offby":-1,"category":"$115 - $130","category_index":0},{"value":0,"offby":-5,"category":"$131 - $145","category_index":1},{"value":0,"offby":-12,"category":"$146 - $160","category_index":2},{"value":30,"offby":8,"category":"$161 - $175","category_index":3},{"value":40,"offby":6,"category":"$176 - $190","category_index":4},{"value":30,"offby":15,"category":"$191 - $205","category_index":5},{"value":0,"offby":-11,"category":"$206 - $220","category_index":6}],"phase":1,"number":1,"trial_type":"bar-choose","trial_index":70,"time_elapsed":928228,"internal_node_id":"0.0-70.0"},{"rt":7233,"url":"\/christiane\/tickets\/utils\/testing2.html","trial_type":"point_update","trial_index":71,"time_elapsed":936859,"internal_node_id":"0.0-71.0"},{"phase":1,"order":[16,13,7,40,42,47,17,33,45,14,15,10,46,24,49,12,11,20,29,18,35,48,22,23,30,8,6,1,34,3,39,25,28,4,31,44,19,27,37,9,0,38,21,32,43,41,26,36,2,5],"trial_type":"store_order","trial_index":72,"time_elapsed":937860,"internal_node_id":"0.0-72.0"},{"result":165,"points":2,"place":1,"phase":1,"sequence":0,"prices":[175,187,177,209,180,188,165,165,154,208],"times":[1724,770,623,655,517,631,892],"next_num":7,"trial_type":"ticket-choose","trial_index":73,"time_elapsed":947429,"internal_node_id":"0.0-73.0"},{"result":158,"points":2,"place":1,"phase":1,"sequence":1,"prices":[175,186,158,211,180,187,177,166,209,153],"times":[935,562,754],"next_num":3,"trial_type":"ticket-choose","trial_index":74,"time_elapsed":951888,"internal_node_id":"0.0-74.0"},{"result":165,"points":3,"place":0,"phase":1,"sequence":2,"prices":[193,169,171,187,190,224,174,194,165,188],"times":[757,887,593,492,500,554,685,655,792],"next_num":9,"trial_type":"ticket-choose","trial_index":75,"time_elapsed":961339,"internal_node_id":"0.0-75.0"},{"result":163,"points":1,"place":2,"phase":1,"sequence":3,"prices":[183,163,185,180,166,148,160,186,176,184],"times":[676,800],"next_num":2,"trial_type":"ticket-choose","trial_index":76,"time_elapsed":964772,"internal_node_id":"0.0-76.0"},{"result":165,"points":3,"place":0,"phase":1,"sequence":4,"prices":[185,170,182,201,173,199,171,188,165,168],"times":[651,577,556,584,563,571,545,575,1095],"next_num":9,"trial_type":"ticket-choose","trial_index":77,"time_elapsed":973926,"internal_node_id":"0.0-77.0"},{"result":179,"points":1,"place":4,"phase":1,"sequence":5,"prices":[181,215,169,147,182,193,177,184,176,179],"times":[565,563,693,593,784,655,592,578,693,1077],"next_num":10,"trial_type":"ticket-choose","trial_index":78,"time_elapsed":984566,"internal_node_id":"0.0-78.0"},{"result":153,"points":3,"place":0,"phase":1,"sequence":6,"prices":[174,186,177,217,181,187,165,166,153,209],"times":[813,617,623,569,879,593,2466,985,695],"next_num":9,"trial_type":"ticket-choose","trial_index":79,"time_elapsed":996442,"internal_node_id":"0.0-79.0"},{"result":156,"points":3,"place":0,"phase":1,"sequence":7,"prices":[174,186,178,217,181,188,167,168,208,156],"times":[858,577,678,669,622,626,1056,722,787,809],"next_num":10,"trial_type":"ticket-choose","trial_index":80,"time_elapsed":1007485,"internal_node_id":"0.0-80.0"},{"result":167,"points":2,"place":1,"phase":1,"sequence":8,"prices":[175,185,167,224,181,186,178,168,208,156],"times":[666,571,877],"next_num":3,"trial_type":"ticket-choose","trial_index":81,"time_elapsed":1011840,"internal_node_id":"0.0-81.0"},{"result":165,"points":2,"place":1,"phase":1,"sequence":9,"prices":[175,187,165,209,180,188,177,166,154,208],"times":[543,553,785],"next_num":3,"trial_type":"ticket-choose","trial_index":82,"time_elapsed":1015781,"internal_node_id":"0.0-82.0"},{"result":158,"points":2,"place":1,"phase":1,"sequence":10,"prices":[176,187,158,210,181,187,177,165,208,153],"times":[636,538,725],"next_num":3,"trial_type":"ticket-choose","trial_index":83,"time_elapsed":1019721,"internal_node_id":"0.0-83.0"},{"result":185,"points":1,"place":4,"phase":1,"sequence":11,"prices":[196,165,170,184,187,211,171,201,202,185],"times":[674,1001,561,592,555,563,701,560,563,793],"next_num":10,"trial_type":"ticket-choose","trial_index":84,"time_elapsed":1029936,"internal_node_id":"0.0-84.0"},{"result":163,"points":2,"place":1,"phase":1,"sequence":12,"prices":[174,186,176,217,181,187,163,166,153,209],"times":[831,609,469,608,731,630,788],"next_num":7,"trial_type":"ticket-choose","trial_index":85,"time_elapsed":1037633,"internal_node_id":"0.0-85.0"},{"result":167,"points":1,"place":2,"phase":1,"sequence":13,"prices":[171,203,175,170,167,220,192,186,165,165],"times":[459,598,625,962,901],"next_num":5,"trial_type":"ticket-choose","trial_index":86,"time_elapsed":1043716,"internal_node_id":"0.0-86.0"},{"result":165,"points":3,"place":0,"phase":1,"sequence":14,"prices":[191,172,169,175,182,203,170,195,165,176],"times":[519,516,1209,584,547,632,579,662,763],"next_num":9,"trial_type":"ticket-choose","trial_index":87,"time_elapsed":1053107,"internal_node_id":"0.0-87.0"},{"result":165,"points":2,"place":1,"phase":1,"sequence":15,"prices":[175,186,177,210,179,187,165,166,153,208],"times":[642,561,787,576,548,600,785],"next_num":7,"trial_type":"ticket-choose","trial_index":88,"time_elapsed":1060540,"internal_node_id":"0.0-88.0"},{"result":167,"points":2,"place":1,"phase":1,"sequence":16,"prices":[175,186,167,225,179,187,178,169,209,153],"times":[559,546,1387],"next_num":3,"trial_type":"ticket-choose","trial_index":89,"time_elapsed":1065198,"internal_node_id":"0.0-89.0"},{"result":158,"points":2,"place":1,"phase":1,"sequence":17,"prices":[175,186,177,221,180,187,158,166,209,153],"times":[472,576,569,507,626,499,808],"next_num":7,"trial_type":"ticket-choose","trial_index":90,"time_elapsed":1072213,"internal_node_id":"0.0-90.0"},{"result":165,"points":2,"place":1,"phase":1,"sequence":18,"prices":[200,165,165,173,182,207,161,202,204,180],"times":[567,1125],"next_num":2,"trial_type":"ticket-choose","trial_index":91,"time_elapsed":1075776,"internal_node_id":"0.0-91.0"},{"result":163,"points":2,"place":1,"phase":1,"sequence":19,"prices":[174,186,163,212,181,187,176,166,153,209],"times":[650,517,809],"next_num":3,"trial_type":"ticket-choose","trial_index":92,"time_elapsed":1080156,"internal_node_id":"0.0-92.0"},{"result":167,"points":2,"place":1,"phase":1,"sequence":20,"prices":[212,192,188,184,167,193,189,164,176,170],"times":[619,515,554,577,962],"next_num":5,"trial_type":"ticket-choose","trial_index":93,"time_elapsed":1085861,"internal_node_id":"0.0-93.0"},{"result":163,"points":2,"place":1,"phase":1,"sequence":21,"prices":[175,187,176,209,180,188,163,165,154,208],"times":[559,516,676,579,551,554,733],"next_num":7,"trial_type":"ticket-choose","trial_index":94,"time_elapsed":1092978,"internal_node_id":"0.0-94.0"},{"result":155,"points":2,"place":1,"phase":1,"sequence":22,"prices":[201,207,155,158,156,165,167,135,178,177],"times":[489,517,930],"next_num":3,"trial_type":"ticket-choose","trial_index":95,"time_elapsed":1096996,"internal_node_id":"0.0-95.0"},{"result":167,"points":2,"place":1,"phase":1,"sequence":23,"prices":[183,182,192,168,173,205,167,187,165,170],"times":[666,584,601,840,609,539,922],"next_num":7,"trial_type":"ticket-choose","trial_index":96,"time_elapsed":1104654,"internal_node_id":"0.0-96.0"},{"result":208,"points":0,"place":6,"phase":1,"sequence":24,"prices":[210,184,226,193,215,158,199,175,176,208],"times":[743,639,552,546,563,593,668,538,583,679],"next_num":11,"trial_type":"ticket-choose","trial_index":97,"time_elapsed":1115141,"internal_node_id":"0.0-97.0"},{"result":156,"points":3,"place":0,"phase":1,"sequence":25,"prices":[175,185,178,215,181,186,167,168,208,156],"times":[10051,755,862,648,484,531,971,893,623,855],"next_num":10,"trial_type":"ticket-choose","trial_index":98,"time_elapsed":1135645,"internal_node_id":"0.0-98.0"},{"result":153,"points":3,"place":0,"phase":1,"sequence":26,"prices":[175,186,178,212,179,187,167,169,209,153],"times":[859,568,647,638,617,700,1248,679,632,822],"next_num":10,"trial_type":"ticket-choose","trial_index":99,"time_elapsed":1146747,"internal_node_id":"0.0-99.0"},{"result":165,"points":2,"place":1,"phase":1,"sequence":27,"prices":[188,200,165,172,198,174,177,154,177,180],"times":[812,585,809],"next_num":3,"trial_type":"ticket-choose","trial_index":100,"time_elapsed":1151151,"internal_node_id":"0.0-100.0"},{"result":159,"points":1,"place":2,"phase":1,"sequence":28,"prices":[180,159,149,175,185,141,163,174,178,207],"times":[589,739],"next_num":2,"trial_type":"ticket-choose","trial_index":101,"time_elapsed":1154497,"internal_node_id":"0.0-101.0"},{"result":165,"points":3,"place":0,"phase":1,"sequence":29,"prices":[193,165,175,181,185,224,180,199,218,184],"times":[650,762],"next_num":2,"trial_type":"ticket-choose","trial_index":102,"time_elapsed":1157811,"internal_node_id":"0.0-102.0"},{"result":158,"points":2,"place":1,"phase":1,"sequence":30,"prices":[175,186,158,209,181,188,177,167,208,154],"times":[866,546,768],"next_num":3,"trial_type":"ticket-choose","trial_index":103,"time_elapsed":1162175,"internal_node_id":"0.0-103.0"},{"result":143,"points":3,"place":0,"phase":1,"sequence":31,"prices":[222,173,202,197,143,205,198,183,178,186],"times":[588,817,538,593,754],"next_num":5,"trial_type":"ticket-choose","trial_index":104,"time_elapsed":1167972,"internal_node_id":"0.0-104.0"},{"result":167,"points":2,"place":1,"phase":1,"sequence":32,"prices":[189,167,180,197,165,168,172,213,178,171],"times":[528,1001],"next_num":2,"trial_type":"ticket-choose","trial_index":105,"time_elapsed":1171874,"internal_node_id":"0.0-105.0"},{"result":150,"points":3,"place":0,"phase":1,"sequence":33,"prices":[189,150,175,160,188,207,158,194,178,199],"times":[573,747],"next_num":2,"trial_type":"ticket-choose","trial_index":106,"time_elapsed":1175041,"internal_node_id":"0.0-106.0"},{"result":163,"points":3,"place":0,"phase":1,"sequence":34,"prices":[168,199,196,198,185,195,227,163,177,166],"times":[549,616,625,584,668,577,571,785],"next_num":8,"trial_type":"ticket-choose","trial_index":107,"time_elapsed":1183146,"internal_node_id":"0.0-107.0"},{"result":165,"points":2,"place":1,"phase":1,"sequence":35,"prices":[174,186,165,212,181,187,177,167,153,209],"times":[635,561,733],"next_num":3,"trial_type":"ticket-choose","trial_index":108,"time_elapsed":1187170,"internal_node_id":"0.0-108.0"},{"result":163,"points":2,"place":1,"phase":1,"sequence":36,"prices":[198,193,169,163,202,182,152,164,177,171],"times":[558,552,834,755],"next_num":4,"trial_type":"ticket-choose","trial_index":109,"time_elapsed":1192149,"internal_node_id":"0.0-109.0"},{"result":158,"points":2,"place":1,"phase":1,"sequence":37,"prices":[176,187,177,225,181,187,158,165,208,153],"times":[675,531,576,556,605,539,763],"next_num":7,"trial_type":"ticket-choose","trial_index":110,"time_elapsed":1199345,"internal_node_id":"0.0-110.0"},{"result":163,"points":2,"place":1,"phase":1,"sequence":38,"prices":[175,187,163,209,180,188,176,165,154,208],"times":[488,593,747],"next_num":3,"trial_type":"ticket-choose","trial_index":111,"time_elapsed":1203214,"internal_node_id":"0.0-111.0"},{"result":154,"points":2,"place":1,"phase":1,"sequence":39,"prices":[168,154,172,185,195,144,184,211,177,227],"times":[730,854],"next_num":2,"trial_type":"ticket-choose","trial_index":112,"time_elapsed":1206692,"internal_node_id":"0.0-112.0"},{"result":152,"points":3,"place":0,"phase":1,"sequence":40,"prices":[200,181,203,152,175,171,160,154,176,191],"times":[689,538,561,816],"next_num":4,"trial_type":"ticket-choose","trial_index":113,"time_elapsed":1211625,"internal_node_id":"0.0-113.0"},{"result":165,"points":2,"place":1,"phase":1,"sequence":41,"prices":[175,186,165,214,179,187,177,166,153,208],"times":[705,552,1204],"next_num":3,"trial_type":"ticket-choose","trial_index":114,"time_elapsed":1216182,"internal_node_id":"0.0-114.0"},{"result":163,"points":2,"place":1,"phase":1,"sequence":42,"prices":[175,186,163,214,179,187,176,166,153,208],"times":[604,515,801],"next_num":3,"trial_type":"ticket-choose","trial_index":115,"time_elapsed":1220198,"internal_node_id":"0.0-115.0"},{"result":165,"points":2,"place":1,"phase":1,"sequence":43,"prices":[201,165,162,166,185,214,165,202,204,179],"times":[614,763],"next_num":2,"trial_type":"ticket-choose","trial_index":116,"time_elapsed":1223469,"internal_node_id":"0.0-116.0"},{"result":155,"points":2,"place":1,"phase":1,"sequence":44,"prices":[181,155,148,161,168,187,172,199,176,194],"times":[1690,808],"next_num":2,"trial_type":"ticket-choose","trial_index":117,"time_elapsed":1227855,"internal_node_id":"0.0-117.0"},{"result":156,"points":3,"place":0,"phase":1,"sequence":45,"prices":[174,186,167,211,181,188,178,168,208,156],"times":[604,548,769,562,555,490,608,900,576,926],"next_num":10,"trial_type":"ticket-choose","trial_index":118,"time_elapsed":1238079,"internal_node_id":"0.0-118.0"},{"result":163,"points":2,"place":1,"phase":1,"sequence":46,"prices":[175,186,176,210,179,187,163,166,153,208],"times":[812,593,730,555,593,577,1001],"next_num":7,"trial_type":"ticket-choose","trial_index":119,"time_elapsed":1245967,"internal_node_id":"0.0-119.0"},{"result":158,"points":2,"place":1,"phase":1,"sequence":47,"prices":[175,186,177,209,181,188,158,167,208,154],"times":[1060,530,468,555,571,577,885],"next_num":7,"trial_type":"ticket-choose","trial_index":120,"time_elapsed":1253547,"internal_node_id":"0.0-120.0"},{"result":170,"points":2,"place":1,"phase":1,"sequence":48,"prices":[201,187,157,184,198,179,188,185,178,170],"times":[835,555,545,663,569,591,587,631,546,1255],"next_num":10,"trial_type":"ticket-choose","trial_index":121,"time_elapsed":1265082,"internal_node_id":"0.0-121.0"},{"result":165,"points":3,"place":0,"phase":1,"sequence":49,"prices":[192,165,171,178,188,217,172,195,197,186],"times":[1074,1016],"next_num":2,"trial_type":"ticket-choose","trial_index":122,"time_elapsed":1269329,"internal_node_id":"0.0-122.0"},{"responses":[{"value":0,"offby":-1,"category":"$115 - $130","category_index":0},{"value":0,"offby":-5,"category":"$131 - $145","category_index":1},{"value":0,"offby":-12,"category":"$146 - $160","category_index":2},{"value":20,"offby":-2,"category":"$161 - $175","category_index":3},{"value":50,"offby":16,"category":"$176 - $190","category_index":4},{"value":30,"offby":15,"category":"$191 - $205","category_index":5},{"value":0,"offby":-11,"category":"$206 - $220","category_index":6}],"phase":1,"number":1,"trial_type":"bar-choose","trial_index":123,"time_elapsed":1298990,"internal_node_id":"0.0-123.0"},{"special_comment":"no","trial_type":"special_sequence","trial_index":124,"time_elapsed":1306260,"internal_node_id":"0.0-124.0"},{"during":"Nothing","bonus":276,"trial_type":"final","trial_index":125,"time_elapsed":1333552,"internal_node_id":"0.0-125.0"}],"bonus":276}