{"start_time":"2017-05-24 13:31:30","end_time":"2017-05-24 13:55:28","points_phase0":105,"points_phase1":106,"phase_order":0,"age":44,"gender":"f","tries":1,"during":"Nothing","worker_id":"ALEE1QD4TW9G4","assignment_id":"3VA45EW49OGEION904J22VVKUT31OW","data":[{"rt":7796,"url":"\/christiane\/tickets\/utils\/consent.html","trial_type":"html","trial_index":0,"time_elapsed":7946,"internal_node_id":"0.0-0.0"},{"age":44,"gender":"f","trial_type":"age","trial_index":1,"time_elapsed":13032,"internal_node_id":"0.0-1.0"},{"worker_id":"ALEE1QD4TW9G4","trial_type":"workerid","trial_index":2,"time_elapsed":17602,"internal_node_id":"0.0-2.0"},{"tries":1,"trial_type":"instructions_check","trial_index":3,"time_elapsed":59231,"internal_node_id":"0.0-3.0"},{"rt":117942,"url":"\/christiane\/tickets\/utils\/start.html","trial_type":"html","trial_index":4,"time_elapsed":181221,"internal_node_id":"0.0-4.0"},{"trial_type":"number-animation","trial_index":5,"time_elapsed":205260,"internal_node_id":"0.0-5.0"},{"phase":0,"sequence":0,"avg":181,"response":180,"trial_type":"training_avg","trial_index":6,"time_elapsed":217057,"internal_node_id":"0.0-6.0"},{"trial_type":"number-animation","trial_index":7,"time_elapsed":226635,"internal_node_id":"0.0-7.0"},{"phase":0,"sequence":1,"avg":188,"response":195,"trial_type":"training_avg","trial_index":8,"time_elapsed":234321,"internal_node_id":"0.0-8.0"},{"trial_type":"number-animation","trial_index":9,"time_elapsed":244642,"internal_node_id":"0.0-9.0"},{"phase":0,"sequence":2,"avg":188,"response":182,"trial_type":"training_avg","trial_index":10,"time_elapsed":252314,"internal_node_id":"0.0-10.0"},{"trial_type":"number-animation","trial_index":11,"time_elapsed":258938,"internal_node_id":"0.0-11.0"},{"phase":0,"sequence":3,"avg":177,"response":169,"trial_type":"training_avg","trial_index":12,"time_elapsed":264877,"internal_node_id":"0.0-12.0"},{"trial_type":"number-animation","trial_index":13,"time_elapsed":278338,"internal_node_id":"0.0-13.0"},{"phase":0,"sequence":4,"avg":182,"response":182,"trial_type":"training_avg","trial_index":14,"time_elapsed":286150,"internal_node_id":"0.0-14.0"},{"responses":[{"value":5,"offby":4,"category":"$115 - $130","category_index":0},{"value":10,"offby":5,"category":"$131 - $145","category_index":1},{"value":20,"offby":8,"category":"$146 - $160","category_index":2},{"value":40,"offby":18,"category":"$161 - $175","category_index":3},{"value":5,"offby":-29,"category":"$176 - $190","category_index":4},{"value":15,"offby":0,"category":"$191 - $205","category_index":5},{"value":5,"offby":-6,"category":"$206 - $220","category_index":6}],"phase":0,"number":0,"trial_type":"bar-choose","trial_index":15,"time_elapsed":367995,"internal_node_id":"0.0-15.0"},{"rt":16003,"url":"\/christiane\/tickets\/utils\/testing.html","trial_type":"html","trial_index":16,"time_elapsed":387290,"internal_node_id":"0.0-16.0"},{"phase":0,"order":[19,25,35,22,41,26,5,38,49,31,24,40,37,12,43,2,14,45,15,28,48,42,18,27,3,17,11,21,29,47,4,32,8,44,30,9,13,34,33,0,23,46,36,7,1,6,16,39,20,10],"trial_type":"store_order","trial_index":17,"time_elapsed":388291,"internal_node_id":"0.0-17.0"},{"result":165,"points":2,"place":1,"phase":0,"sequence":-1,"prices":[184,180,224,165,181,199,185,193,218,146],"times":[3762,992,830,1181],"next_num":4,"trial_type":"ticket-choose","trial_index":18,"time_elapsed":398250,"internal_node_id":"0.0-18.0"},{"rt":19846,"url":"\/christiane\/tickets\/utils\/testing_after.html","trial_type":"html","trial_index":19,"time_elapsed":419431,"internal_node_id":"0.0-19.0"},{"result":158,"points":2,"place":1,"phase":0,"sequence":0,"prices":[175,186,158,209,181,188,177,167,208,154],"times":[1419,570,2923],"next_num":3,"trial_type":"ticket-choose","trial_index":20,"time_elapsed":427523,"internal_node_id":"0.0-20.0"},{"result":165,"points":2,"place":1,"phase":0,"sequence":1,"prices":[201,165,162,166,185,214,165,202,204,179],"times":[960,681,517,2063,729,586,946],"next_num":7,"trial_type":"ticket-choose","trial_index":21,"time_elapsed":437570,"internal_node_id":"0.0-21.0"},{"result":154,"points":2,"place":1,"phase":0,"sequence":2,"prices":[168,154,172,185,195,144,184,211,177,227],"times":[1017,937],"next_num":2,"trial_type":"ticket-choose","trial_index":22,"time_elapsed":441820,"internal_node_id":"0.0-22.0"},{"result":158,"points":2,"place":1,"phase":0,"sequence":3,"prices":[175,186,177,209,181,188,158,167,208,154],"times":[718,503,494,642,516,573,837],"next_num":7,"trial_type":"ticket-choose","trial_index":23,"time_elapsed":449431,"internal_node_id":"0.0-23.0"},{"result":156,"points":1,"place":2,"phase":0,"sequence":4,"prices":[201,207,155,158,156,165,167,135,178,177],"times":[728,455,578,800,947],"next_num":5,"trial_type":"ticket-choose","trial_index":24,"time_elapsed":455780,"internal_node_id":"0.0-24.0"},{"result":161,"points":3,"place":0,"phase":0,"sequence":5,"prices":[200,165,165,173,182,207,161,202,204,180],"times":[633,416,492,656,590,647,1612],"next_num":7,"trial_type":"ticket-choose","trial_index":25,"time_elapsed":464680,"internal_node_id":"0.0-25.0"},{"result":167,"points":2,"place":1,"phase":0,"sequence":6,"prices":[175,186,178,212,179,187,167,169,209,153],"times":[644,846,541,581,550,563,1081],"next_num":7,"trial_type":"ticket-choose","trial_index":26,"time_elapsed":472883,"internal_node_id":"0.0-26.0"},{"result":163,"points":3,"place":0,"phase":0,"sequence":7,"prices":[168,199,196,198,185,195,227,163,177,166],"times":[700,500,495,525,493,524,517,1026],"next_num":8,"trial_type":"ticket-choose","trial_index":27,"time_elapsed":481040,"internal_node_id":"0.0-27.0"},{"result":163,"points":1,"place":2,"phase":0,"sequence":8,"prices":[183,163,185,180,166,148,160,186,176,184],"times":[658,1291],"next_num":2,"trial_type":"ticket-choose","trial_index":28,"time_elapsed":485085,"internal_node_id":"0.0-28.0"},{"result":165,"points":3,"place":0,"phase":0,"sequence":9,"prices":[171,203,175,170,167,220,192,186,165,165],"times":[600,525,542,548,901,579,583,532,876],"next_num":9,"trial_type":"ticket-choose","trial_index":29,"time_elapsed":494311,"internal_node_id":"0.0-29.0"},{"result":165,"points":3,"place":0,"phase":0,"sequence":10,"prices":[193,165,175,181,185,224,180,199,218,184],"times":[671,2802],"next_num":2,"trial_type":"ticket-choose","trial_index":30,"time_elapsed":499859,"internal_node_id":"0.0-30.0"},{"result":150,"points":3,"place":0,"phase":0,"sequence":11,"prices":[189,150,175,160,188,207,158,194,178,199],"times":[570,859],"next_num":2,"trial_type":"ticket-choose","trial_index":31,"time_elapsed":503327,"internal_node_id":"0.0-31.0"},{"result":163,"points":2,"place":1,"phase":0,"sequence":12,"prices":[198,193,169,163,202,182,152,164,177,171],"times":[617,533,1019,1626],"next_num":4,"trial_type":"ticket-choose","trial_index":32,"time_elapsed":509733,"internal_node_id":"0.0-32.0"},{"result":153,"points":3,"place":0,"phase":0,"sequence":13,"prices":[175,186,163,214,179,187,176,166,153,208],"times":[790,500,801,634,488,471,532,752,886],"next_num":9,"trial_type":"ticket-choose","trial_index":33,"time_elapsed":519227,"internal_node_id":"0.0-33.0"},{"result":157,"points":3,"place":0,"phase":0,"sequence":14,"prices":[201,187,157,184,198,179,188,185,178,170],"times":[647,471,948],"next_num":3,"trial_type":"ticket-choose","trial_index":34,"time_elapsed":523678,"internal_node_id":"0.0-34.0"},{"result":169,"points":1,"place":2,"phase":0,"sequence":15,"prices":[175,186,167,225,179,187,178,169,209,153],"times":[713,544,1117,535,509,525,487,3487],"next_num":8,"trial_type":"ticket-choose","trial_index":35,"time_elapsed":535031,"internal_node_id":"0.0-35.0"},{"result":163,"points":2,"place":1,"phase":0,"sequence":16,"prices":[174,186,163,212,181,187,176,166,153,209],"times":[599,563,1220],"next_num":3,"trial_type":"ticket-choose","trial_index":36,"time_elapsed":539671,"internal_node_id":"0.0-36.0"},{"result":167,"points":2,"place":1,"phase":0,"sequence":17,"prices":[212,192,188,184,167,193,189,164,176,170],"times":[514,775,470,472,1431],"next_num":5,"trial_type":"ticket-choose","trial_index":37,"time_elapsed":546125,"internal_node_id":"0.0-37.0"},{"result":163,"points":2,"place":1,"phase":0,"sequence":18,"prices":[175,186,176,210,179,187,163,166,153,208],"times":[598,542,540,525,596,504,1096],"next_num":7,"trial_type":"ticket-choose","trial_index":38,"time_elapsed":553850,"internal_node_id":"0.0-38.0"},{"result":185,"points":1,"place":4,"phase":0,"sequence":19,"prices":[196,165,170,184,187,211,171,201,202,185],"times":[579,393,394,541,460,511,790,1229,689,659],"next_num":10,"trial_type":"ticket-choose","trial_index":39,"time_elapsed":563850,"internal_node_id":"0.0-39.0"},{"result":169,"points":2,"place":1,"phase":0,"sequence":20,"prices":[181,215,169,147,182,193,177,184,176,179],"times":[735,934,977],"next_num":3,"trial_type":"ticket-choose","trial_index":40,"time_elapsed":568804,"internal_node_id":"0.0-40.0"},{"result":143,"points":3,"place":0,"phase":0,"sequence":21,"prices":[222,173,202,197,143,205,198,183,178,186],"times":[859,470,520,525,915],"next_num":5,"trial_type":"ticket-choose","trial_index":41,"time_elapsed":574804,"internal_node_id":"0.0-41.0"},{"result":158,"points":2,"place":1,"phase":0,"sequence":22,"prices":[175,186,158,211,180,187,177,166,209,153],"times":[663,446,902],"next_num":3,"trial_type":"ticket-choose","trial_index":42,"time_elapsed":579078,"internal_node_id":"0.0-42.0"},{"result":165,"points":3,"place":0,"phase":0,"sequence":23,"prices":[192,165,171,178,188,217,172,195,197,186],"times":[490,790],"next_num":2,"trial_type":"ticket-choose","trial_index":43,"time_elapsed":582366,"internal_node_id":"0.0-43.0"},{"result":167,"points":2,"place":1,"phase":0,"sequence":24,"prices":[174,186,178,217,181,188,167,168,208,156],"times":[571,590,464,556,534,542,812],"next_num":7,"trial_type":"ticket-choose","trial_index":44,"time_elapsed":589451,"internal_node_id":"0.0-44.0"},{"result":163,"points":2,"place":1,"phase":0,"sequence":25,"prices":[174,186,176,217,181,187,163,166,153,209],"times":[495,491,611,526,532,485,813],"next_num":7,"trial_type":"ticket-choose","trial_index":45,"time_elapsed":596459,"internal_node_id":"0.0-45.0"},{"result":165,"points":2,"place":1,"phase":0,"sequence":26,"prices":[174,186,177,217,181,187,165,166,153,209],"times":[441,500,502,503,477,477,2111],"next_num":7,"trial_type":"ticket-choose","trial_index":46,"time_elapsed":604515,"internal_node_id":"0.0-46.0"},{"result":158,"points":2,"place":1,"phase":0,"sequence":27,"prices":[175,186,177,221,180,187,158,166,209,153],"times":[452,525,446,503,500,496,1102],"next_num":7,"trial_type":"ticket-choose","trial_index":47,"time_elapsed":611545,"internal_node_id":"0.0-47.0"},{"result":165,"points":3,"place":0,"phase":0,"sequence":28,"prices":[185,170,182,201,173,199,171,188,165,168],"times":[477,674,447,532,474,525,517,470,1433],"next_num":9,"trial_type":"ticket-choose","trial_index":48,"time_elapsed":620639,"internal_node_id":"0.0-48.0"},{"result":160,"points":1,"place":2,"phase":0,"sequence":29,"prices":[200,181,203,152,175,171,160,154,176,191],"times":[529,454,526,525,503,447,931],"next_num":7,"trial_type":"ticket-choose","trial_index":49,"time_elapsed":627561,"internal_node_id":"0.0-49.0"},{"result":167,"points":2,"place":1,"phase":0,"sequence":30,"prices":[175,185,178,215,181,186,167,168,208,156],"times":[443,472,484,550,488,523,1971],"next_num":7,"trial_type":"ticket-choose","trial_index":50,"time_elapsed":635560,"internal_node_id":"0.0-50.0"},{"result":165,"points":3,"place":0,"phase":0,"sequence":31,"prices":[193,169,171,187,190,224,174,194,165,188],"times":[421,1352,598,479,525,697,822,537,1058],"next_num":9,"trial_type":"ticket-choose","trial_index":51,"time_elapsed":645561,"internal_node_id":"0.0-51.0"},{"result":167,"points":1,"place":2,"phase":0,"sequence":32,"prices":[174,186,165,212,181,187,177,167,153,209],"times":[674,509,415,416,448,494,486,1719],"next_num":8,"trial_type":"ticket-choose","trial_index":52,"time_elapsed":653991,"internal_node_id":"0.0-52.0"},{"result":159,"points":1,"place":2,"phase":0,"sequence":33,"prices":[180,159,149,175,185,141,163,174,178,207],"times":[429,844],"next_num":2,"trial_type":"ticket-choose","trial_index":53,"time_elapsed":657210,"internal_node_id":"0.0-53.0"},{"result":165,"points":3,"place":0,"phase":0,"sequence":34,"prices":[191,172,169,175,182,203,170,195,165,176],"times":[493,476,729,529,513,741,565,565,963],"next_num":9,"trial_type":"ticket-choose","trial_index":54,"time_elapsed":666202,"internal_node_id":"0.0-54.0"},{"result":165,"points":2,"place":1,"phase":0,"sequence":35,"prices":[175,186,177,210,179,187,165,166,153,208],"times":[528,494,487,475,477,502,930],"next_num":7,"trial_type":"ticket-choose","trial_index":55,"time_elapsed":673062,"internal_node_id":"0.0-55.0"},{"result":165,"points":1,"place":2,"phase":0,"sequence":36,"prices":[175,187,163,209,180,188,176,165,154,208],"times":[502,449,414,356,447,454,503,1665],"next_num":8,"trial_type":"ticket-choose","trial_index":56,"time_elapsed":681061,"internal_node_id":"0.0-56.0"},{"result":155,"points":2,"place":1,"phase":0,"sequence":37,"prices":[181,155,148,161,168,187,172,199,176,194],"times":[432,869],"next_num":2,"trial_type":"ticket-choose","trial_index":57,"time_elapsed":684341,"internal_node_id":"0.0-57.0"},{"result":167,"points":2,"place":1,"phase":0,"sequence":38,"prices":[183,182,192,168,173,205,167,187,165,170],"times":[479,515,508,2829,504,572,1080],"next_num":7,"trial_type":"ticket-choose","trial_index":58,"time_elapsed":693866,"internal_node_id":"0.0-58.0"},{"result":167,"points":2,"place":1,"phase":0,"sequence":39,"prices":[174,186,167,211,181,188,178,168,208,156],"times":[442,484,1876],"next_num":3,"trial_type":"ticket-choose","trial_index":59,"time_elapsed":698927,"internal_node_id":"0.0-59.0"},{"result":158,"points":2,"place":1,"phase":0,"sequence":40,"prices":[176,187,177,225,181,187,158,165,208,153],"times":[648,484,430,597,492,520,861],"next_num":7,"trial_type":"ticket-choose","trial_index":60,"time_elapsed":705943,"internal_node_id":"0.0-60.0"},{"result":158,"points":3,"place":0,"phase":0,"sequence":41,"prices":[210,184,226,193,215,158,199,175,176,208],"times":[445,493,523,512,588,915],"next_num":6,"trial_type":"ticket-choose","trial_index":61,"time_elapsed":712217,"internal_node_id":"0.0-61.0"},{"result":165,"points":2,"place":1,"phase":0,"sequence":42,"prices":[188,200,165,172,198,174,177,154,177,180],"times":[670,480,822],"next_num":3,"trial_type":"ticket-choose","trial_index":62,"time_elapsed":716397,"internal_node_id":"0.0-62.0"},{"result":154,"points":3,"place":0,"phase":0,"sequence":43,"prices":[175,187,165,209,180,188,177,166,154,208],"times":[714,456,1431,511,492,471,495,877,1103],"next_num":9,"trial_type":"ticket-choose","trial_index":63,"time_elapsed":726397,"internal_node_id":"0.0-63.0"},{"result":167,"points":2,"place":1,"phase":0,"sequence":44,"prices":[175,185,167,224,181,186,178,168,208,156],"times":[635,472,922],"next_num":3,"trial_type":"ticket-choose","trial_index":64,"time_elapsed":730607,"internal_node_id":"0.0-64.0"},{"result":166,"points":1,"place":2,"phase":0,"sequence":45,"prices":[175,186,165,214,179,187,177,166,153,208],"times":[702,401,430,448,456,534,503,1789],"next_num":8,"trial_type":"ticket-choose","trial_index":65,"time_elapsed":739069,"internal_node_id":"0.0-65.0"},{"result":163,"points":2,"place":1,"phase":0,"sequence":46,"prices":[175,187,176,209,180,188,163,165,154,208],"times":[905,549,439,430,448,424,799],"next_num":7,"trial_type":"ticket-choose","trial_index":66,"time_elapsed":746077,"internal_node_id":"0.0-66.0"},{"result":165,"points":3,"place":0,"phase":0,"sequence":47,"prices":[189,167,180,197,165,168,172,213,178,171],"times":[602,409,401,470,915],"next_num":5,"trial_type":"ticket-choose","trial_index":67,"time_elapsed":751420,"internal_node_id":"0.0-67.0"},{"result":165,"points":1,"place":2,"phase":0,"sequence":48,"prices":[176,187,158,210,181,187,177,165,208,153],"times":[435,456,437,462,455,494,486,806],"next_num":8,"trial_type":"ticket-choose","trial_index":68,"time_elapsed":758686,"internal_node_id":"0.0-68.0"},{"result":165,"points":2,"place":1,"phase":0,"sequence":49,"prices":[175,187,177,209,180,188,165,165,154,208],"times":[447,487,489,500,576,483,1496],"next_num":7,"trial_type":"ticket-choose","trial_index":69,"time_elapsed":766264,"internal_node_id":"0.0-69.0"},{"responses":[{"value":1,"offby":0,"category":"$115 - $130","category_index":0},{"value":5,"offby":0,"category":"$131 - $145","category_index":1},{"value":15,"offby":3,"category":"$146 - $160","category_index":2},{"value":25,"offby":3,"category":"$161 - $175","category_index":3},{"value":35,"offby":1,"category":"$176 - $190","category_index":4},{"value":15,"offby":0,"category":"$191 - $205","category_index":5},{"value":4,"offby":-7,"category":"$206 - $220","category_index":6}],"phase":1,"number":1,"trial_type":"bar-choose","trial_index":70,"time_elapsed":862148,"internal_node_id":"0.0-70.0"},{"rt":50878,"url":"\/christiane\/tickets\/utils\/testing2.html","trial_type":"point_update","trial_index":71,"time_elapsed":914421,"internal_node_id":"0.0-71.0"},{"phase":1,"order":[12,29,21,19,34,20,31,44,38,25,4,13,8,16,24,43,23,37,0,26,30,2,1,6,10,49,33,17,15,5,22,7,27,14,35,11,9,39,42,40,18,41,36,28,3,47,48,32,45,46],"trial_type":"store_order","trial_index":72,"time_elapsed":915432,"internal_node_id":"0.0-72.0"},{"result":153,"points":3,"place":0,"phase":1,"sequence":0,"prices":[163,175,186,214,176,179,187,166,153,208],"times":[1416,564,463,423,355,386,337,337,857],"next_num":9,"trial_type":"ticket-choose","trial_index":73,"time_elapsed":924380,"internal_node_id":"0.0-73.0"},{"result":150,"points":3,"place":0,"phase":1,"sequence":1,"prices":[185,179,191,165,161,173,199,150,188,168],"times":[704,494,384,370,352,557,432,840],"next_num":8,"trial_type":"ticket-choose","trial_index":74,"time_elapsed":931911,"internal_node_id":"0.0-74.0"},{"result":158,"points":2,"place":1,"phase":1,"sequence":2,"prices":[177,175,186,221,158,180,187,166,209,153],"times":[611,423,495,509,816],"next_num":5,"trial_type":"ticket-choose","trial_index":75,"time_elapsed":937411,"internal_node_id":"0.0-75.0"},{"result":158,"points":2,"place":1,"phase":1,"sequence":3,"prices":[158,175,186,209,177,181,188,167,208,154],"times":[1776],"next_num":1,"trial_type":"ticket-choose","trial_index":76,"time_elapsed":941326,"internal_node_id":"0.0-76.0"},{"result":156,"points":2,"place":1,"phase":1,"sequence":4,"prices":[180,156,149,160,168,186,172,198,176,195],"times":[770,28851],"next_num":2,"trial_type":"ticket-choose","trial_index":77,"time_elapsed":973112,"internal_node_id":"0.0-77.0"},{"result":158,"points":2,"place":1,"phase":1,"sequence":5,"prices":[158,176,187,210,177,181,187,165,208,153],"times":[1732],"next_num":1,"trial_type":"ticket-choose","trial_index":78,"time_elapsed":976651,"internal_node_id":"0.0-78.0"},{"result":165,"points":1,"place":2,"phase":1,"sequence":6,"prices":[171,169,186,165,163,167,220,148,187,165],"times":[707,776,558,1103],"next_num":4,"trial_type":"ticket-choose","trial_index":79,"time_elapsed":1009091,"internal_node_id":"0.0-79.0"},{"result":159,"points":1,"place":2,"phase":1,"sequence":7,"prices":[181,159,149,175,185,151,163,174,178,207],"times":[1107,838],"next_num":2,"trial_type":"ticket-choose","trial_index":80,"time_elapsed":1013074,"internal_node_id":"0.0-80.0"},{"result":163,"points":3,"place":0,"phase":1,"sequence":8,"prices":[163,199,196,199,185,195,227,163,177,166],"times":[576,425,391,458,1168,517,768,841],"next_num":8,"trial_type":"ticket-choose","trial_index":81,"time_elapsed":1021435,"internal_node_id":"0.0-81.0"},{"result":166,"points":1,"place":3,"phase":1,"sequence":9,"prices":[201,204,179,166,185,165,214,156,202,165],"times":[647,558,517,922],"next_num":4,"trial_type":"ticket-choose","trial_index":82,"time_elapsed":1026466,"internal_node_id":"0.0-82.0"},{"result":156,"points":3,"place":0,"phase":1,"sequence":10,"prices":[178,175,185,215,167,181,186,168,208,156],"times":[2553,562,541,542,1304,495,578,2284,894,496],"next_num":10,"trial_type":"ticket-choose","trial_index":83,"time_elapsed":1040599,"internal_node_id":"0.0-83.0"},{"result":165,"points":1,"place":2,"phase":1,"sequence":11,"prices":[163,175,187,209,176,180,188,165,154,208],"times":[1537,480,487,523,525,518,595,1073],"next_num":8,"trial_type":"ticket-choose","trial_index":84,"time_elapsed":1053099,"internal_node_id":"0.0-84.0"},{"result":166,"points":1,"place":2,"phase":1,"sequence":12,"prices":[165,174,186,212,177,181,187,166,153,209],"times":[1478,479,516,614,494,696,572,1245],"next_num":8,"trial_type":"ticket-choose","trial_index":85,"time_elapsed":1062590,"internal_node_id":"0.0-85.0"},{"result":163,"points":2,"place":1,"phase":1,"sequence":13,"prices":[176,187,179,209,163,180,188,165,154,208],"times":[719,532,571,557,917],"next_num":5,"trial_type":"ticket-choose","trial_index":86,"time_elapsed":1068552,"internal_node_id":"0.0-86.0"},{"result":165,"points":3,"place":0,"phase":1,"sequence":14,"prices":[193,181,175,181,185,165,224,199,218,184],"times":[695,614,603,541,477,863],"next_num":6,"trial_type":"ticket-choose","trial_index":87,"time_elapsed":1075098,"internal_node_id":"0.0-87.0"},{"result":157,"points":3,"place":0,"phase":1,"sequence":15,"prices":[201,187,157,184,198,179,188,185,178,170],"times":[499,541,876],"next_num":3,"trial_type":"ticket-choose","trial_index":88,"time_elapsed":1079232,"internal_node_id":"0.0-88.0"},{"result":158,"points":2,"place":1,"phase":1,"sequence":16,"prices":[177,176,187,225,158,181,187,165,208,153],"times":[624,564,1651,475,901],"next_num":5,"trial_type":"ticket-choose","trial_index":89,"time_elapsed":1086279,"internal_node_id":"0.0-89.0"},{"result":165,"points":1,"place":2,"phase":1,"sequence":17,"prices":[199,193,169,165,202,182,151,164,176,171],"times":[509,528,1002,971],"next_num":4,"trial_type":"ticket-choose","trial_index":90,"time_elapsed":1091646,"internal_node_id":"0.0-90.0"},{"result":168,"points":1,"place":2,"phase":1,"sequence":18,"prices":[167,174,186,211,178,181,188,168,208,156],"times":[438,449,493,547,511,501,509,1322],"next_num":8,"trial_type":"ticket-choose","trial_index":91,"time_elapsed":1099630,"internal_node_id":"0.0-91.0"},{"result":165,"points":1,"place":2,"phase":1,"sequence":19,"prices":[200,173,182,169,207,165,152,202,161,204],"times":[444,603,464,807,518,940],"next_num":6,"trial_type":"ticket-choose","trial_index":92,"time_elapsed":1106294,"internal_node_id":"0.0-92.0"},{"result":157,"points":3,"place":0,"phase":1,"sequence":20,"prices":[191,170,182,165,175,182,203,157,195,200],"times":[426,454,542,704,503,538,621,884],"next_num":8,"trial_type":"ticket-choose","trial_index":93,"time_elapsed":1114177,"internal_node_id":"0.0-93.0"},{"result":153,"points":3,"place":0,"phase":1,"sequence":21,"prices":[167,175,186,225,178,179,187,169,209,153],"times":[938,470,504,673,532,566,541,1377,743,573],"next_num":10,"trial_type":"ticket-choose","trial_index":94,"time_elapsed":1125083,"internal_node_id":"0.0-94.0"},{"result":156,"points":3,"place":0,"phase":1,"sequence":22,"prices":[167,175,185,224,178,181,186,168,208,156],"times":[561,422,463,449,446,500,541,610,823,987],"next_num":10,"trial_type":"ticket-choose","trial_index":95,"time_elapsed":1134685,"internal_node_id":"0.0-95.0"},{"result":153,"points":3,"place":0,"phase":1,"sequence":23,"prices":[165,175,186,214,177,179,187,166,153,208],"times":[849,425,402,390,433,439,485,434,955],"next_num":9,"trial_type":"ticket-choose","trial_index":96,"time_elapsed":1142927,"internal_node_id":"0.0-96.0"},{"result":165,"points":2,"place":1,"phase":1,"sequence":24,"prices":[177,175,187,209,165,180,188,165,154,208],"times":[598,508,463,486,950,814,512,1098],"next_num":8,"trial_type":"ticket-choose","trial_index":97,"time_elapsed":1151544,"internal_node_id":"0.0-97.0"},{"result":163,"points":1,"place":2,"phase":1,"sequence":25,"prices":[173,163,185,181,166,148,160,185,176,184],"times":[508,914],"next_num":2,"trial_type":"ticket-choose","trial_index":98,"time_elapsed":1154919,"internal_node_id":"0.0-98.0"},{"result":159,"points":3,"place":0,"phase":1,"sequence":26,"prices":[183,179,188,165,168,173,205,159,187,191],"times":[422,472,492,814,462,565,649,1581],"next_num":8,"trial_type":"ticket-choose","trial_index":99,"time_elapsed":1163645,"internal_node_id":"0.0-99.0"},{"result":153,"points":3,"place":0,"phase":1,"sequence":27,"prices":[176,186,178,217,163,181,187,166,153,209],"times":[465,454,478,478,1737,500,477,579,823],"next_num":9,"trial_type":"ticket-choose","trial_index":100,"time_elapsed":1173152,"internal_node_id":"0.0-100.0"},{"result":153,"points":3,"place":0,"phase":1,"sequence":28,"prices":[176,175,186,210,163,179,187,166,153,208],"times":[543,1046,509,486,954,563,455,642,775],"next_num":9,"trial_type":"ticket-choose","trial_index":101,"time_elapsed":1182598,"internal_node_id":"0.0-101.0"},{"result":153,"points":3,"place":0,"phase":1,"sequence":29,"prices":[178,175,186,212,167,179,187,169,209,153],"times":[639,408,407,378,745,503,486,815,782,557],"next_num":10,"trial_type":"ticket-choose","trial_index":102,"time_elapsed":1192029,"internal_node_id":"0.0-102.0"},{"result":158,"points":2,"place":1,"phase":1,"sequence":30,"prices":[177,175,186,209,158,181,188,167,208,154],"times":[688,378,482,521,862],"next_num":5,"trial_type":"ticket-choose","trial_index":103,"time_elapsed":1197568,"internal_node_id":"0.0-103.0"},{"result":154,"points":3,"place":0,"phase":1,"sequence":31,"prices":[165,175,187,209,177,180,188,167,154,208],"times":[730,431,424,504,448,432,641,582,1025],"next_num":9,"trial_type":"ticket-choose","trial_index":104,"time_elapsed":1206232,"internal_node_id":"0.0-104.0"},{"result":197,"points":0,"place":8,"phase":1,"sequence":32,"prices":[192,172,171,178,188,165,217,168,195,197],"times":[470,415,470,487,362,803,419,774,705,1127],"next_num":10,"trial_type":"ticket-choose","trial_index":105,"time_elapsed":1216085,"internal_node_id":"0.0-105.0"},{"result":153,"points":3,"place":0,"phase":1,"sequence":33,"prices":[163,174,186,212,176,181,187,166,153,209],"times":[922,436,440,484,510,563,596,1299,1025],"next_num":9,"trial_type":"ticket-choose","trial_index":106,"time_elapsed":1226654,"internal_node_id":"0.0-106.0"},{"result":153,"points":2,"place":1,"phase":1,"sequence":34,"prices":[167,153,172,185,195,143,184,211,177,227],"times":[813,836],"next_num":2,"trial_type":"ticket-choose","trial_index":107,"time_elapsed":1230255,"internal_node_id":"0.0-107.0"},{"result":153,"points":3,"place":0,"phase":1,"sequence":35,"prices":[177,174,186,217,165,181,187,166,153,209],"times":[461,479,456,492,909,540,556,767,1238],"next_num":9,"trial_type":"ticket-choose","trial_index":108,"time_elapsed":1239981,"internal_node_id":"0.0-108.0"},{"result":153,"points":3,"place":0,"phase":1,"sequence":36,"prices":[177,175,186,210,165,179,187,166,153,208],"times":[2476,698,651,607,1384,557,524,1258,760],"next_num":9,"trial_type":"ticket-choose","trial_index":109,"time_elapsed":1252723,"internal_node_id":"0.0-109.0"},{"result":171,"points":1,"place":3,"phase":1,"sequence":37,"prices":[189,167,180,197,165,168,172,213,178,171],"times":[1018,799,517,518,1691,680,690,758,604,447],"next_num":10,"trial_type":"ticket-choose","trial_index":110,"time_elapsed":1264230,"internal_node_id":"0.0-110.0"},{"result":186,"points":1,"place":4,"phase":1,"sequence":38,"prices":[220,173,201,197,169,205,198,183,178,186],"times":[798,524,500,470,1188,525,533,573,682,571],"next_num":10,"trial_type":"ticket-choose","trial_index":111,"time_elapsed":1274279,"internal_node_id":"0.0-111.0"},{"result":150,"points":3,"place":0,"phase":1,"sequence":39,"prices":[190,150,175,161,188,207,157,194,178,199],"times":[2000,979],"next_num":2,"trial_type":"ticket-choose","trial_index":112,"time_elapsed":1279722,"internal_node_id":"0.0-112.0"},{"result":158,"points":2,"place":1,"phase":1,"sequence":40,"prices":[158,175,186,211,177,180,187,166,209,153],"times":[1011],"next_num":1,"trial_type":"ticket-choose","trial_index":113,"time_elapsed":1282528,"internal_node_id":"0.0-113.0"},{"result":155,"points":2,"place":1,"phase":1,"sequence":41,"prices":[200,207,155,158,156,168,167,135,178,177],"times":[905,468,894],"next_num":3,"trial_type":"ticket-choose","trial_index":114,"time_elapsed":1286996,"internal_node_id":"0.0-114.0"},{"result":154,"points":3,"place":0,"phase":1,"sequence":42,"prices":[187,201,165,172,196,174,178,154,172,180],"times":[566,721,988,508,525,518,1974,899],"next_num":8,"trial_type":"ticket-choose","trial_index":115,"time_elapsed":1297106,"internal_node_id":"0.0-115.0"},{"result":202,"points":0,"place":8,"phase":1,"sequence":43,"prices":[196,171,170,184,187,165,211,169,201,202],"times":[719,489,525,527,487,1813,667,829,644,1081],"next_num":10,"trial_type":"ticket-choose","trial_index":116,"time_elapsed":1308738,"internal_node_id":"0.0-116.0"},{"result":168,"points":1,"place":2,"phase":1,"sequence":44,"prices":[178,174,186,217,167,181,188,168,208,156],"times":[677,547,508,563,1339,1010,518,761],"next_num":8,"trial_type":"ticket-choose","trial_index":117,"time_elapsed":1317857,"internal_node_id":"0.0-117.0"},{"result":160,"points":1,"place":2,"phase":1,"sequence":45,"prices":[200,180,203,152,175,170,160,154,176,191],"times":[528,511,384,462,477,526,891],"next_num":7,"trial_type":"ticket-choose","trial_index":118,"time_elapsed":1324590,"internal_node_id":"0.0-118.0"},{"result":147,"points":3,"place":0,"phase":1,"sequence":46,"prices":[181,214,169,147,182,193,178,184,176,179],"times":[451,524,463,1040],"next_num":4,"trial_type":"ticket-choose","trial_index":119,"time_elapsed":1329786,"internal_node_id":"0.0-119.0"},{"result":165,"points":2,"place":1,"phase":1,"sequence":47,"prices":[193,174,224,165,187,190,224,161,194,195],"times":[648,470,500,1813],"next_num":4,"trial_type":"ticket-choose","trial_index":120,"time_elapsed":1335667,"internal_node_id":"0.0-120.0"},{"result":164,"points":3,"place":0,"phase":1,"sequence":48,"prices":[199,191,188,174,167,193,189,164,176,170],"times":[773,556,501,518,860,804,548,1058],"next_num":8,"trial_type":"ticket-choose","trial_index":121,"time_elapsed":1344457,"internal_node_id":"0.0-121.0"},{"result":158,"points":3,"place":0,"phase":1,"sequence":49,"prices":[214,184,226,192,215,158,199,175,176,208],"times":[448,464,541,462,517,926],"next_num":6,"trial_type":"ticket-choose","trial_index":122,"time_elapsed":1350683,"internal_node_id":"0.0-122.0"},{"responses":[{"value":0,"offby":-1,"category":"$115 - $130","category_index":0},{"value":4,"offby":-1,"category":"$131 - $145","category_index":1},{"value":16,"offby":4,"category":"$146 - $160","category_index":2},{"value":35,"offby":13,"category":"$161 - $175","category_index":3},{"value":25,"offby":-9,"category":"$176 - $190","category_index":4},{"value":15,"offby":0,"category":"$191 - $205","category_index":5},{"value":5,"offby":-6,"category":"$206 - $220","category_index":6}],"phase":1,"number":1,"trial_type":"bar-choose","trial_index":123,"time_elapsed":1393834,"internal_node_id":"0.0-123.0"},{"special_comment":"no","trial_type":"special_sequence","trial_index":124,"time_elapsed":1408300,"internal_node_id":"0.0-124.0"},{"during":"Nothing","bonus":280,"trial_type":"final","trial_index":125,"time_elapsed":1431303,"internal_node_id":"0.0-125.0"}],"bonus":280}