{"start_time":"2017-05-24 12:17:28","end_time":"2017-05-24 12:45:37","points_phase0":104,"points_phase1":100,"phase_order":0,"age":31,"gender":"f","tries":2,"during":"Nothing","worker_id":"AO7FM98CP90CL","assignment_id":"36WLNQG7803TJVSC8N9V3VEFC3OBEL","data":[{"rt":15134,"url":"\/christiane\/tickets\/utils\/consent.html","trial_type":"html","trial_index":0,"time_elapsed":15289,"internal_node_id":"0.0-0.0"},{"age":31,"gender":"f","trial_type":"age","trial_index":1,"time_elapsed":24607,"internal_node_id":"0.0-1.0"},{"worker_id":"AO7FM98CP90CL","trial_type":"workerid","trial_index":2,"time_elapsed":33604,"internal_node_id":"0.0-2.0"},{"tries":2,"trial_type":"instructions_check","trial_index":3,"time_elapsed":93574,"internal_node_id":"0.0-3.0"},{"rt":13565,"url":"\/christiane\/tickets\/utils\/start.html","trial_type":"html","trial_index":4,"time_elapsed":108252,"internal_node_id":"0.0-4.0"},{"trial_type":"number-animation","trial_index":5,"time_elapsed":156929,"internal_node_id":"0.0-5.0"},{"phase":0,"sequence":0,"avg":181,"response":172,"trial_type":"training_avg","trial_index":6,"time_elapsed":169457,"internal_node_id":"0.0-6.0"},{"trial_type":"number-animation","trial_index":7,"time_elapsed":202818,"internal_node_id":"0.0-7.0"},{"phase":0,"sequence":1,"avg":188,"response":190,"trial_type":"training_avg","trial_index":8,"time_elapsed":213482,"internal_node_id":"0.0-8.0"},{"trial_type":"number-animation","trial_index":9,"time_elapsed":246345,"internal_node_id":"0.0-9.0"},{"phase":0,"sequence":2,"avg":188,"response":183,"trial_type":"training_avg","trial_index":10,"time_elapsed":260256,"internal_node_id":"0.0-10.0"},{"trial_type":"number-animation","trial_index":11,"time_elapsed":298132,"internal_node_id":"0.0-11.0"},{"phase":0,"sequence":3,"avg":177,"response":171,"trial_type":"training_avg","trial_index":12,"time_elapsed":306938,"internal_node_id":"0.0-12.0"},{"trial_type":"number-animation","trial_index":13,"time_elapsed":342195,"internal_node_id":"0.0-13.0"},{"phase":0,"sequence":4,"avg":182,"response":179,"trial_type":"training_avg","trial_index":14,"time_elapsed":351234,"internal_node_id":"0.0-14.0"},{"responses":[{"value":0,"offby":-1,"category":"$115 - $130","category_index":0},{"value":8,"offby":3,"category":"$131 - $145","category_index":1},{"value":15,"offby":3,"category":"$146 - $160","category_index":2},{"value":23,"offby":1,"category":"$161 - $175","category_index":3},{"value":27,"offby":-7,"category":"$176 - $190","category_index":4},{"value":19,"offby":4,"category":"$191 - $205","category_index":5},{"value":8,"offby":-3,"category":"$206 - $220","category_index":6}],"phase":0,"number":0,"trial_type":"bar-choose","trial_index":15,"time_elapsed":493605,"internal_node_id":"0.0-15.0"},{"rt":11715,"url":"\/christiane\/tickets\/utils\/testing.html","trial_type":"html","trial_index":16,"time_elapsed":506445,"internal_node_id":"0.0-16.0"},{"phase":0,"order":[46,7,39,49,12,13,33,2,17,4,23,42,26,0,25,10,1,30,21,18,6,16,41,43,35,28,3,20,19,48,29,8,15,31,32,11,36,27,45,44,47,38,34,24,40,14,37,9,22,5],"trial_type":"store_order","trial_index":17,"time_elapsed":507451,"internal_node_id":"0.0-17.0"},{"result":165,"points":2,"place":1,"phase":0,"sequence":-1,"prices":[184,180,224,165,181,199,185,193,218,146],"times":[4356,1553,2230,1969],"next_num":4,"trial_type":"ticket-choose","trial_index":18,"time_elapsed":521054,"internal_node_id":"0.0-18.0"},{"rt":13336,"url":"\/christiane\/tickets\/utils\/testing_after.html","trial_type":"html","trial_index":19,"time_elapsed":535503,"internal_node_id":"0.0-19.0"},{"result":158,"points":3,"place":0,"phase":0,"sequence":0,"prices":[210,184,226,193,215,158,199,175,176,208],"times":[4921,1404,1043,991,912,1143],"next_num":6,"trial_type":"ticket-choose","trial_index":20,"time_elapsed":550065,"internal_node_id":"0.0-20.0"},{"result":165,"points":2,"place":1,"phase":0,"sequence":1,"prices":[175,187,165,209,180,188,177,166,154,208],"times":[2806,840,1220],"next_num":3,"trial_type":"ticket-choose","trial_index":21,"time_elapsed":558275,"internal_node_id":"0.0-21.0"},{"result":167,"points":2,"place":1,"phase":0,"sequence":2,"prices":[189,167,180,197,165,168,172,213,178,171],"times":[2127,2214],"next_num":2,"trial_type":"ticket-choose","trial_index":22,"time_elapsed":565062,"internal_node_id":"0.0-22.0"},{"result":166,"points":1,"place":3,"phase":0,"sequence":3,"prices":[183,163,185,180,166,148,160,186,176,184],"times":[1995,1085,746,733,1427],"next_num":5,"trial_type":"ticket-choose","trial_index":23,"time_elapsed":574543,"internal_node_id":"0.0-23.0"},{"result":153,"points":3,"place":0,"phase":0,"sequence":4,"prices":[175,186,163,214,179,187,176,166,153,208],"times":[1897,694,1016,746,875,815,968,1163,903],"next_num":9,"trial_type":"ticket-choose","trial_index":24,"time_elapsed":588032,"internal_node_id":"0.0-24.0"},{"result":154,"points":3,"place":0,"phase":0,"sequence":5,"prices":[175,187,163,209,180,188,176,165,154,208],"times":[15935,995,3562,677,648,654,602,1213,854],"next_num":9,"trial_type":"ticket-choose","trial_index":25,"time_elapsed":616890,"internal_node_id":"0.0-25.0"},{"result":167,"points":2,"place":1,"phase":0,"sequence":6,"prices":[183,182,192,168,173,205,167,187,165,170],"times":[3755,738,746,1124,754,888,2029],"next_num":7,"trial_type":"ticket-choose","trial_index":26,"time_elapsed":630429,"internal_node_id":"0.0-26.0"},{"result":169,"points":1,"place":2,"phase":0,"sequence":7,"prices":[175,186,167,225,179,187,178,169,209,153],"times":[2289,581,679,641,674,613,856,871],"next_num":8,"trial_type":"ticket-choose","trial_index":27,"time_elapsed":641376,"internal_node_id":"0.0-27.0"},{"result":163,"points":2,"place":1,"phase":0,"sequence":8,"prices":[174,186,176,217,181,187,163,166,153,209],"times":[2016,704,719,663,688,669,1117],"next_num":7,"trial_type":"ticket-choose","trial_index":28,"time_elapsed":651236,"internal_node_id":"0.0-28.0"},{"result":167,"points":2,"place":1,"phase":0,"sequence":9,"prices":[175,185,178,215,181,186,167,168,208,156],"times":[2258,729,763,798,696,696,1165],"next_num":7,"trial_type":"ticket-choose","trial_index":29,"time_elapsed":661716,"internal_node_id":"0.0-29.0"},{"result":158,"points":2,"place":1,"phase":0,"sequence":10,"prices":[176,187,177,225,181,187,158,165,208,153],"times":[1923,650,741,728,694,705,988],"next_num":7,"trial_type":"ticket-choose","trial_index":30,"time_elapsed":671526,"internal_node_id":"0.0-30.0"},{"result":143,"points":3,"place":0,"phase":0,"sequence":11,"prices":[222,173,202,197,143,205,198,183,178,186],"times":[1835,635,691,875,1026],"next_num":5,"trial_type":"ticket-choose","trial_index":31,"time_elapsed":679382,"internal_node_id":"0.0-31.0"},{"result":165,"points":2,"place":1,"phase":0,"sequence":12,"prices":[200,165,165,173,182,207,161,202,204,180],"times":[2062,1825],"next_num":2,"trial_type":"ticket-choose","trial_index":32,"time_elapsed":685448,"internal_node_id":"0.0-32.0"},{"result":168,"points":1,"place":2,"phase":0,"sequence":13,"prices":[174,186,167,211,181,188,178,168,208,156],"times":[1952,659,1191,784,754,739,763,976],"next_num":8,"trial_type":"ticket-choose","trial_index":33,"time_elapsed":696722,"internal_node_id":"0.0-33.0"},{"result":162,"points":3,"place":0,"phase":0,"sequence":14,"prices":[201,165,162,166,185,214,165,202,204,179],"times":[1835,684,1377],"next_num":3,"trial_type":"ticket-choose","trial_index":34,"time_elapsed":702974,"internal_node_id":"0.0-34.0"},{"result":165,"points":2,"place":1,"phase":0,"sequence":15,"prices":[175,187,177,209,180,188,165,165,154,208],"times":[2036,1797,1014,724,783,648,912],"next_num":7,"trial_type":"ticket-choose","trial_index":35,"time_elapsed":714333,"internal_node_id":"0.0-35.0"},{"result":168,"points":1,"place":2,"phase":0,"sequence":16,"prices":[175,185,167,224,181,186,178,168,208,156],"times":[18811,643,1159,669,762,1757,800,825],"next_num":8,"trial_type":"ticket-choose","trial_index":36,"time_elapsed":743283,"internal_node_id":"0.0-36.0"},{"result":165,"points":3,"place":0,"phase":0,"sequence":17,"prices":[191,172,169,175,182,203,170,195,165,176],"times":[1832,888,2672,651,902,763,2123,1121,1570],"next_num":9,"trial_type":"ticket-choose","trial_index":37,"time_elapsed":759614,"internal_node_id":"0.0-37.0"},{"result":158,"points":2,"place":1,"phase":0,"sequence":18,"prices":[175,186,177,221,180,187,158,166,209,153],"times":[1968,775,945,704,720,746,1058],"next_num":7,"trial_type":"ticket-choose","trial_index":38,"time_elapsed":770114,"internal_node_id":"0.0-38.0"},{"result":158,"points":2,"place":1,"phase":0,"sequence":19,"prices":[175,186,158,211,180,187,177,166,209,153],"times":[2139,628,1176],"next_num":3,"trial_type":"ticket-choose","trial_index":39,"time_elapsed":776566,"internal_node_id":"0.0-39.0"},{"result":166,"points":1,"place":2,"phase":0,"sequence":20,"prices":[175,186,165,214,179,187,177,166,153,208],"times":[1798,588,1084,808,833,683,740,929],"next_num":8,"trial_type":"ticket-choose","trial_index":40,"time_elapsed":787454,"internal_node_id":"0.0-40.0"},{"result":163,"points":2,"place":1,"phase":0,"sequence":21,"prices":[175,187,176,209,180,188,163,165,154,208],"times":[1772,1231,815,725,625,833,937],"next_num":7,"trial_type":"ticket-choose","trial_index":41,"time_elapsed":797686,"internal_node_id":"0.0-41.0"},{"result":155,"points":2,"place":1,"phase":0,"sequence":22,"prices":[201,207,155,158,156,165,167,135,178,177],"times":[1961,635,1079],"next_num":3,"trial_type":"ticket-choose","trial_index":42,"time_elapsed":803726,"internal_node_id":"0.0-42.0"},{"result":170,"points":2,"place":1,"phase":0,"sequence":23,"prices":[201,187,157,184,198,179,188,185,178,170],"times":[1913,563,577,661,533,627,540,699,609,687],"next_num":11,"trial_type":"ticket-choose","trial_index":43,"time_elapsed":815603,"internal_node_id":"0.0-43.0"},{"result":154,"points":2,"place":1,"phase":0,"sequence":24,"prices":[168,154,172,185,195,144,184,211,177,227],"times":[2096,916],"next_num":2,"trial_type":"ticket-choose","trial_index":44,"time_elapsed":820822,"internal_node_id":"0.0-44.0"},{"result":185,"points":1,"place":4,"phase":0,"sequence":25,"prices":[196,165,170,184,187,211,171,201,202,185],"times":[1875,1104,887,840,774,773,782,690,760,811],"next_num":11,"trial_type":"ticket-choose","trial_index":45,"time_elapsed":834133,"internal_node_id":"0.0-45.0"},{"result":167,"points":2,"place":1,"phase":0,"sequence":26,"prices":[174,186,178,217,181,188,167,168,208,156],"times":[2768,877,672,677,704,677,2062],"next_num":7,"trial_type":"ticket-choose","trial_index":46,"time_elapsed":845699,"internal_node_id":"0.0-46.0"},{"result":158,"points":2,"place":1,"phase":0,"sequence":27,"prices":[176,187,158,210,181,187,177,165,208,153],"times":[1962,1034,1025],"next_num":3,"trial_type":"ticket-choose","trial_index":47,"time_elapsed":852392,"internal_node_id":"0.0-47.0"},{"result":158,"points":2,"place":1,"phase":0,"sequence":28,"prices":[175,186,158,209,181,188,177,167,208,154],"times":[1889,643,980],"next_num":3,"trial_type":"ticket-choose","trial_index":48,"time_elapsed":858265,"internal_node_id":"0.0-48.0"},{"result":147,"points":3,"place":0,"phase":0,"sequence":29,"prices":[181,215,169,147,182,193,177,184,176,179],"times":[1747,759,1733,1015],"next_num":4,"trial_type":"ticket-choose","trial_index":49,"time_elapsed":866094,"internal_node_id":"0.0-49.0"},{"result":165,"points":3,"place":0,"phase":0,"sequence":30,"prices":[185,170,182,201,173,199,171,188,165,168],"times":[1825,711,712,729,739,1537,769,775,900],"next_num":9,"trial_type":"ticket-choose","trial_index":50,"time_elapsed":878418,"internal_node_id":"0.0-50.0"},{"result":167,"points":1,"place":2,"phase":0,"sequence":31,"prices":[174,186,165,212,181,187,177,167,153,209],"times":[2069,783,1458,705,687,542,739,1117],"next_num":8,"trial_type":"ticket-choose","trial_index":51,"time_elapsed":890349,"internal_node_id":"0.0-51.0"},{"result":163,"points":2,"place":1,"phase":0,"sequence":32,"prices":[175,186,176,210,179,187,163,166,153,208],"times":[2192,778,706,702,594,864,1682],"next_num":7,"trial_type":"ticket-choose","trial_index":52,"time_elapsed":901007,"internal_node_id":"0.0-52.0"},{"result":165,"points":3,"place":0,"phase":0,"sequence":33,"prices":[171,203,175,170,167,220,192,186,165,165],"times":[2101,797,792,725,1007,671,828,649,774],"next_num":9,"trial_type":"ticket-choose","trial_index":53,"time_elapsed":913123,"internal_node_id":"0.0-53.0"},{"result":165,"points":3,"place":0,"phase":0,"sequence":34,"prices":[193,169,171,187,190,224,174,194,165,188],"times":[1871,639,690,650,762,757,736,778,775],"next_num":9,"trial_type":"ticket-choose","trial_index":54,"time_elapsed":924459,"internal_node_id":"0.0-54.0"},{"result":165,"points":2,"place":1,"phase":0,"sequence":35,"prices":[174,186,177,217,181,187,165,166,153,209],"times":[2047,743,659,628,692,737,966],"next_num":7,"trial_type":"ticket-choose","trial_index":55,"time_elapsed":934158,"internal_node_id":"0.0-55.0"},{"result":154,"points":3,"place":0,"phase":0,"sequence":36,"prices":[188,200,165,172,198,174,177,154,177,180],"times":[2001,632,1058,620,668,660,630,1060],"next_num":8,"trial_type":"ticket-choose","trial_index":56,"time_elapsed":944922,"internal_node_id":"0.0-56.0"},{"result":186,"points":1,"place":4,"phase":0,"sequence":37,"prices":[192,165,171,178,188,217,172,195,197,186],"times":[1477,960,715,626,607,767,648,783,658,2419],"next_num":10,"trial_type":"ticket-choose","trial_index":57,"time_elapsed":958395,"internal_node_id":"0.0-57.0"},{"result":167,"points":2,"place":1,"phase":0,"sequence":38,"prices":[212,192,188,184,167,193,189,164,176,170],"times":[2007,1314,726,918,982],"next_num":5,"trial_type":"ticket-choose","trial_index":58,"time_elapsed":967069,"internal_node_id":"0.0-58.0"},{"result":159,"points":1,"place":2,"phase":0,"sequence":39,"prices":[180,159,149,175,185,141,163,174,178,207],"times":[1912,1232],"next_num":2,"trial_type":"ticket-choose","trial_index":59,"time_elapsed":972417,"internal_node_id":"0.0-59.0"},{"result":152,"points":3,"place":0,"phase":0,"sequence":40,"prices":[200,181,203,152,175,171,160,154,176,191],"times":[1570,675,1049,940],"next_num":4,"trial_type":"ticket-choose","trial_index":60,"time_elapsed":979247,"internal_node_id":"0.0-60.0"},{"result":163,"points":3,"place":0,"phase":0,"sequence":41,"prices":[168,199,196,198,185,195,227,163,177,166],"times":[2075,639,684,650,746,705,668,836],"next_num":8,"trial_type":"ticket-choose","trial_index":61,"time_elapsed":989668,"internal_node_id":"0.0-61.0"},{"result":155,"points":2,"place":1,"phase":0,"sequence":42,"prices":[181,155,148,161,168,187,172,199,176,194],"times":[2112,976],"next_num":2,"trial_type":"ticket-choose","trial_index":62,"time_elapsed":994875,"internal_node_id":"0.0-62.0"},{"result":184,"points":1,"place":4,"phase":0,"sequence":43,"prices":[193,165,175,181,185,224,180,199,218,184],"times":[1951,1080,653,620,586,651,575,620,598,2527],"next_num":10,"trial_type":"ticket-choose","trial_index":63,"time_elapsed":1008478,"internal_node_id":"0.0-63.0"},{"result":150,"points":3,"place":0,"phase":0,"sequence":44,"prices":[189,150,175,160,188,207,158,194,178,199],"times":[1732,1135],"next_num":2,"trial_type":"ticket-choose","trial_index":64,"time_elapsed":1013556,"internal_node_id":"0.0-64.0"},{"result":163,"points":2,"place":1,"phase":0,"sequence":45,"prices":[174,186,163,212,181,187,176,166,153,209],"times":[1481,674,917],"next_num":3,"trial_type":"ticket-choose","trial_index":65,"time_elapsed":1018909,"internal_node_id":"0.0-65.0"},{"result":163,"points":2,"place":1,"phase":0,"sequence":46,"prices":[198,193,169,163,202,182,152,164,177,171],"times":[2870,1530,677,1153],"next_num":4,"trial_type":"ticket-choose","trial_index":66,"time_elapsed":1027659,"internal_node_id":"0.0-66.0"},{"result":165,"points":2,"place":1,"phase":0,"sequence":47,"prices":[175,186,177,210,179,187,165,166,153,208],"times":[2042,832,663,713,706,745,989],"next_num":7,"trial_type":"ticket-choose","trial_index":67,"time_elapsed":1037839,"internal_node_id":"0.0-67.0"},{"result":158,"points":2,"place":1,"phase":0,"sequence":48,"prices":[175,186,177,209,181,188,158,167,208,154],"times":[1838,792,593,679,577,610,921],"next_num":7,"trial_type":"ticket-choose","trial_index":68,"time_elapsed":1047359,"internal_node_id":"0.0-68.0"},{"result":167,"points":2,"place":1,"phase":0,"sequence":49,"prices":[175,186,178,212,179,187,167,169,209,153],"times":[2326,554,524,829,542,617,923],"next_num":7,"trial_type":"ticket-choose","trial_index":69,"time_elapsed":1057334,"internal_node_id":"0.0-69.0"},{"responses":[{"value":0,"offby":-1,"category":"$115 - $130","category_index":0},{"value":5,"offby":0,"category":"$131 - $145","category_index":1},{"value":10,"offby":-2,"category":"$146 - $160","category_index":2},{"value":21,"offby":-1,"category":"$161 - $175","category_index":3},{"value":22,"offby":-12,"category":"$176 - $190","category_index":4},{"value":24,"offby":9,"category":"$191 - $205","category_index":5},{"value":18,"offby":7,"category":"$206 - $220","category_index":6}],"phase":1,"number":1,"trial_type":"bar-choose","trial_index":70,"time_elapsed":1119201,"internal_node_id":"0.0-70.0"},{"rt":19211,"url":"\/christiane\/tickets\/utils\/testing2.html","trial_type":"point_update","trial_index":71,"time_elapsed":1139862,"internal_node_id":"0.0-71.0"},{"phase":1,"order":[3,14,6,27,45,38,37,34,30,46,49,17,42,4,43,26,5,1,25,9,39,28,8,22,11,29,47,7,12,33,24,15,23,40,16,21,32,13,31,44,18,20,10,35,0,36,48,41,2,19],"trial_type":"store_order","trial_index":72,"time_elapsed":1140883,"internal_node_id":"0.0-72.0"},{"result":167,"points":2,"place":1,"phase":1,"sequence":0,"prices":[178,174,186,217,167,181,188,168,208,156],"times":[4824,657,612,623,947],"next_num":5,"trial_type":"ticket-choose","trial_index":73,"time_elapsed":1151415,"internal_node_id":"0.0-73.0"},{"result":163,"points":2,"place":1,"phase":1,"sequence":1,"prices":[163,174,186,212,176,181,187,166,153,209],"times":[42349],"next_num":1,"trial_type":"ticket-choose","trial_index":74,"time_elapsed":1196599,"internal_node_id":"0.0-74.0"},{"result":166,"points":1,"place":2,"phase":1,"sequence":2,"prices":[165,175,186,214,177,179,187,166,153,208],"times":[11126,595,596,554,533,570,632,803],"next_num":8,"trial_type":"ticket-choose","trial_index":75,"time_elapsed":1215641,"internal_node_id":"0.0-75.0"},{"result":165,"points":3,"place":0,"phase":1,"sequence":3,"prices":[192,172,171,178,188,165,217,168,195,197],"times":[1706,534,572,550,619,862],"next_num":6,"trial_type":"ticket-choose","trial_index":76,"time_elapsed":1223529,"internal_node_id":"0.0-76.0"},{"result":164,"points":3,"place":0,"phase":1,"sequence":4,"prices":[199,191,188,174,167,193,189,164,176,170],"times":[2101,628,723,990,608,820,596,956],"next_num":8,"trial_type":"ticket-choose","trial_index":77,"time_elapsed":1234285,"internal_node_id":"0.0-77.0"},{"result":163,"points":3,"place":0,"phase":1,"sequence":5,"prices":[163,199,196,199,185,195,227,163,177,166],"times":[2481],"next_num":1,"trial_type":"ticket-choose","trial_index":78,"time_elapsed":1238900,"internal_node_id":"0.0-78.0"},{"result":151,"points":3,"place":0,"phase":1,"sequence":6,"prices":[199,193,169,165,202,182,151,164,176,171],"times":[1834,600,650,725,703,609,921],"next_num":7,"trial_type":"ticket-choose","trial_index":79,"time_elapsed":1248075,"internal_node_id":"0.0-79.0"},{"result":195,"points":0,"place":8,"phase":1,"sequence":7,"prices":[180,156,149,160,168,186,172,198,176,195],"times":[1793,687,617,1492,654,650,787,610,640,633],"next_num":11,"trial_type":"ticket-choose","trial_index":80,"time_elapsed":1260727,"internal_node_id":"0.0-80.0"},{"result":165,"points":2,"place":1,"phase":1,"sequence":8,"prices":[191,170,182,165,175,182,203,157,195,200],"times":[2024,753,681,812],"next_num":4,"trial_type":"ticket-choose","trial_index":81,"time_elapsed":1267550,"internal_node_id":"0.0-81.0"},{"result":158,"points":3,"place":0,"phase":1,"sequence":9,"prices":[214,184,226,192,215,158,199,175,176,208],"times":[1813,667,823,981,867,932],"next_num":6,"trial_type":"ticket-choose","trial_index":82,"time_elapsed":1276535,"internal_node_id":"0.0-82.0"},{"result":163,"points":1,"place":2,"phase":1,"sequence":10,"prices":[173,163,185,181,166,148,160,185,176,184],"times":[2071,1186],"next_num":2,"trial_type":"ticket-choose","trial_index":83,"time_elapsed":1281957,"internal_node_id":"0.0-83.0"},{"result":163,"points":2,"place":1,"phase":1,"sequence":11,"prices":[176,186,178,217,163,181,187,166,153,209],"times":[2420,687,971,662,945],"next_num":5,"trial_type":"ticket-choose","trial_index":84,"time_elapsed":1290407,"internal_node_id":"0.0-84.0"},{"result":169,"points":3,"place":0,"phase":1,"sequence":12,"prices":[220,173,201,197,169,205,198,183,178,186],"times":[2509,834,738,861,971],"next_num":5,"trial_type":"ticket-choose","trial_index":85,"time_elapsed":1299157,"internal_node_id":"0.0-85.0"},{"result":167,"points":2,"place":1,"phase":1,"sequence":13,"prices":[178,175,185,215,167,181,186,168,208,156],"times":[2367,750,727,616,898],"next_num":5,"trial_type":"ticket-choose","trial_index":86,"time_elapsed":1307328,"internal_node_id":"0.0-86.0"},{"result":157,"points":3,"place":0,"phase":1,"sequence":14,"prices":[201,187,157,184,198,179,188,185,178,170],"times":[2148,661,968],"next_num":3,"trial_type":"ticket-choose","trial_index":87,"time_elapsed":1313431,"internal_node_id":"0.0-87.0"},{"result":169,"points":1,"place":3,"phase":1,"sequence":15,"prices":[200,173,182,169,207,165,152,202,161,204],"times":[3352,810,724,881],"next_num":4,"trial_type":"ticket-choose","trial_index":88,"time_elapsed":1321707,"internal_node_id":"0.0-88.0"},{"result":167,"points":2,"place":1,"phase":1,"sequence":16,"prices":[178,175,186,212,167,179,187,169,209,153],"times":[1986,659,790,784,961],"next_num":5,"trial_type":"ticket-choose","trial_index":89,"time_elapsed":1329719,"internal_node_id":"0.0-89.0"},{"result":168,"points":1,"place":2,"phase":1,"sequence":17,"prices":[167,175,185,224,178,181,186,168,208,156],"times":[1982,724,744,593,792,663,700,1247],"next_num":8,"trial_type":"ticket-choose","trial_index":90,"time_elapsed":1340621,"internal_node_id":"0.0-90.0"},{"result":166,"points":1,"place":3,"phase":1,"sequence":18,"prices":[201,204,179,166,185,165,214,156,202,165],"times":[1993,567,849,1710],"next_num":4,"trial_type":"ticket-choose","trial_index":91,"time_elapsed":1348293,"internal_node_id":"0.0-91.0"},{"result":165,"points":2,"place":1,"phase":1,"sequence":19,"prices":[177,175,186,210,165,179,187,166,153,208],"times":[1986,658,659,711,1223],"next_num":5,"trial_type":"ticket-choose","trial_index":92,"time_elapsed":1356303,"internal_node_id":"0.0-92.0"},{"result":165,"points":3,"place":0,"phase":1,"sequence":20,"prices":[189,167,180,197,165,168,172,213,178,171],"times":[2353,2850,855,623,955],"next_num":5,"trial_type":"ticket-choose","trial_index":93,"time_elapsed":1366662,"internal_node_id":"0.0-93.0"},{"result":165,"points":3,"place":0,"phase":1,"sequence":21,"prices":[196,171,170,184,187,165,211,169,201,202],"times":[1517,767,827,985,943,1088],"next_num":6,"trial_type":"ticket-choose","trial_index":94,"time_elapsed":1375686,"internal_node_id":"0.0-94.0"},{"result":166,"points":1,"place":2,"phase":1,"sequence":22,"prices":[165,174,186,212,177,181,187,166,153,209],"times":[4668,797,759,803,746,804,570,897],"next_num":8,"trial_type":"ticket-choose","trial_index":95,"time_elapsed":1389044,"internal_node_id":"0.0-95.0"},{"result":154,"points":3,"place":0,"phase":1,"sequence":23,"prices":[177,175,186,209,158,181,188,167,208,154],"times":[2043,725,773,792,687,797,623,1076,938,801],"next_num":10,"trial_type":"ticket-choose","trial_index":96,"time_elapsed":1402137,"internal_node_id":"0.0-96.0"},{"result":165,"points":2,"place":1,"phase":1,"sequence":24,"prices":[177,174,186,217,165,181,187,166,153,209],"times":[2316,717,1065,600,823],"next_num":5,"trial_type":"ticket-choose","trial_index":97,"time_elapsed":1410420,"internal_node_id":"0.0-97.0"},{"result":165,"points":1,"place":2,"phase":1,"sequence":25,"prices":[185,179,191,165,161,173,199,150,188,168],"times":[1639,671,863,1289],"next_num":4,"trial_type":"ticket-choose","trial_index":98,"time_elapsed":1417397,"internal_node_id":"0.0-98.0"},{"result":152,"points":3,"place":0,"phase":1,"sequence":26,"prices":[200,180,203,152,175,170,160,154,176,191],"times":[1849,569,641,974],"next_num":4,"trial_type":"ticket-choose","trial_index":99,"time_elapsed":1423887,"internal_node_id":"0.0-99.0"},{"result":154,"points":3,"place":0,"phase":1,"sequence":27,"prices":[165,175,187,209,177,180,188,167,154,208],"times":[1700,675,678,816,710,809,671,1362,799],"next_num":9,"trial_type":"ticket-choose","trial_index":100,"time_elapsed":1435694,"internal_node_id":"0.0-100.0"},{"result":163,"points":2,"place":1,"phase":1,"sequence":28,"prices":[163,175,186,214,176,179,187,166,153,208],"times":[2195],"next_num":1,"trial_type":"ticket-choose","trial_index":101,"time_elapsed":1439797,"internal_node_id":"0.0-101.0"},{"result":165,"points":2,"place":1,"phase":1,"sequence":29,"prices":[183,179,188,165,168,173,205,159,187,191],"times":[1777,609,690,1011],"next_num":4,"trial_type":"ticket-choose","trial_index":102,"time_elapsed":1446410,"internal_node_id":"0.0-102.0"},{"result":165,"points":3,"place":0,"phase":1,"sequence":30,"prices":[193,181,175,181,185,165,224,199,218,184],"times":[1809,615,594,631,607,925],"next_num":6,"trial_type":"ticket-choose","trial_index":103,"time_elapsed":1454573,"internal_node_id":"0.0-103.0"},{"result":163,"points":2,"place":1,"phase":1,"sequence":31,"prices":[176,175,186,210,163,179,187,166,153,208],"times":[1804,602,730,631,938],"next_num":5,"trial_type":"ticket-choose","trial_index":104,"time_elapsed":1462476,"internal_node_id":"0.0-104.0"},{"result":158,"points":2,"place":1,"phase":1,"sequence":32,"prices":[177,176,187,225,158,181,187,165,208,153],"times":[2331,3100,665,711,862],"next_num":5,"trial_type":"ticket-choose","trial_index":105,"time_elapsed":1472904,"internal_node_id":"0.0-105.0"},{"result":150,"points":3,"place":0,"phase":1,"sequence":33,"prices":[190,150,175,161,188,207,157,194,178,199],"times":[1806,994],"next_num":2,"trial_type":"ticket-choose","trial_index":106,"time_elapsed":1477877,"internal_node_id":"0.0-106.0"},{"result":163,"points":2,"place":1,"phase":1,"sequence":34,"prices":[176,187,179,209,163,180,188,165,154,208],"times":[2068,720,758,772,941],"next_num":5,"trial_type":"ticket-choose","trial_index":107,"time_elapsed":1485889,"internal_node_id":"0.0-107.0"},{"result":158,"points":2,"place":1,"phase":1,"sequence":35,"prices":[177,175,186,221,158,180,187,166,209,153],"times":[1714,667,674,610,897],"next_num":5,"trial_type":"ticket-choose","trial_index":108,"time_elapsed":1493172,"internal_node_id":"0.0-108.0"},{"result":165,"points":2,"place":1,"phase":1,"sequence":36,"prices":[193,174,224,165,187,190,224,161,194,195],"times":[1768,583,553,969],"next_num":4,"trial_type":"ticket-choose","trial_index":109,"time_elapsed":1499509,"internal_node_id":"0.0-109.0"},{"result":165,"points":1,"place":2,"phase":1,"sequence":37,"prices":[163,175,187,209,176,180,188,165,154,208],"times":[1821,393,519,549,545,653,622,839],"next_num":8,"trial_type":"ticket-choose","trial_index":110,"time_elapsed":1508809,"internal_node_id":"0.0-110.0"},{"result":163,"points":2,"place":1,"phase":1,"sequence":38,"prices":[171,169,186,165,163,167,220,148,187,165],"times":[1768,398,590,946,1331],"next_num":5,"trial_type":"ticket-choose","trial_index":111,"time_elapsed":1516568,"internal_node_id":"0.0-111.0"},{"result":159,"points":1,"place":2,"phase":1,"sequence":39,"prices":[181,159,149,175,185,151,163,174,178,207],"times":[2032,1032],"next_num":2,"trial_type":"ticket-choose","trial_index":112,"time_elapsed":1521826,"internal_node_id":"0.0-112.0"},{"result":158,"points":2,"place":1,"phase":1,"sequence":40,"prices":[158,175,186,211,177,180,187,166,209,153],"times":[2470],"next_num":1,"trial_type":"ticket-choose","trial_index":113,"time_elapsed":1526241,"internal_node_id":"0.0-113.0"},{"result":158,"points":2,"place":1,"phase":1,"sequence":41,"prices":[158,176,187,210,177,181,187,165,208,153],"times":[2182],"next_num":1,"trial_type":"ticket-choose","trial_index":114,"time_elapsed":1530324,"internal_node_id":"0.0-114.0"},{"result":165,"points":2,"place":1,"phase":1,"sequence":42,"prices":[177,175,187,209,165,180,188,165,154,208],"times":[1769,693,680,722,1082],"next_num":5,"trial_type":"ticket-choose","trial_index":115,"time_elapsed":1538039,"internal_node_id":"0.0-115.0"},{"result":153,"points":2,"place":1,"phase":1,"sequence":43,"prices":[167,153,172,185,195,143,184,211,177,227],"times":[2026,897],"next_num":2,"trial_type":"ticket-choose","trial_index":116,"time_elapsed":1543024,"internal_node_id":"0.0-116.0"},{"result":168,"points":1,"place":2,"phase":1,"sequence":44,"prices":[167,174,186,211,178,181,188,168,208,156],"times":[2951,728,612,694,704,761,593,927],"next_num":8,"trial_type":"ticket-choose","trial_index":117,"time_elapsed":1557142,"internal_node_id":"0.0-117.0"},{"result":165,"points":2,"place":1,"phase":1,"sequence":45,"prices":[187,201,165,172,196,174,178,154,172,180],"times":[1678,699,1084],"next_num":3,"trial_type":"ticket-choose","trial_index":118,"time_elapsed":1562879,"internal_node_id":"0.0-118.0"},{"result":169,"points":2,"place":1,"phase":1,"sequence":46,"prices":[181,214,169,147,182,193,178,184,176,179],"times":[1820,685,975],"next_num":3,"trial_type":"ticket-choose","trial_index":119,"time_elapsed":1568735,"internal_node_id":"0.0-119.0"},{"result":155,"points":2,"place":1,"phase":1,"sequence":47,"prices":[200,207,155,158,156,168,167,135,178,177],"times":[1903,611,857],"next_num":3,"trial_type":"ticket-choose","trial_index":120,"time_elapsed":1574737,"internal_node_id":"0.0-120.0"},{"result":169,"points":1,"place":2,"phase":1,"sequence":48,"prices":[167,175,186,225,178,179,187,169,209,153],"times":[2506,552,538,536,552,540,496,940],"next_num":8,"trial_type":"ticket-choose","trial_index":121,"time_elapsed":1584812,"internal_node_id":"0.0-121.0"},{"result":167,"points":1,"place":2,"phase":1,"sequence":49,"prices":[158,175,186,209,177,181,188,167,208,154],"times":[2615,688,568,717,724,677,647,917],"next_num":8,"trial_type":"ticket-choose","trial_index":122,"time_elapsed":1595913,"internal_node_id":"0.0-122.0"},{"responses":[{"value":0,"offby":-1,"category":"$115 - $130","category_index":0},{"value":3,"offby":-2,"category":"$131 - $145","category_index":1},{"value":12,"offby":0,"category":"$146 - $160","category_index":2},{"value":18,"offby":-4,"category":"$161 - $175","category_index":3},{"value":22,"offby":-12,"category":"$176 - $190","category_index":4},{"value":20,"offby":5,"category":"$191 - $205","category_index":5},{"value":22,"offby":11,"category":"$206 - $220","category_index":6}],"phase":1,"number":1,"trial_type":"bar-choose","trial_index":123,"time_elapsed":1660113,"internal_node_id":"0.0-123.0"},{"special_comment":"No","trial_type":"special_sequence","trial_index":124,"time_elapsed":1667320,"internal_node_id":"0.0-124.0"},{"during":"Nothing","bonus":272,"trial_type":"final","trial_index":125,"time_elapsed":1686364,"internal_node_id":"0.0-125.0"}],"bonus":272}