{"start_time":"2017-05-24 13:06:56","end_time":"2017-05-24 13:27:33","points_phase0":93,"points_phase1":82,"phase_order":1,"age":28,"gender":"m","tries":1,"during":"Nothing","worker_id":"AOAQK9URS9KUR","assignment_id":"3UNH76FOCTYN8RD0ZDBYOEHP6EWYMB","data":[{"rt":7951,"url":"\/christiane\/tickets\/utils\/consent.html","trial_type":"html","trial_index":0,"time_elapsed":8230,"internal_node_id":"0.0-0.0"},{"age":28,"gender":"m","trial_type":"age","trial_index":1,"time_elapsed":17653,"internal_node_id":"0.0-1.0"},{"worker_id":"AOAQK9URS9KUR","trial_type":"workerid","trial_index":2,"time_elapsed":24548,"internal_node_id":"0.0-2.0"},{"tries":1,"trial_type":"instructions_check","trial_index":3,"time_elapsed":70653,"internal_node_id":"0.0-3.0"},{"rt":5824,"url":"\/christiane\/tickets\/utils\/start.html","trial_type":"html","trial_index":4,"time_elapsed":77717,"internal_node_id":"0.0-4.0"},{"trial_type":"number-animation","trial_index":5,"time_elapsed":104685,"internal_node_id":"0.0-5.0"},{"phase":0,"sequence":0,"avg":181,"response":175,"trial_type":"training_avg","trial_index":6,"time_elapsed":114845,"internal_node_id":"0.0-6.0"},{"trial_type":"number-animation","trial_index":7,"time_elapsed":125805,"internal_node_id":"0.0-7.0"},{"phase":0,"sequence":1,"avg":188,"response":180,"trial_type":"training_avg","trial_index":8,"time_elapsed":132565,"internal_node_id":"0.0-8.0"},{"trial_type":"number-animation","trial_index":9,"time_elapsed":141045,"internal_node_id":"0.0-9.0"},{"phase":0,"sequence":2,"avg":188,"response":187,"trial_type":"training_avg","trial_index":10,"time_elapsed":151133,"internal_node_id":"0.0-10.0"},{"trial_type":"number-animation","trial_index":11,"time_elapsed":158181,"internal_node_id":"0.0-11.0"},{"phase":0,"sequence":3,"avg":177,"response":181,"trial_type":"training_avg","trial_index":12,"time_elapsed":165253,"internal_node_id":"0.0-12.0"},{"trial_type":"number-animation","trial_index":13,"time_elapsed":172349,"internal_node_id":"0.0-13.0"},{"phase":0,"sequence":4,"avg":182,"response":173,"trial_type":"training_avg","trial_index":14,"time_elapsed":179596,"internal_node_id":"0.0-14.0"},{"responses":[{"value":0,"offby":-1,"category":"$115 - $130","category_index":0},{"value":0,"offby":-5,"category":"$131 - $145","category_index":1},{"value":0,"offby":-12,"category":"$146 - $160","category_index":2},{"value":0,"offby":-22,"category":"$161 - $175","category_index":3},{"value":41,"offby":7,"category":"$176 - $190","category_index":4},{"value":32,"offby":17,"category":"$191 - $205","category_index":5},{"value":27,"offby":16,"category":"$206 - $220","category_index":6}],"phase":0,"number":0,"trial_type":"bar-choose","trial_index":15,"time_elapsed":216398,"internal_node_id":"0.0-15.0"},{"rt":3626,"url":"\/christiane\/tickets\/utils\/testing.html","trial_type":"html","trial_index":16,"time_elapsed":221268,"internal_node_id":"0.0-16.0"},{"phase":0,"order":[9,1,21,6,40,27,2,16,31,35,12,48,33,23,8,10,49,11,46,4,13,15,47,18,36,14,17,34,28,30,38,37,26,44,39,5,42,43,24,45,7,3,20,32,22,41,19,29,0,25],"trial_type":"store_order","trial_index":17,"time_elapsed":222270,"internal_node_id":"0.0-17.0"},{"result":199,"points":0,"place":7,"phase":0,"sequence":-1,"prices":[184,180,224,165,181,199,185,193,218,146],"times":[3677,1110,846,1111,566,1126],"next_num":6,"trial_type":"ticket-choose","trial_index":18,"time_elapsed":234677,"internal_node_id":"0.0-18.0"},{"rt":250447,"url":"\/christiane\/tickets\/utils\/testing_after.html","trial_type":"html","trial_index":19,"time_elapsed":486371,"internal_node_id":"0.0-19.0"},{"result":175,"points":1,"place":3,"phase":0,"sequence":0,"prices":[178,175,185,215,167,181,186,168,208,156],"times":[2729,1030],"next_num":2,"trial_type":"ticket-choose","trial_index":20,"time_elapsed":493634,"internal_node_id":"0.0-20.0"},{"result":166,"points":1,"place":2,"phase":0,"sequence":1,"prices":[163,175,186,214,176,179,187,166,153,208],"times":[1401,575,527,614,790,639,598,1079],"next_num":8,"trial_type":"ticket-choose","trial_index":21,"time_elapsed":503586,"internal_node_id":"0.0-21.0"},{"result":167,"points":1,"place":2,"phase":0,"sequence":2,"prices":[165,175,187,209,177,180,188,167,154,208],"times":[1033,598,591,583,583,639,557,1062],"next_num":8,"trial_type":"ticket-choose","trial_index":22,"time_elapsed":513050,"internal_node_id":"0.0-22.0"},{"result":155,"points":2,"place":1,"phase":0,"sequence":3,"prices":[200,207,155,158,156,168,167,135,178,177],"times":[1026,550,1263],"next_num":3,"trial_type":"ticket-choose","trial_index":23,"time_elapsed":518634,"internal_node_id":"0.0-23.0"},{"result":157,"points":3,"place":0,"phase":0,"sequence":4,"prices":[201,187,157,184,198,179,188,185,178,170],"times":[835,639,1057],"next_num":3,"trial_type":"ticket-choose","trial_index":24,"time_elapsed":524546,"internal_node_id":"0.0-24.0"},{"result":165,"points":2,"place":1,"phase":0,"sequence":5,"prices":[177,175,187,209,165,180,188,165,154,208],"times":[553,488,1016,791,613,687,639,758],"next_num":8,"trial_type":"ticket-choose","trial_index":25,"time_elapsed":533530,"internal_node_id":"0.0-25.0"},{"result":165,"points":2,"place":1,"phase":0,"sequence":6,"prices":[183,179,188,165,168,173,205,159,187,191],"times":[2602,311,480,782],"next_num":4,"trial_type":"ticket-choose","trial_index":26,"time_elapsed":540162,"internal_node_id":"0.0-26.0"},{"result":165,"points":1,"place":2,"phase":0,"sequence":7,"prices":[163,175,187,209,176,180,188,165,154,208],"times":[1562,359,327,255,255,280,271,1046],"next_num":8,"trial_type":"ticket-choose","trial_index":27,"time_elapsed":547858,"internal_node_id":"0.0-27.0"},{"result":154,"points":3,"place":0,"phase":0,"sequence":8,"prices":[158,175,186,209,177,181,188,167,208,154],"times":[665,647,543,591,455,463,431,407,439,375],"next_num":11,"trial_type":"ticket-choose","trial_index":28,"time_elapsed":567290,"internal_node_id":"0.0-28.0"},{"result":158,"points":2,"place":1,"phase":0,"sequence":9,"prices":[177,175,186,209,158,181,188,167,208,154],"times":[1714,575,687,543,975],"next_num":5,"trial_type":"ticket-choose","trial_index":29,"time_elapsed":574825,"internal_node_id":"0.0-29.0"},{"result":159,"points":1,"place":2,"phase":0,"sequence":10,"prices":[181,159,149,175,185,151,163,174,178,207],"times":[1058,1351],"next_num":2,"trial_type":"ticket-choose","trial_index":30,"time_elapsed":579418,"internal_node_id":"0.0-30.0"},{"result":153,"points":3,"place":0,"phase":0,"sequence":11,"prices":[163,174,186,212,176,181,187,166,153,209],"times":[690,463,311,263,463,447,479,485,871],"next_num":9,"trial_type":"ticket-choose","trial_index":31,"time_elapsed":587626,"internal_node_id":"0.0-31.0"},{"result":156,"points":3,"place":0,"phase":0,"sequence":12,"prices":[167,175,185,224,178,181,186,168,208,156],"times":[666,510,343,319,398,391,383,398,599,1016],"next_num":10,"trial_type":"ticket-choose","trial_index":32,"time_elapsed":596594,"internal_node_id":"0.0-32.0"},{"result":156,"points":2,"place":1,"phase":0,"sequence":13,"prices":[180,156,149,160,168,186,172,198,176,195],"times":[939,751],"next_num":2,"trial_type":"ticket-choose","trial_index":33,"time_elapsed":600394,"internal_node_id":"0.0-33.0"},{"result":166,"points":1,"place":2,"phase":0,"sequence":14,"prices":[165,175,186,214,177,179,187,166,153,208],"times":[618,358,463,606,465,485,487,767],"next_num":8,"trial_type":"ticket-choose","trial_index":34,"time_elapsed":607922,"internal_node_id":"0.0-34.0"},{"result":153,"points":3,"place":0,"phase":0,"sequence":15,"prices":[176,186,178,217,163,181,187,166,153,209],"times":[578,343,240,246,279,438,445,431,766],"next_num":9,"trial_type":"ticket-choose","trial_index":35,"time_elapsed":615273,"internal_node_id":"0.0-35.0"},{"result":153,"points":3,"place":0,"phase":0,"sequence":16,"prices":[177,175,186,210,165,179,187,166,153,208],"times":[627,327,303,374,303,367,463,503,975],"next_num":9,"trial_type":"ticket-choose","trial_index":36,"time_elapsed":623042,"internal_node_id":"0.0-36.0"},{"result":173,"points":1,"place":4,"phase":0,"sequence":17,"prices":[200,173,182,169,207,165,152,202,161,204],"times":[41786,878],"next_num":2,"trial_type":"ticket-choose","trial_index":37,"time_elapsed":667818,"internal_node_id":"0.0-37.0"},{"result":166,"points":1,"place":3,"phase":0,"sequence":18,"prices":[201,204,179,166,185,165,214,156,202,165],"times":[881,591,335,727],"next_num":4,"trial_type":"ticket-choose","trial_index":38,"time_elapsed":672770,"internal_node_id":"0.0-38.0"},{"result":178,"points":1,"place":4,"phase":0,"sequence":19,"prices":[192,172,171,178,188,165,217,168,195,197],"times":[473,271,510,616],"next_num":4,"trial_type":"ticket-choose","trial_index":39,"time_elapsed":676979,"internal_node_id":"0.0-39.0"},{"result":153,"points":3,"place":0,"phase":0,"sequence":20,"prices":[167,175,186,225,178,179,187,169,209,153],"times":[761,552,502,527,455,422,478,455,766,719],"next_num":10,"trial_type":"ticket-choose","trial_index":40,"time_elapsed":686466,"internal_node_id":"0.0-40.0"},{"result":174,"points":1,"place":3,"phase":0,"sequence":21,"prices":[199,191,188,174,167,193,189,164,176,170],"times":[3259,479,591,750],"next_num":4,"trial_type":"ticket-choose","trial_index":41,"time_elapsed":693962,"internal_node_id":"0.0-41.0"},{"result":153,"points":3,"place":0,"phase":0,"sequence":22,"prices":[177,176,187,225,158,181,187,165,208,153],"times":[673,504,486,334,358,760,518,463,686,752],"next_num":10,"trial_type":"ticket-choose","trial_index":42,"time_elapsed":703234,"internal_node_id":"0.0-42.0"},{"result":163,"points":1,"place":2,"phase":0,"sequence":23,"prices":[173,163,185,181,166,148,160,185,176,184],"times":[31601,1376],"next_num":2,"trial_type":"ticket-choose","trial_index":43,"time_elapsed":738481,"internal_node_id":"0.0-43.0"},{"result":184,"points":1,"place":4,"phase":0,"sequence":24,"prices":[193,181,175,181,185,165,224,199,218,184],"times":[803,439,431,415,294,335,623,567,527,599],"next_num":11,"trial_type":"ticket-choose","trial_index":44,"time_elapsed":747376,"internal_node_id":"0.0-44.0"},{"result":171,"points":1,"place":3,"phase":0,"sequence":25,"prices":[196,171,170,184,187,165,211,169,201,202],"times":[907,823],"next_num":2,"trial_type":"ticket-choose","trial_index":45,"time_elapsed":751130,"internal_node_id":"0.0-45.0"},{"result":169,"points":3,"place":0,"phase":0,"sequence":26,"prices":[220,173,201,197,169,205,198,183,178,186],"times":[498,567,583,511,823],"next_num":5,"trial_type":"ticket-choose","trial_index":46,"time_elapsed":756689,"internal_node_id":"0.0-46.0"},{"result":163,"points":2,"place":1,"phase":0,"sequence":27,"prices":[176,175,186,210,163,179,187,166,153,208],"times":[2339,527,607,567,751],"next_num":5,"trial_type":"ticket-choose","trial_index":47,"time_elapsed":764137,"internal_node_id":"0.0-47.0"},{"result":153,"points":2,"place":1,"phase":0,"sequence":28,"prices":[167,153,172,185,195,143,184,211,177,227],"times":[1051,783],"next_num":2,"trial_type":"ticket-choose","trial_index":48,"time_elapsed":767960,"internal_node_id":"0.0-48.0"},{"result":165,"points":2,"place":1,"phase":0,"sequence":29,"prices":[191,170,182,165,175,182,203,157,195,200],"times":[619,559,559,1015],"next_num":4,"trial_type":"ticket-choose","trial_index":49,"time_elapsed":773104,"internal_node_id":"0.0-49.0"},{"result":163,"points":3,"place":0,"phase":0,"sequence":30,"prices":[163,199,196,199,185,195,227,163,177,166],"times":[683,520,559,520,558,511,568,783],"next_num":8,"trial_type":"ticket-choose","trial_index":50,"time_elapsed":780945,"internal_node_id":"0.0-50.0"},{"result":179,"points":1,"place":4,"phase":0,"sequence":31,"prices":[181,214,169,147,182,193,178,184,176,179],"times":[609,423,471,471,711,544,526,863,839,591],"next_num":10,"trial_type":"ticket-choose","trial_index":51,"time_elapsed":790761,"internal_node_id":"0.0-51.0"},{"result":165,"points":2,"place":1,"phase":0,"sequence":32,"prices":[187,201,165,172,196,174,178,154,172,180],"times":[762,606,703],"next_num":3,"trial_type":"ticket-choose","trial_index":52,"time_elapsed":794953,"internal_node_id":"0.0-52.0"},{"result":175,"points":1,"place":3,"phase":0,"sequence":33,"prices":[177,175,186,221,158,180,187,166,209,153],"times":[1064,760],"next_num":2,"trial_type":"ticket-choose","trial_index":53,"time_elapsed":798672,"internal_node_id":"0.0-53.0"},{"result":165,"points":1,"place":2,"phase":0,"sequence":34,"prices":[185,179,191,165,161,173,199,150,188,168],"times":[656,502,607,816],"next_num":4,"trial_type":"ticket-choose","trial_index":54,"time_elapsed":803577,"internal_node_id":"0.0-54.0"},{"result":158,"points":3,"place":0,"phase":0,"sequence":35,"prices":[214,184,226,192,215,158,199,175,176,208],"times":[456,551,550,695,551,687],"next_num":6,"trial_type":"ticket-choose","trial_index":55,"time_elapsed":809793,"internal_node_id":"0.0-55.0"},{"result":152,"points":3,"place":0,"phase":0,"sequence":36,"prices":[200,180,203,152,175,170,160,154,176,191],"times":[691,768,639,1040],"next_num":4,"trial_type":"ticket-choose","trial_index":56,"time_elapsed":815297,"internal_node_id":"0.0-56.0"},{"result":156,"points":3,"place":0,"phase":0,"sequence":37,"prices":[167,174,186,211,178,181,188,168,208,156],"times":[498,950,511,521,510,839,517,486,758,551],"next_num":10,"trial_type":"ticket-choose","trial_index":57,"time_elapsed":825000,"internal_node_id":"0.0-57.0"},{"result":150,"points":3,"place":0,"phase":0,"sequence":38,"prices":[190,150,175,161,188,207,157,194,178,199],"times":[538,717],"next_num":2,"trial_type":"ticket-choose","trial_index":58,"time_elapsed":828146,"internal_node_id":"0.0-58.0"},{"result":165,"points":1,"place":2,"phase":0,"sequence":39,"prices":[171,169,186,165,163,167,220,148,187,165],"times":[536,608,615,768],"next_num":4,"trial_type":"ticket-choose","trial_index":59,"time_elapsed":832930,"internal_node_id":"0.0-59.0"},{"result":165,"points":2,"place":1,"phase":0,"sequence":40,"prices":[193,174,224,165,187,190,224,161,194,195],"times":[497,574,575,815],"next_num":4,"trial_type":"ticket-choose","trial_index":60,"time_elapsed":837800,"internal_node_id":"0.0-60.0"},{"result":165,"points":2,"place":1,"phase":0,"sequence":41,"prices":[165,174,186,212,177,181,187,166,153,209],"times":[1482],"next_num":1,"trial_type":"ticket-choose","trial_index":61,"time_elapsed":841081,"internal_node_id":"0.0-61.0"},{"result":168,"points":1,"place":2,"phase":0,"sequence":42,"prices":[178,174,186,217,167,181,188,168,208,156],"times":[546,503,496,567,647,495,567,734],"next_num":8,"trial_type":"ticket-choose","trial_index":62,"time_elapsed":848753,"internal_node_id":"0.0-62.0"},{"result":167,"points":2,"place":1,"phase":0,"sequence":43,"prices":[189,167,180,197,165,168,172,213,178,171],"times":[659,935],"next_num":2,"trial_type":"ticket-choose","trial_index":63,"time_elapsed":852337,"internal_node_id":"0.0-63.0"},{"result":158,"points":2,"place":1,"phase":0,"sequence":44,"prices":[158,176,187,210,177,181,187,165,208,153],"times":[1129],"next_num":1,"trial_type":"ticket-choose","trial_index":64,"time_elapsed":855425,"internal_node_id":"0.0-64.0"},{"result":166,"points":1,"place":2,"phase":0,"sequence":45,"prices":[177,174,186,217,165,181,187,166,153,209],"times":[865,455,456,487,495,503,511,871],"next_num":8,"trial_type":"ticket-choose","trial_index":65,"time_elapsed":863153,"internal_node_id":"0.0-65.0"},{"result":179,"points":1,"place":4,"phase":0,"sequence":46,"prices":[176,187,179,209,163,180,188,165,154,208],"times":[952,536,1281],"next_num":3,"trial_type":"ticket-choose","trial_index":66,"time_elapsed":868089,"internal_node_id":"0.0-66.0"},{"result":169,"points":1,"place":3,"phase":0,"sequence":47,"prices":[199,193,169,165,202,182,151,164,176,171],"times":[473,535,6352],"next_num":3,"trial_type":"ticket-choose","trial_index":67,"time_elapsed":877817,"internal_node_id":"0.0-67.0"},{"result":175,"points":1,"place":3,"phase":0,"sequence":48,"prices":[178,175,186,212,167,179,187,169,209,153],"times":[3489,894],"next_num":2,"trial_type":"ticket-choose","trial_index":68,"time_elapsed":884217,"internal_node_id":"0.0-68.0"},{"result":153,"points":3,"place":0,"phase":0,"sequence":49,"prices":[158,175,186,211,177,180,187,166,209,153],"times":[1345,535,504,567,599,495,469,486,766,711],"next_num":10,"trial_type":"ticket-choose","trial_index":69,"time_elapsed":894417,"internal_node_id":"0.0-69.0"},{"responses":[{"value":0,"offby":-1,"category":"$115 - $130","category_index":0},{"value":10,"offby":5,"category":"$131 - $145","category_index":1},{"value":29,"offby":17,"category":"$146 - $160","category_index":2},{"value":42,"offby":20,"category":"$161 - $175","category_index":3},{"value":19,"offby":-15,"category":"$176 - $190","category_index":4},{"value":0,"offby":-15,"category":"$191 - $205","category_index":5},{"value":0,"offby":-11,"category":"$206 - $220","category_index":6}],"phase":1,"number":1,"trial_type":"bar-choose","trial_index":70,"time_elapsed":916754,"internal_node_id":"0.0-70.0"},{"rt":3413,"url":"\/christiane\/tickets\/utils\/testing2.html","trial_type":"point_update","trial_index":71,"time_elapsed":921593,"internal_node_id":"0.0-71.0"},{"phase":1,"order":[4,12,7,41,43,10,33,13,19,22,44,14,1,34,6,17,9,26,25,27,2,45,23,49,24,28,42,15,35,30,38,48,36,21,29,46,47,0,40,31,32,8,3,39,20,11,16,37,5,18],"trial_type":"store_order","trial_index":72,"time_elapsed":922595,"internal_node_id":"0.0-72.0"},{"result":177,"points":1,"place":4,"phase":1,"sequence":0,"prices":[175,186,177,210,179,187,165,166,153,208],"times":[2151,566,831],"next_num":3,"trial_type":"ticket-choose","trial_index":73,"time_elapsed":928521,"internal_node_id":"0.0-73.0"},{"result":186,"points":0,"place":7,"phase":1,"sequence":1,"prices":[175,185,167,224,181,186,178,168,208,156],"times":[616,551,311,544,453,390],"next_num":6,"trial_type":"ticket-choose","trial_index":74,"time_elapsed":934752,"internal_node_id":"0.0-74.0"},{"result":158,"points":2,"place":1,"phase":1,"sequence":2,"prices":[175,186,177,221,180,187,158,166,209,153],"times":[601,487,472,534,511,551,759],"next_num":7,"trial_type":"ticket-choose","trial_index":75,"time_elapsed":941720,"internal_node_id":"0.0-75.0"},{"result":179,"points":0,"place":5,"phase":1,"sequence":3,"prices":[175,186,165,214,179,187,177,166,153,208],"times":[553,470,359,551,839],"next_num":5,"trial_type":"ticket-choose","trial_index":76,"time_elapsed":946993,"internal_node_id":"0.0-76.0"},{"result":150,"points":3,"place":0,"phase":1,"sequence":4,"prices":[189,150,175,160,188,207,158,194,178,199],"times":[585,703],"next_num":2,"trial_type":"ticket-choose","trial_index":77,"time_elapsed":950224,"internal_node_id":"0.0-77.0"},{"result":165,"points":3,"place":0,"phase":1,"sequence":5,"prices":[192,165,171,178,188,217,172,195,197,186],"times":[634,727],"next_num":2,"trial_type":"ticket-choose","trial_index":78,"time_elapsed":953472,"internal_node_id":"0.0-78.0"},{"result":167,"points":2,"place":1,"phase":1,"sequence":6,"prices":[175,186,167,225,179,187,178,169,209,153],"times":[568,511,671],"next_num":3,"trial_type":"ticket-choose","trial_index":79,"time_elapsed":957264,"internal_node_id":"0.0-79.0"},{"result":163,"points":2,"place":1,"phase":1,"sequence":7,"prices":[175,187,176,209,180,188,163,165,154,208],"times":[610,526,879,751,624,519,1022],"next_num":7,"trial_type":"ticket-choose","trial_index":80,"time_elapsed":965136,"internal_node_id":"0.0-80.0"},{"result":175,"points":0,"place":5,"phase":1,"sequence":8,"prices":[171,203,175,170,167,220,192,186,165,165],"times":[601,583,670],"next_num":3,"trial_type":"ticket-choose","trial_index":81,"time_elapsed":968992,"internal_node_id":"0.0-81.0"},{"result":154,"points":2,"place":1,"phase":1,"sequence":9,"prices":[168,154,172,185,195,144,184,211,177,227],"times":[490,736],"next_num":2,"trial_type":"ticket-choose","trial_index":82,"time_elapsed":972056,"internal_node_id":"0.0-82.0"},{"result":163,"points":2,"place":1,"phase":1,"sequence":10,"prices":[175,186,163,214,179,187,176,166,153,208],"times":[593,502,816],"next_num":3,"trial_type":"ticket-choose","trial_index":83,"time_elapsed":976008,"internal_node_id":"0.0-83.0"},{"result":169,"points":2,"place":1,"phase":1,"sequence":11,"prices":[181,215,169,147,182,193,177,184,176,179],"times":[5187,638,783],"next_num":3,"trial_type":"ticket-choose","trial_index":84,"time_elapsed":984784,"internal_node_id":"0.0-84.0"},{"result":168,"points":1,"place":2,"phase":1,"sequence":12,"prices":[183,182,192,168,173,205,167,187,165,170],"times":[890,551,543,879],"next_num":4,"trial_type":"ticket-choose","trial_index":85,"time_elapsed":990048,"internal_node_id":"0.0-85.0"},{"result":177,"points":1,"place":4,"phase":1,"sequence":13,"prices":[176,187,177,225,181,187,158,165,208,153],"times":[931,534,782],"next_num":3,"trial_type":"ticket-choose","trial_index":86,"time_elapsed":994368,"internal_node_id":"0.0-86.0"},{"result":165,"points":2,"place":1,"phase":1,"sequence":14,"prices":[174,186,165,212,181,187,177,167,153,209],"times":[562,543,799],"next_num":3,"trial_type":"ticket-choose","trial_index":87,"time_elapsed":998344,"internal_node_id":"0.0-87.0"},{"result":177,"points":1,"place":4,"phase":1,"sequence":15,"prices":[175,187,177,209,180,188,165,165,154,208],"times":[562,630,615],"next_num":3,"trial_type":"ticket-choose","trial_index":88,"time_elapsed":1002240,"internal_node_id":"0.0-88.0"},{"result":163,"points":1,"place":2,"phase":1,"sequence":16,"prices":[183,163,185,180,166,148,160,186,176,184],"times":[1890,822],"next_num":2,"trial_type":"ticket-choose","trial_index":89,"time_elapsed":1006888,"internal_node_id":"0.0-89.0"},{"result":166,"points":1,"place":2,"phase":1,"sequence":17,"prices":[174,186,177,217,181,187,165,166,153,209],"times":[600,552,503,743,615,495,463,590],"next_num":8,"trial_type":"ticket-choose","trial_index":90,"time_elapsed":1014568,"internal_node_id":"0.0-90.0"},{"result":158,"points":3,"place":0,"phase":1,"sequence":18,"prices":[210,184,226,193,215,158,199,175,176,208],"times":[578,486,543,527,551,775],"next_num":6,"trial_type":"ticket-choose","trial_index":91,"time_elapsed":1020648,"internal_node_id":"0.0-91.0"},{"result":168,"points":1,"place":2,"phase":1,"sequence":19,"prices":[175,185,178,215,181,186,167,168,208,156],"times":[770,502,607,583,535,567,558,638],"next_num":8,"trial_type":"ticket-choose","trial_index":92,"time_elapsed":1028512,"internal_node_id":"0.0-92.0"},{"result":163,"points":2,"place":1,"phase":1,"sequence":20,"prices":[175,187,163,209,180,188,176,165,154,208],"times":[771,592,727],"next_num":3,"trial_type":"ticket-choose","trial_index":93,"time_elapsed":1032736,"internal_node_id":"0.0-93.0"},{"result":176,"points":1,"place":4,"phase":1,"sequence":21,"prices":[175,186,176,210,179,187,163,166,153,208],"times":[489,543,776],"next_num":3,"trial_type":"ticket-choose","trial_index":94,"time_elapsed":1036608,"internal_node_id":"0.0-94.0"},{"result":152,"points":3,"place":0,"phase":1,"sequence":22,"prices":[200,181,203,152,175,171,160,154,176,191],"times":[585,480,583,720],"next_num":4,"trial_type":"ticket-choose","trial_index":95,"time_elapsed":1041288,"internal_node_id":"0.0-95.0"},{"result":187,"points":0,"place":7,"phase":1,"sequence":23,"prices":[175,186,158,211,180,187,177,166,209,153],"times":[603,512,503,735,638,1175],"next_num":6,"trial_type":"ticket-choose","trial_index":96,"time_elapsed":1048056,"internal_node_id":"0.0-96.0"},{"result":165,"points":2,"place":1,"phase":1,"sequence":24,"prices":[188,200,165,172,198,174,177,154,177,180],"times":[528,607,863],"next_num":3,"trial_type":"ticket-choose","trial_index":97,"time_elapsed":1052072,"internal_node_id":"0.0-97.0"},{"result":163,"points":2,"place":1,"phase":1,"sequence":25,"prices":[174,186,163,212,181,187,176,166,153,209],"times":[442,503,840],"next_num":3,"trial_type":"ticket-choose","trial_index":98,"time_elapsed":1055911,"internal_node_id":"0.0-98.0"},{"result":176,"points":1,"place":4,"phase":1,"sequence":26,"prices":[174,186,176,217,181,187,163,166,153,209],"times":[507,543,656],"next_num":3,"trial_type":"ticket-choose","trial_index":99,"time_elapsed":1059663,"internal_node_id":"0.0-99.0"},{"result":155,"points":2,"place":1,"phase":1,"sequence":27,"prices":[181,155,148,161,168,187,172,199,176,194],"times":[987,775],"next_num":2,"trial_type":"ticket-choose","trial_index":100,"time_elapsed":1063280,"internal_node_id":"0.0-100.0"},{"result":185,"points":1,"place":4,"phase":1,"sequence":28,"prices":[196,165,170,184,187,211,171,201,202,185],"times":[912,512,574,816,656,639,528,726,582,727],"next_num":10,"trial_type":"ticket-choose","trial_index":101,"time_elapsed":1073448,"internal_node_id":"0.0-101.0"},{"result":172,"points":1,"place":3,"phase":1,"sequence":29,"prices":[191,172,169,175,182,203,170,195,165,176],"times":[672,815],"next_num":2,"trial_type":"ticket-choose","trial_index":102,"time_elapsed":1076720,"internal_node_id":"0.0-102.0"},{"result":163,"points":3,"place":0,"phase":1,"sequence":30,"prices":[168,199,196,198,185,195,227,163,177,166],"times":[923,559,559,550,582,1151,583,726],"next_num":8,"trial_type":"ticket-choose","trial_index":103,"time_elapsed":1085584,"internal_node_id":"0.0-103.0"},{"result":169,"points":1,"place":3,"phase":1,"sequence":31,"prices":[198,193,169,163,202,182,152,164,177,171],"times":[1385,543,799],"next_num":3,"trial_type":"ticket-choose","trial_index":104,"time_elapsed":1090359,"internal_node_id":"0.0-104.0"},{"result":165,"points":2,"place":1,"phase":1,"sequence":32,"prices":[200,165,165,173,182,207,161,202,204,180],"times":[530,719],"next_num":2,"trial_type":"ticket-choose","trial_index":105,"time_elapsed":1093448,"internal_node_id":"0.0-105.0"},{"result":159,"points":1,"place":2,"phase":1,"sequence":33,"prices":[180,159,149,175,185,141,163,174,178,207],"times":[873,719],"next_num":2,"trial_type":"ticket-choose","trial_index":106,"time_elapsed":1096936,"internal_node_id":"0.0-106.0"},{"result":167,"points":2,"place":1,"phase":1,"sequence":34,"prices":[189,167,180,197,165,168,172,213,178,171],"times":[465,742],"next_num":2,"trial_type":"ticket-choose","trial_index":107,"time_elapsed":1099999,"internal_node_id":"0.0-107.0"},{"result":179,"points":0,"place":5,"phase":1,"sequence":35,"prices":[175,186,178,212,179,187,167,169,209,153],"times":[545,479,510,551,736],"next_num":5,"trial_type":"ticket-choose","trial_index":108,"time_elapsed":1105359,"internal_node_id":"0.0-108.0"},{"result":143,"points":3,"place":0,"phase":1,"sequence":36,"prices":[222,173,202,197,143,205,198,183,178,186],"times":[816,472,496,528,824],"next_num":5,"trial_type":"ticket-choose","trial_index":109,"time_elapsed":1110903,"internal_node_id":"0.0-109.0"},{"result":170,"points":2,"place":1,"phase":1,"sequence":37,"prices":[201,187,157,184,198,179,188,185,178,170],"times":[569,647,534,567,535,792,501,518,558,823],"next_num":10,"trial_type":"ticket-choose","trial_index":110,"time_elapsed":1120543,"internal_node_id":"0.0-110.0"},{"result":165,"points":3,"place":0,"phase":1,"sequence":38,"prices":[193,165,175,181,185,224,180,199,218,184],"times":[1242,751],"next_num":2,"trial_type":"ticket-choose","trial_index":111,"time_elapsed":1124368,"internal_node_id":"0.0-111.0"},{"result":167,"points":2,"place":1,"phase":1,"sequence":39,"prices":[212,192,188,184,167,193,189,164,176,170],"times":[833,551,534,541,878],"next_num":5,"trial_type":"ticket-choose","trial_index":112,"time_elapsed":1130415,"internal_node_id":"0.0-112.0"},{"result":165,"points":2,"place":1,"phase":1,"sequence":40,"prices":[175,187,165,209,180,188,177,166,154,208],"times":[594,503,702],"next_num":3,"trial_type":"ticket-choose","trial_index":113,"time_elapsed":1134279,"internal_node_id":"0.0-113.0"},{"result":167,"points":2,"place":1,"phase":1,"sequence":41,"prices":[174,186,178,217,181,188,167,168,208,156],"times":[6114,527,694,551,574,519,1216],"next_num":7,"trial_type":"ticket-choose","trial_index":114,"time_elapsed":1147544,"internal_node_id":"0.0-114.0"},{"result":158,"points":2,"place":1,"phase":1,"sequence":42,"prices":[176,187,158,210,181,187,177,165,208,153],"times":[1010,727,631],"next_num":3,"trial_type":"ticket-choose","trial_index":115,"time_elapsed":1151904,"internal_node_id":"0.0-115.0"},{"result":165,"points":3,"place":0,"phase":1,"sequence":43,"prices":[193,169,171,187,190,224,174,194,165,188],"times":[625,511,670,671,550,647,479,511,687],"next_num":9,"trial_type":"ticket-choose","trial_index":116,"time_elapsed":1160568,"internal_node_id":"0.0-116.0"},{"result":177,"points":1,"place":4,"phase":1,"sequence":44,"prices":[175,186,177,209,181,188,158,167,208,154],"times":[746,463,790],"next_num":3,"trial_type":"ticket-choose","trial_index":117,"time_elapsed":1164656,"internal_node_id":"0.0-117.0"},{"result":155,"points":2,"place":1,"phase":1,"sequence":45,"prices":[201,207,155,158,156,165,167,135,178,177],"times":[521,623,630],"next_num":3,"trial_type":"ticket-choose","trial_index":118,"time_elapsed":1168512,"internal_node_id":"0.0-118.0"},{"result":177,"points":1,"place":4,"phase":1,"sequence":46,"prices":[175,186,158,209,181,188,177,167,208,154],"times":[617,494,486,647,591,534,655],"next_num":7,"trial_type":"ticket-choose","trial_index":119,"time_elapsed":1175464,"internal_node_id":"0.0-119.0"},{"result":170,"points":1,"place":2,"phase":1,"sequence":47,"prices":[185,170,182,201,173,199,171,188,165,168],"times":[499,733],"next_num":2,"trial_type":"ticket-choose","trial_index":120,"time_elapsed":1178544,"internal_node_id":"0.0-120.0"},{"result":167,"points":2,"place":1,"phase":1,"sequence":48,"prices":[174,186,167,211,181,188,178,168,208,156],"times":[618,528,750],"next_num":3,"trial_type":"ticket-choose","trial_index":121,"time_elapsed":1182528,"internal_node_id":"0.0-121.0"},{"result":165,"points":2,"place":1,"phase":1,"sequence":49,"prices":[201,165,162,166,185,214,165,202,204,179],"times":[865,719],"next_num":2,"trial_type":"ticket-choose","trial_index":122,"time_elapsed":1186016,"internal_node_id":"0.0-122.0"},{"responses":[{"value":11,"offby":10,"category":"$115 - $130","category_index":0},{"value":11,"offby":6,"category":"$131 - $145","category_index":1},{"value":22,"offby":10,"category":"$146 - $160","category_index":2},{"value":29,"offby":7,"category":"$161 - $175","category_index":3},{"value":21,"offby":-13,"category":"$176 - $190","category_index":4},{"value":6,"offby":-9,"category":"$191 - $205","category_index":5},{"value":0,"offby":-11,"category":"$206 - $220","category_index":6}],"phase":1,"number":1,"trial_type":"bar-choose","trial_index":123,"time_elapsed":1200113,"internal_node_id":"0.0-123.0"},{"special_comment":"Nothing.","trial_type":"special_sequence","trial_index":124,"time_elapsed":1207833,"internal_node_id":"0.0-124.0"},{"during":"Nothing","bonus":232,"trial_type":"final","trial_index":125,"time_elapsed":1234274,"internal_node_id":"0.0-125.0"}],"bonus":232}