{"start_time":"2017-05-24 15:51:20","end_time":"2017-05-24 16:29:46","points_phase0":120,"points_phase1":116,"phase_order":0,"age":25,"gender":"f","tries":1,"during":"Nothing","worker_id":"AQF6BA3IZCV2L","assignment_id":"3LYA37P8IRGW5VKM49KY1QRKW11BKO","data":[{"rt":13256,"url":"\/christiane\/tickets\/utils\/consent.html","trial_type":"html","trial_index":0,"time_elapsed":13805,"internal_node_id":"0.0-0.0"},{"age":25,"gender":"f","trial_type":"age","trial_index":1,"time_elapsed":19523,"internal_node_id":"0.0-1.0"},{"worker_id":"AQF6BA3IZCV2L","trial_type":"workerid","trial_index":2,"time_elapsed":26259,"internal_node_id":"0.0-2.0"},{"tries":1,"trial_type":"instructions_check","trial_index":3,"time_elapsed":56109,"internal_node_id":"0.0-3.0"},{"rt":239286,"url":"\/christiane\/tickets\/utils\/start.html","trial_type":"html","trial_index":4,"time_elapsed":296620,"internal_node_id":"0.0-4.0"},{"trial_type":"number-animation","trial_index":5,"time_elapsed":328381,"internal_node_id":"0.0-5.0"},{"phase":0,"sequence":0,"avg":181,"response":180,"trial_type":"training_avg","trial_index":6,"time_elapsed":336562,"internal_node_id":"0.0-6.0"},{"trial_type":"number-animation","trial_index":7,"time_elapsed":392398,"internal_node_id":"0.0-7.0"},{"phase":0,"sequence":1,"avg":188,"response":188,"trial_type":"training_avg","trial_index":8,"time_elapsed":403186,"internal_node_id":"0.0-8.0"},{"trial_type":"number-animation","trial_index":9,"time_elapsed":495063,"internal_node_id":"0.0-9.0"},{"phase":0,"sequence":2,"avg":188,"response":184,"trial_type":"training_avg","trial_index":10,"time_elapsed":528786,"internal_node_id":"0.0-10.0"},{"trial_type":"number-animation","trial_index":11,"time_elapsed":595036,"internal_node_id":"0.0-11.0"},{"phase":0,"sequence":3,"avg":177,"response":177,"trial_type":"training_avg","trial_index":12,"time_elapsed":600990,"internal_node_id":"0.0-12.0"},{"trial_type":"number-animation","trial_index":13,"time_elapsed":638518,"internal_node_id":"0.0-13.0"},{"phase":0,"sequence":4,"avg":182,"response":182,"trial_type":"training_avg","trial_index":14,"time_elapsed":645582,"internal_node_id":"0.0-14.0"},{"responses":[{"value":1,"offby":0,"category":"$115 - $130","category_index":0},{"value":5,"offby":0,"category":"$131 - $145","category_index":1},{"value":10,"offby":-2,"category":"$146 - $160","category_index":2},{"value":20,"offby":-2,"category":"$161 - $175","category_index":3},{"value":30,"offby":-4,"category":"$176 - $190","category_index":4},{"value":20,"offby":5,"category":"$191 - $205","category_index":5},{"value":14,"offby":3,"category":"$206 - $220","category_index":6}],"phase":0,"number":0,"trial_type":"bar-choose","trial_index":15,"time_elapsed":728796,"internal_node_id":"0.0-15.0"},{"rt":18533,"url":"\/christiane\/tickets\/utils\/testing.html","trial_type":"html","trial_index":16,"time_elapsed":748480,"internal_node_id":"0.0-16.0"},{"phase":0,"order":[49,40,33,3,44,6,42,20,36,7,21,30,47,24,32,11,29,45,2,39,48,35,5,1,31,17,43,9,4,18,19,0,8,12,23,15,34,14,38,10,16,37,13,46,41,25,27,28,26,22],"trial_type":"store_order","trial_index":17,"time_elapsed":749481,"internal_node_id":"0.0-17.0"},{"result":146,"points":3,"place":0,"phase":0,"sequence":-1,"prices":[184,180,224,165,181,199,185,193,218,146],"times":[2948,1434,896,3738,590,512,1103,991,1220,831],"next_num":10,"trial_type":"ticket-choose","trial_index":18,"time_elapsed":767706,"internal_node_id":"0.0-18.0"},{"rt":24591,"url":"\/christiane\/tickets\/utils\/testing_after.html","trial_type":"html","trial_index":19,"time_elapsed":793437,"internal_node_id":"0.0-19.0"},{"result":148,"points":3,"place":0,"phase":0,"sequence":0,"prices":[183,163,185,180,166,148,160,186,176,184],"times":[2211,3937,645,550,6103,1218],"next_num":6,"trial_type":"ticket-choose","trial_index":20,"time_elapsed":811995,"internal_node_id":"0.0-20.0"},{"result":150,"points":3,"place":0,"phase":0,"sequence":1,"prices":[189,150,175,160,188,207,158,194,178,199],"times":[1118,3921],"next_num":2,"trial_type":"ticket-choose","trial_index":21,"time_elapsed":819454,"internal_node_id":"0.0-21.0"},{"result":165,"points":3,"place":0,"phase":0,"sequence":2,"prices":[183,182,192,168,173,205,167,187,165,170],"times":[999,560,567,1354,826,753,3186,565,2301],"next_num":9,"trial_type":"ticket-choose","trial_index":22,"time_elapsed":834270,"internal_node_id":"0.0-22.0"},{"result":156,"points":3,"place":0,"phase":0,"sequence":3,"prices":[174,186,178,217,181,188,167,168,208,156],"times":[70007,742,1251,700,700,996,9159,4676,700,633],"next_num":10,"trial_type":"ticket-choose","trial_index":23,"time_elapsed":928011,"internal_node_id":"0.0-23.0"},{"result":149,"points":2,"place":1,"phase":0,"sequence":4,"prices":[180,159,149,175,185,141,163,174,178,207],"times":[948,12534,1054],"next_num":3,"trial_type":"ticket-choose","trial_index":24,"time_elapsed":946295,"internal_node_id":"0.0-24.0"},{"result":166,"points":1,"place":2,"phase":0,"sequence":5,"prices":[175,186,165,214,179,187,177,166,153,208],"times":[3285,561,1130,688,600,592,635,4260],"next_num":8,"trial_type":"ticket-choose","trial_index":25,"time_elapsed":961398,"internal_node_id":"0.0-25.0"},{"result":143,"points":3,"place":0,"phase":0,"sequence":6,"prices":[222,173,202,197,143,205,198,183,178,186],"times":[953,2517,552,470,1103],"next_num":5,"trial_type":"ticket-choose","trial_index":26,"time_elapsed":969670,"internal_node_id":"0.0-26.0"},{"result":153,"points":3,"place":0,"phase":0,"sequence":7,"prices":[176,187,158,210,181,187,177,165,208,153],"times":[1411,511,1029,475,665,479,524,1172,547,624],"next_num":10,"trial_type":"ticket-choose","trial_index":27,"time_elapsed":992435,"internal_node_id":"0.0-27.0"},{"result":154,"points":3,"place":0,"phase":0,"sequence":8,"prices":[188,200,165,172,198,174,177,154,177,180],"times":[1206,504,2511,517,509,562,617,1256],"next_num":8,"trial_type":"ticket-choose","trial_index":28,"time_elapsed":1003266,"internal_node_id":"0.0-28.0"},{"result":165,"points":2,"place":1,"phase":0,"sequence":9,"prices":[175,187,165,209,180,188,177,166,154,208],"times":[619,450,3289],"next_num":3,"trial_type":"ticket-choose","trial_index":29,"time_elapsed":1009763,"internal_node_id":"0.0-29.0"},{"result":158,"points":2,"place":1,"phase":0,"sequence":10,"prices":[175,186,177,221,180,187,158,166,209,153],"times":[768,466,523,883,601,556,1054],"next_num":7,"trial_type":"ticket-choose","trial_index":30,"time_elapsed":1017652,"internal_node_id":"0.0-30.0"},{"result":165,"points":3,"place":0,"phase":0,"sequence":11,"prices":[191,172,169,175,182,203,170,195,165,176],"times":[853,495,563,551,806,664,587,880,3069],"next_num":9,"trial_type":"ticket-choose","trial_index":31,"time_elapsed":1029644,"internal_node_id":"0.0-31.0"},{"result":152,"points":3,"place":0,"phase":0,"sequence":12,"prices":[200,181,203,152,175,171,160,154,176,191],"times":[853,3561,556,1099],"next_num":4,"trial_type":"ticket-choose","trial_index":32,"time_elapsed":1038090,"internal_node_id":"0.0-32.0"},{"result":184,"points":1,"place":4,"phase":0,"sequence":13,"prices":[193,165,175,181,185,224,180,199,218,184],"times":[1518,3070,1246,497,546,615,849,843,688,882],"next_num":10,"trial_type":"ticket-choose","trial_index":33,"time_elapsed":1052656,"internal_node_id":"0.0-33.0"},{"result":165,"points":3,"place":0,"phase":0,"sequence":14,"prices":[193,169,171,187,190,224,174,194,165,188],"times":[2474,1226,578,610,527,583,1056,822,1428],"next_num":9,"trial_type":"ticket-choose","trial_index":34,"time_elapsed":1065532,"internal_node_id":"0.0-34.0"},{"result":165,"points":2,"place":1,"phase":0,"sequence":15,"prices":[174,186,177,217,181,187,165,166,153,209],"times":[626,593,812,620,656,738,1109],"next_num":7,"trial_type":"ticket-choose","trial_index":35,"time_elapsed":1073773,"internal_node_id":"0.0-35.0"},{"result":165,"points":3,"place":0,"phase":0,"sequence":16,"prices":[185,170,182,201,173,199,171,188,165,168],"times":[1341,1816,752,752,1584,538,2365,639,868],"next_num":9,"trial_type":"ticket-choose","trial_index":36,"time_elapsed":1087824,"internal_node_id":"0.0-36.0"},{"result":164,"points":3,"place":0,"phase":0,"sequence":17,"prices":[212,192,188,184,167,193,189,164,176,170],"times":[675,672,569,503,4719,513,642,1004],"next_num":8,"trial_type":"ticket-choose","trial_index":37,"time_elapsed":1100525,"internal_node_id":"0.0-37.0"},{"result":153,"points":3,"place":0,"phase":0,"sequence":18,"prices":[175,186,167,225,179,187,178,169,209,153],"times":[567,820,1875,540,674,491,713,2136,460,593],"next_num":10,"trial_type":"ticket-choose","trial_index":38,"time_elapsed":1113337,"internal_node_id":"0.0-38.0"},{"result":171,"points":1,"place":3,"phase":0,"sequence":19,"prices":[189,167,180,197,165,168,172,213,178,171],"times":[639,1310,593,550,4819,579,504,644,470,727],"next_num":10,"trial_type":"ticket-choose","trial_index":39,"time_elapsed":1127876,"internal_node_id":"0.0-39.0"},{"result":147,"points":3,"place":0,"phase":0,"sequence":20,"prices":[181,215,169,147,182,193,177,184,176,179],"times":[1213,649,1933,1239],"next_num":4,"trial_type":"ticket-choose","trial_index":40,"time_elapsed":1135317,"internal_node_id":"0.0-40.0"},{"result":154,"points":2,"place":1,"phase":0,"sequence":21,"prices":[168,154,172,185,195,144,184,211,177,227],"times":[961,2219],"next_num":2,"trial_type":"ticket-choose","trial_index":41,"time_elapsed":1140712,"internal_node_id":"0.0-41.0"},{"result":167,"points":2,"place":1,"phase":0,"sequence":22,"prices":[175,186,178,212,179,187,167,169,209,153],"times":[1470,508,545,605,534,552,1607],"next_num":7,"trial_type":"ticket-choose","trial_index":42,"time_elapsed":1149593,"internal_node_id":"0.0-42.0"},{"result":168,"points":1,"place":2,"phase":0,"sequence":23,"prices":[175,185,167,224,181,186,178,168,208,156],"times":[23563,501,1026,464,475,727,587,1867],"next_num":8,"trial_type":"ticket-choose","trial_index":43,"time_elapsed":1182006,"internal_node_id":"0.0-43.0"},{"result":165,"points":3,"place":0,"phase":0,"sequence":24,"prices":[171,203,175,170,167,220,192,186,165,165],"times":[757,542,572,597,1295,511,569,603,955],"next_num":9,"trial_type":"ticket-choose","trial_index":44,"time_elapsed":1191793,"internal_node_id":"0.0-44.0"},{"result":163,"points":2,"place":1,"phase":0,"sequence":25,"prices":[174,186,176,217,181,187,163,166,153,209],"times":[539,529,530,565,592,613,1357],"next_num":7,"trial_type":"ticket-choose","trial_index":45,"time_elapsed":1199601,"internal_node_id":"0.0-45.0"},{"result":157,"points":3,"place":0,"phase":0,"sequence":26,"prices":[201,187,157,184,198,179,188,185,178,170],"times":[873,1196,1438],"next_num":3,"trial_type":"ticket-choose","trial_index":46,"time_elapsed":1205282,"internal_node_id":"0.0-46.0"},{"result":165,"points":2,"place":1,"phase":0,"sequence":27,"prices":[175,186,177,210,179,187,165,166,153,208],"times":[787,1849,5960,1370,613,1014,3706],"next_num":7,"trial_type":"ticket-choose","trial_index":47,"time_elapsed":1223598,"internal_node_id":"0.0-47.0"},{"result":167,"points":2,"place":1,"phase":0,"sequence":28,"prices":[175,185,178,215,181,186,167,168,208,156],"times":[3155,555,718,558,473,459,3651],"next_num":7,"trial_type":"ticket-choose","trial_index":48,"time_elapsed":1236163,"internal_node_id":"0.0-48.0"},{"result":158,"points":2,"place":1,"phase":0,"sequence":29,"prices":[175,186,158,211,180,187,177,166,209,153],"times":[497,905,1220],"next_num":3,"trial_type":"ticket-choose","trial_index":49,"time_elapsed":1240986,"internal_node_id":"0.0-49.0"},{"result":158,"points":2,"place":1,"phase":0,"sequence":30,"prices":[175,186,158,209,181,188,177,167,208,154],"times":[6656,493,923],"next_num":3,"trial_type":"ticket-choose","trial_index":50,"time_elapsed":1251224,"internal_node_id":"0.0-50.0"},{"result":156,"points":3,"place":0,"phase":0,"sequence":31,"prices":[174,186,167,211,181,188,178,168,208,156],"times":[605,555,890,549,602,496,534,1765,494,580],"next_num":10,"trial_type":"ticket-choose","trial_index":51,"time_elapsed":1261909,"internal_node_id":"0.0-51.0"},{"result":153,"points":3,"place":0,"phase":0,"sequence":32,"prices":[174,186,165,212,181,187,177,167,153,209],"times":[914,502,1364,475,476,505,720,2900,868],"next_num":9,"trial_type":"ticket-choose","trial_index":52,"time_elapsed":1273953,"internal_node_id":"0.0-52.0"},{"result":163,"points":2,"place":1,"phase":0,"sequence":33,"prices":[175,186,163,214,179,187,176,166,153,208],"times":[927,483,5575],"next_num":3,"trial_type":"ticket-choose","trial_index":53,"time_elapsed":1283213,"internal_node_id":"0.0-53.0"},{"result":158,"points":2,"place":1,"phase":0,"sequence":34,"prices":[176,187,177,225,181,187,158,165,208,153],"times":[4925,668,959,480,560,604,1674],"next_num":7,"trial_type":"ticket-choose","trial_index":54,"time_elapsed":1296104,"internal_node_id":"0.0-54.0"},{"result":153,"points":3,"place":0,"phase":0,"sequence":35,"prices":[175,186,176,210,179,187,163,166,153,208],"times":[970,557,535,610,515,481,1391,753,816],"next_num":9,"trial_type":"ticket-choose","trial_index":55,"time_elapsed":1306104,"internal_node_id":"0.0-55.0"},{"result":155,"points":2,"place":1,"phase":0,"sequence":36,"prices":[181,155,148,161,168,187,172,199,176,194],"times":[597,1138],"next_num":2,"trial_type":"ticket-choose","trial_index":56,"time_elapsed":1309807,"internal_node_id":"0.0-56.0"},{"result":153,"points":3,"place":0,"phase":0,"sequence":37,"prices":[174,186,163,212,181,187,176,166,153,209],"times":[616,2056,2326,532,468,504,541,1000,816],"next_num":9,"trial_type":"ticket-choose","trial_index":57,"time_elapsed":1322078,"internal_node_id":"0.0-57.0"},{"result":163,"points":3,"place":0,"phase":0,"sequence":38,"prices":[168,199,196,198,185,195,227,163,177,166],"times":[1189,756,556,458,538,622,721,1916],"next_num":8,"trial_type":"ticket-choose","trial_index":58,"time_elapsed":1332010,"internal_node_id":"0.0-58.0"},{"result":154,"points":3,"place":0,"phase":0,"sequence":39,"prices":[175,187,177,209,180,188,165,165,154,208],"times":[1506,718,575,576,566,612,1283,2659,951],"next_num":9,"trial_type":"ticket-choose","trial_index":59,"time_elapsed":1344850,"internal_node_id":"0.0-59.0"},{"result":154,"points":3,"place":0,"phase":0,"sequence":40,"prices":[175,187,176,209,180,188,163,165,154,208],"times":[10311,2705,622,568,449,480,2336,846,1018],"next_num":9,"trial_type":"ticket-choose","trial_index":60,"time_elapsed":1367535,"internal_node_id":"0.0-60.0"},{"result":152,"points":3,"place":0,"phase":0,"sequence":41,"prices":[198,193,169,163,202,182,152,164,177,171],"times":[685,579,458,1143,695,506,1135],"next_num":7,"trial_type":"ticket-choose","trial_index":61,"time_elapsed":1376062,"internal_node_id":"0.0-61.0"},{"result":154,"points":3,"place":0,"phase":0,"sequence":42,"prices":[175,187,163,209,180,188,176,165,154,208],"times":[832,688,826,522,572,533,705,3667,726],"next_num":9,"trial_type":"ticket-choose","trial_index":62,"time_elapsed":1388718,"internal_node_id":"0.0-62.0"},{"result":158,"points":3,"place":0,"phase":0,"sequence":43,"prices":[210,184,226,193,215,158,199,175,176,208],"times":[585,528,745,582,573,1232],"next_num":6,"trial_type":"ticket-choose","trial_index":63,"time_elapsed":1395754,"internal_node_id":"0.0-63.0"},{"result":155,"points":2,"place":1,"phase":0,"sequence":44,"prices":[201,207,155,158,156,165,167,135,178,177],"times":[849,1753,1697],"next_num":3,"trial_type":"ticket-choose","trial_index":64,"time_elapsed":1402337,"internal_node_id":"0.0-64.0"},{"result":179,"points":1,"place":4,"phase":0,"sequence":45,"prices":[201,165,162,166,185,214,165,202,204,179],"times":[1073,774,2968,525,475,622,1194,576,534,671],"next_num":10,"trial_type":"ticket-choose","trial_index":65,"time_elapsed":1415566,"internal_node_id":"0.0-65.0"},{"result":186,"points":1,"place":4,"phase":0,"sequence":46,"prices":[192,165,171,178,188,217,172,195,197,186],"times":[1211,19530,820,475,519,632,536,731,503,686],"next_num":10,"trial_type":"ticket-choose","trial_index":66,"time_elapsed":1444930,"internal_node_id":"0.0-66.0"},{"result":185,"points":1,"place":4,"phase":0,"sequence":47,"prices":[196,165,170,184,187,211,171,201,202,185],"times":[900,1578,485,480,543,495,505,708,415,601],"next_num":10,"trial_type":"ticket-choose","trial_index":67,"time_elapsed":1455363,"internal_node_id":"0.0-67.0"},{"result":161,"points":3,"place":0,"phase":0,"sequence":48,"prices":[200,165,165,173,182,207,161,202,204,180],"times":[4053,983,1751,646,542,568,1018],"next_num":7,"trial_type":"ticket-choose","trial_index":68,"time_elapsed":1467822,"internal_node_id":"0.0-68.0"},{"result":158,"points":2,"place":1,"phase":0,"sequence":49,"prices":[175,186,177,209,181,188,158,167,208,154],"times":[2457,777,560,648,916,586,3952],"next_num":7,"trial_type":"ticket-choose","trial_index":69,"time_elapsed":1480780,"internal_node_id":"0.0-69.0"},{"responses":[{"value":1,"offby":0,"category":"$115 - $130","category_index":0},{"value":5,"offby":0,"category":"$131 - $145","category_index":1},{"value":10,"offby":-2,"category":"$146 - $160","category_index":2},{"value":20,"offby":-2,"category":"$161 - $175","category_index":3},{"value":30,"offby":-4,"category":"$176 - $190","category_index":4},{"value":20,"offby":5,"category":"$191 - $205","category_index":5},{"value":14,"offby":3,"category":"$206 - $220","category_index":6}],"phase":1,"number":1,"trial_type":"bar-choose","trial_index":70,"time_elapsed":1547880,"internal_node_id":"0.0-70.0"},{"rt":28911,"url":"\/christiane\/tickets\/utils\/testing2.html","trial_type":"point_update","trial_index":71,"time_elapsed":1578107,"internal_node_id":"0.0-71.0"},{"phase":1,"order":[7,31,17,29,8,20,24,30,1,49,11,32,6,38,22,13,25,35,23,40,44,0,19,26,39,47,16,2,37,14,10,34,21,33,42,48,9,15,4,5,36,43,45,28,27,18,46,12,3,41],"trial_type":"store_order","trial_index":72,"time_elapsed":1579108,"internal_node_id":"0.0-72.0"},{"result":154,"points":3,"place":0,"phase":1,"sequence":0,"prices":[165,175,187,209,177,180,188,167,154,208],"times":[10847,517,634,426,456,474,472,6676,699],"next_num":9,"trial_type":"ticket-choose","trial_index":73,"time_elapsed":1603924,"internal_node_id":"0.0-73.0"},{"result":165,"points":1,"place":2,"phase":1,"sequence":1,"prices":[171,169,186,165,163,167,220,148,187,165],"times":[822,942,433,3360],"next_num":4,"trial_type":"ticket-choose","trial_index":74,"time_elapsed":1611838,"internal_node_id":"0.0-74.0"},{"result":163,"points":2,"place":1,"phase":1,"sequence":2,"prices":[176,186,178,217,163,181,187,166,153,209],"times":[1707,489,759,788,879],"next_num":5,"trial_type":"ticket-choose","trial_index":75,"time_elapsed":1619044,"internal_node_id":"0.0-75.0"},{"result":161,"points":2,"place":1,"phase":1,"sequence":3,"prices":[185,179,191,165,161,173,199,150,188,168],"times":[716,654,478,1849,830],"next_num":5,"trial_type":"ticket-choose","trial_index":76,"time_elapsed":1626163,"internal_node_id":"0.0-76.0"},{"result":166,"points":1,"place":2,"phase":1,"sequence":4,"prices":[165,174,186,212,177,181,187,166,153,209],"times":[725,430,508,552,485,519,501,1511],"next_num":8,"trial_type":"ticket-choose","trial_index":77,"time_elapsed":1634534,"internal_node_id":"0.0-77.0"},{"result":158,"points":2,"place":1,"phase":1,"sequence":5,"prices":[158,176,187,210,177,181,187,165,208,153],"times":[3387],"next_num":1,"trial_type":"ticket-choose","trial_index":78,"time_elapsed":1639685,"internal_node_id":"0.0-78.0"},{"result":184,"points":1,"place":4,"phase":1,"sequence":6,"prices":[193,181,175,181,185,165,224,199,218,184],"times":[688,967,553,533,724,825,493,514,507,680],"next_num":10,"trial_type":"ticket-choose","trial_index":79,"time_elapsed":1649796,"internal_node_id":"0.0-79.0"},{"result":157,"points":3,"place":0,"phase":1,"sequence":7,"prices":[191,170,182,165,175,182,203,157,195,200],"times":[659,1089,725,866,556,495,537,902],"next_num":8,"trial_type":"ticket-choose","trial_index":80,"time_elapsed":1658818,"internal_node_id":"0.0-80.0"},{"result":156,"points":3,"place":0,"phase":1,"sequence":8,"prices":[167,175,185,224,178,181,186,168,208,156],"times":[844,461,1131,731,647,519,571,1944,514,529],"next_num":10,"trial_type":"ticket-choose","trial_index":81,"time_elapsed":1670312,"internal_node_id":"0.0-81.0"},{"result":163,"points":1,"place":2,"phase":1,"sequence":9,"prices":[173,163,185,181,166,148,160,185,176,184],"times":[631,2851],"next_num":2,"trial_type":"ticket-choose","trial_index":82,"time_elapsed":1675741,"internal_node_id":"0.0-82.0"},{"result":166,"points":1,"place":2,"phase":1,"sequence":10,"prices":[177,174,186,217,165,181,187,166,153,209],"times":[2075,449,451,573,1238,455,631,953],"next_num":8,"trial_type":"ticket-choose","trial_index":83,"time_elapsed":1685763,"internal_node_id":"0.0-83.0"},{"result":161,"points":3,"place":0,"phase":1,"sequence":11,"prices":[193,174,224,165,187,190,224,161,194,195],"times":[1258,636,862,1835,545,2455,516,906],"next_num":8,"trial_type":"ticket-choose","trial_index":84,"time_elapsed":1698041,"internal_node_id":"0.0-84.0"},{"result":153,"points":3,"place":0,"phase":1,"sequence":12,"prices":[165,175,186,214,177,179,187,166,153,208],"times":[896,404,487,630,729,507,640,1699,642],"next_num":9,"trial_type":"ticket-choose","trial_index":85,"time_elapsed":1707978,"internal_node_id":"0.0-85.0"},{"result":163,"points":3,"place":0,"phase":1,"sequence":13,"prices":[163,199,196,199,185,195,227,163,177,166],"times":[1484,415,417,453,493,507,591,931],"next_num":8,"trial_type":"ticket-choose","trial_index":86,"time_elapsed":1716471,"internal_node_id":"0.0-86.0"},{"result":158,"points":2,"place":1,"phase":1,"sequence":14,"prices":[177,175,186,209,158,181,188,167,208,154],"times":[862,456,570,461,992],"next_num":5,"trial_type":"ticket-choose","trial_index":87,"time_elapsed":1722406,"internal_node_id":"0.0-87.0"},{"result":154,"points":3,"place":0,"phase":1,"sequence":15,"prices":[163,175,187,209,176,180,188,165,154,208],"times":[854,442,475,470,529,805,651,1733,638],"next_num":9,"trial_type":"ticket-choose","trial_index":88,"time_elapsed":1732321,"internal_node_id":"0.0-88.0"},{"result":165,"points":2,"place":1,"phase":1,"sequence":16,"prices":[201,204,179,166,185,165,214,156,202,165],"times":[795,640,523,1039,480,1571],"next_num":6,"trial_type":"ticket-choose","trial_index":89,"time_elapsed":1740150,"internal_node_id":"0.0-89.0"},{"result":143,"points":3,"place":0,"phase":1,"sequence":17,"prices":[167,153,172,185,195,143,184,211,177,227],"times":[4923,464,1059,622,679,796],"next_num":6,"trial_type":"ticket-choose","trial_index":90,"time_elapsed":1751418,"internal_node_id":"0.0-90.0"},{"result":153,"points":3,"place":0,"phase":1,"sequence":18,"prices":[177,176,187,225,158,181,187,165,208,153],"times":[1019,620,564,852,1764,635,568,862,570,646],"next_num":10,"trial_type":"ticket-choose","trial_index":91,"time_elapsed":1763256,"internal_node_id":"0.0-91.0"},{"result":150,"points":3,"place":0,"phase":1,"sequence":19,"prices":[190,150,175,161,188,207,157,194,178,199],"times":[743,1142],"next_num":2,"trial_type":"ticket-choose","trial_index":92,"time_elapsed":1767136,"internal_node_id":"0.0-92.0"},{"result":159,"points":1,"place":2,"phase":1,"sequence":20,"prices":[181,159,149,175,185,151,163,174,178,207],"times":[1357,2893],"next_num":2,"trial_type":"ticket-choose","trial_index":93,"time_elapsed":1773333,"internal_node_id":"0.0-93.0"},{"result":156,"points":3,"place":0,"phase":1,"sequence":21,"prices":[167,174,186,211,178,181,188,168,208,156],"times":[5433,559,532,569,595,542,739,1418,488,552],"next_num":10,"trial_type":"ticket-choose","trial_index":94,"time_elapsed":1788336,"internal_node_id":"0.0-94.0"},{"result":158,"points":2,"place":1,"phase":1,"sequence":22,"prices":[158,175,186,209,177,181,188,167,208,154],"times":[4246],"next_num":1,"trial_type":"ticket-choose","trial_index":95,"time_elapsed":1794590,"internal_node_id":"0.0-95.0"},{"result":165,"points":1,"place":2,"phase":1,"sequence":23,"prices":[200,173,182,169,207,165,152,202,161,204],"times":[3232,2344,541,3102,652,1104],"next_num":6,"trial_type":"ticket-choose","trial_index":96,"time_elapsed":1808379,"internal_node_id":"0.0-96.0"},{"result":165,"points":3,"place":0,"phase":1,"sequence":24,"prices":[189,167,180,197,165,168,172,213,178,171],"times":[1508,868,464,505,3327],"next_num":5,"trial_type":"ticket-choose","trial_index":97,"time_elapsed":1817691,"internal_node_id":"0.0-97.0"},{"result":152,"points":3,"place":0,"phase":1,"sequence":25,"prices":[200,180,203,152,175,170,160,154,176,191],"times":[5737,438,614,950],"next_num":4,"trial_type":"ticket-choose","trial_index":98,"time_elapsed":1827728,"internal_node_id":"0.0-98.0"},{"result":154,"points":3,"place":0,"phase":1,"sequence":26,"prices":[176,187,179,209,163,180,188,165,154,208],"times":[691,457,516,702,1147,468,589,1335,674],"next_num":9,"trial_type":"ticket-choose","trial_index":99,"time_elapsed":1837626,"internal_node_id":"0.0-99.0"},{"result":153,"points":3,"place":0,"phase":1,"sequence":27,"prices":[167,175,186,225,178,179,187,169,209,153],"times":[831,1058,801,578,544,493,548,1093,691,581],"next_num":10,"trial_type":"ticket-choose","trial_index":100,"time_elapsed":1848512,"internal_node_id":"0.0-100.0"},{"result":165,"points":1,"place":2,"phase":1,"sequence":28,"prices":[199,193,169,165,202,182,151,164,176,171],"times":[618,416,1025,2480],"next_num":4,"trial_type":"ticket-choose","trial_index":101,"time_elapsed":1855504,"internal_node_id":"0.0-101.0"},{"result":153,"points":3,"place":0,"phase":1,"sequence":29,"prices":[163,174,186,212,176,181,187,166,153,209],"times":[1846,454,502,638,891,626,780,1130,711],"next_num":9,"trial_type":"ticket-choose","trial_index":102,"time_elapsed":1866606,"internal_node_id":"0.0-102.0"},{"result":165,"points":2,"place":1,"phase":1,"sequence":30,"prices":[177,175,187,209,165,180,188,165,154,208],"times":[1492,596,594,513,1190,557,428,898],"next_num":8,"trial_type":"ticket-choose","trial_index":103,"time_elapsed":1876117,"internal_node_id":"0.0-103.0"},{"result":195,"points":0,"place":8,"phase":1,"sequence":31,"prices":[180,156,149,160,168,186,172,198,176,195],"times":[25499,3996,417,2198,515,535,700,556,455,853],"next_num":10,"trial_type":"ticket-choose","trial_index":104,"time_elapsed":1915530,"internal_node_id":"0.0-104.0"},{"result":153,"points":3,"place":0,"phase":1,"sequence":32,"prices":[177,175,186,221,158,180,187,166,209,153],"times":[1370,585,1489,735,888,594,501,881,596,614],"next_num":10,"trial_type":"ticket-choose","trial_index":105,"time_elapsed":1927374,"internal_node_id":"0.0-105.0"},{"result":159,"points":3,"place":0,"phase":1,"sequence":33,"prices":[183,179,188,165,168,173,205,159,187,191],"times":[2244,569,936,910,841,551,619,1261],"next_num":8,"trial_type":"ticket-choose","trial_index":106,"time_elapsed":1938464,"internal_node_id":"0.0-106.0"},{"result":186,"points":1,"place":4,"phase":1,"sequence":34,"prices":[220,173,201,197,169,205,198,183,178,186],"times":[1252,643,1302,601,758,670,893,740,625,1011],"next_num":10,"trial_type":"ticket-choose","trial_index":107,"time_elapsed":1950607,"internal_node_id":"0.0-107.0"},{"result":147,"points":3,"place":0,"phase":1,"sequence":35,"prices":[181,214,169,147,182,193,178,184,176,179],"times":[1306,699,1680,825],"next_num":4,"trial_type":"ticket-choose","trial_index":108,"time_elapsed":1957459,"internal_node_id":"0.0-108.0"},{"result":153,"points":3,"place":0,"phase":1,"sequence":36,"prices":[177,175,186,210,165,179,187,166,153,208],"times":[1494,765,926,626,2019,522,577,1768,731],"next_num":9,"trial_type":"ticket-choose","trial_index":109,"time_elapsed":1970417,"internal_node_id":"0.0-109.0"},{"result":163,"points":2,"place":1,"phase":1,"sequence":37,"prices":[176,175,186,210,163,179,187,166,153,208],"times":[823,682,614,629,878],"next_num":5,"trial_type":"ticket-choose","trial_index":110,"time_elapsed":1976772,"internal_node_id":"0.0-110.0"},{"result":156,"points":3,"place":0,"phase":1,"sequence":38,"prices":[178,175,185,215,167,181,186,168,208,156],"times":[2335,661,1428,581,996,482,604,1184,487,518],"next_num":10,"trial_type":"ticket-choose","trial_index":111,"time_elapsed":1995667,"internal_node_id":"0.0-111.0"},{"result":153,"points":3,"place":0,"phase":1,"sequence":39,"prices":[178,175,186,212,167,179,187,169,209,153],"times":[105680,512,497,571,1060,622,469,973,496,533],"next_num":10,"trial_type":"ticket-choose","trial_index":112,"time_elapsed":2111609,"internal_node_id":"0.0-112.0"},{"result":154,"points":3,"place":0,"phase":1,"sequence":40,"prices":[187,201,165,172,196,174,178,154,172,180],"times":[2645,544,1307,518,697,1200,531,766],"next_num":8,"trial_type":"ticket-choose","trial_index":113,"time_elapsed":2122992,"internal_node_id":"0.0-113.0"},{"result":157,"points":3,"place":0,"phase":1,"sequence":41,"prices":[201,187,157,184,198,179,188,185,178,170],"times":[11167,628,1402],"next_num":3,"trial_type":"ticket-choose","trial_index":114,"time_elapsed":2138308,"internal_node_id":"0.0-114.0"},{"result":164,"points":3,"place":0,"phase":1,"sequence":42,"prices":[199,191,188,174,167,193,189,164,176,170],"times":[1164,677,506,708,954,639,639,799],"next_num":8,"trial_type":"ticket-choose","trial_index":115,"time_elapsed":2147506,"internal_node_id":"0.0-115.0"},{"result":165,"points":3,"place":0,"phase":1,"sequence":43,"prices":[196,171,170,184,187,165,211,169,201,202],"times":[6788,657,533,601,513,1611],"next_num":6,"trial_type":"ticket-choose","trial_index":116,"time_elapsed":2161306,"internal_node_id":"0.0-116.0"},{"result":197,"points":0,"place":8,"phase":1,"sequence":44,"prices":[192,172,171,178,188,165,217,168,195,197],"times":[878,540,609,637,1648,1942,533,954,463,839],"next_num":10,"trial_type":"ticket-choose","trial_index":117,"time_elapsed":2174294,"internal_node_id":"0.0-117.0"},{"result":158,"points":2,"place":1,"phase":1,"sequence":45,"prices":[158,175,186,211,177,180,187,166,209,153],"times":[1343],"next_num":1,"trial_type":"ticket-choose","trial_index":118,"time_elapsed":2177415,"internal_node_id":"0.0-118.0"},{"result":158,"points":3,"place":0,"phase":1,"sequence":46,"prices":[214,184,226,192,215,158,199,175,176,208],"times":[1326,629,788,520,568,946],"next_num":6,"trial_type":"ticket-choose","trial_index":119,"time_elapsed":2184914,"internal_node_id":"0.0-119.0"},{"result":153,"points":3,"place":0,"phase":1,"sequence":47,"prices":[163,175,186,214,176,179,187,166,153,208],"times":[2768,478,481,521,489,542,486,1535,654],"next_num":9,"trial_type":"ticket-choose","trial_index":120,"time_elapsed":2196166,"internal_node_id":"0.0-120.0"},{"result":156,"points":3,"place":0,"phase":1,"sequence":48,"prices":[178,174,186,217,167,181,188,168,208,156],"times":[534,491,539,1105,4575,460,497,1679,459,511],"next_num":10,"trial_type":"ticket-choose","trial_index":121,"time_elapsed":2210709,"internal_node_id":"0.0-121.0"},{"result":155,"points":2,"place":1,"phase":1,"sequence":49,"prices":[200,207,155,158,156,168,167,135,178,177],"times":[2830,589,925],"next_num":3,"trial_type":"ticket-choose","trial_index":122,"time_elapsed":2217538,"internal_node_id":"0.0-122.0"},{"responses":[{"value":1,"offby":0,"category":"$115 - $130","category_index":0},{"value":2,"offby":-3,"category":"$131 - $145","category_index":1},{"value":10,"offby":-2,"category":"$146 - $160","category_index":2},{"value":25,"offby":3,"category":"$161 - $175","category_index":3},{"value":33,"offby":-1,"category":"$176 - $190","category_index":4},{"value":20,"offby":5,"category":"$191 - $205","category_index":5},{"value":9,"offby":-2,"category":"$206 - $220","category_index":6}],"phase":1,"number":1,"trial_type":"bar-choose","trial_index":123,"time_elapsed":2260130,"internal_node_id":"0.0-123.0"},{"special_comment":"no","trial_type":"special_sequence","trial_index":124,"time_elapsed":2264685,"internal_node_id":"0.0-124.0"},{"during":"Nothing","bonus":316,"trial_type":"final","trial_index":125,"time_elapsed":2301610,"internal_node_id":"0.0-125.0"}],"bonus":316}