{"start_time":"2017-05-24 15:39:29","end_time":"2017-05-24 16:08:29","points_phase0":102,"points_phase1":107,"phase_order":1,"age":37,"gender":"f","tries":2,"during":"Nothing","worker_id":"AS8BGRD5QFUTQ","assignment_id":"3HYA4D452SCR1WSCK50QKKWBUZ7F2O","data":[{"rt":11605,"url":"\/christiane\/tickets\/utils\/consent.html","trial_type":"html","trial_index":0,"time_elapsed":11773,"internal_node_id":"0.0-0.0"},{"age":37,"gender":"f","trial_type":"age","trial_index":1,"time_elapsed":19040,"internal_node_id":"0.0-1.0"},{"worker_id":"AS8BGRD5QFUTQ","trial_type":"workerid","trial_index":2,"time_elapsed":40596,"internal_node_id":"0.0-2.0"},{"tries":2,"trial_type":"instructions_check","trial_index":3,"time_elapsed":132341,"internal_node_id":"0.0-3.0"},{"rt":30304,"url":"\/christiane\/tickets\/utils\/start.html","trial_type":"html","trial_index":4,"time_elapsed":163802,"internal_node_id":"0.0-4.0"},{"trial_type":"number-animation","trial_index":5,"time_elapsed":194113,"internal_node_id":"0.0-5.0"},{"phase":0,"sequence":0,"avg":181,"response":165,"trial_type":"training_avg","trial_index":6,"time_elapsed":208108,"internal_node_id":"0.0-6.0"},{"trial_type":"number-animation","trial_index":7,"time_elapsed":226300,"internal_node_id":"0.0-7.0"},{"phase":0,"sequence":1,"avg":188,"response":190,"trial_type":"training_avg","trial_index":8,"time_elapsed":236112,"internal_node_id":"0.0-8.0"},{"trial_type":"number-animation","trial_index":9,"time_elapsed":255884,"internal_node_id":"0.0-9.0"},{"phase":0,"sequence":2,"avg":188,"response":178,"trial_type":"training_avg","trial_index":10,"time_elapsed":266020,"internal_node_id":"0.0-10.0"},{"trial_type":"number-animation","trial_index":11,"time_elapsed":296740,"internal_node_id":"0.0-11.0"},{"phase":0,"sequence":3,"avg":177,"response":165,"trial_type":"training_avg","trial_index":12,"time_elapsed":303017,"internal_node_id":"0.0-12.0"},{"trial_type":"number-animation","trial_index":13,"time_elapsed":318894,"internal_node_id":"0.0-13.0"},{"phase":0,"sequence":4,"avg":182,"response":170,"trial_type":"training_avg","trial_index":14,"time_elapsed":324320,"internal_node_id":"0.0-14.0"},{"responses":[{"value":10,"offby":9,"category":"$115 - $130","category_index":0},{"value":15,"offby":10,"category":"$131 - $145","category_index":1},{"value":15,"offby":3,"category":"$146 - $160","category_index":2},{"value":30,"offby":8,"category":"$161 - $175","category_index":3},{"value":15,"offby":-19,"category":"$176 - $190","category_index":4},{"value":5,"offby":-10,"category":"$191 - $205","category_index":5},{"value":10,"offby":-1,"category":"$206 - $220","category_index":6}],"phase":0,"number":0,"trial_type":"bar-choose","trial_index":15,"time_elapsed":423752,"internal_node_id":"0.0-15.0"},{"rt":27943,"url":"\/christiane\/tickets\/utils\/testing.html","trial_type":"html","trial_index":16,"time_elapsed":452867,"internal_node_id":"0.0-16.0"},{"phase":0,"order":[40,5,18,0,16,22,17,2,1,42,27,23,8,47,4,12,29,31,28,3,21,19,37,24,44,13,9,15,7,6,26,10,14,34,35,39,38,45,49,33,30,43,41,36,46,48,20,11,32,25],"trial_type":"store_order","trial_index":17,"time_elapsed":453869,"internal_node_id":"0.0-17.0"},{"result":165,"points":2,"place":1,"phase":0,"sequence":-1,"prices":[184,180,224,165,181,199,185,193,218,146],"times":[3773,1214,947,1165],"next_num":4,"trial_type":"ticket-choose","trial_index":18,"time_elapsed":464316,"internal_node_id":"0.0-18.0"},{"rt":13382,"url":"\/christiane\/tickets\/utils\/testing_after.html","trial_type":"html","trial_index":19,"time_elapsed":478850,"internal_node_id":"0.0-19.0"},{"result":163,"points":2,"place":1,"phase":0,"sequence":0,"prices":[176,187,179,209,163,180,188,165,154,208],"times":[1171,1269,1566,839,1210],"next_num":5,"trial_type":"ticket-choose","trial_index":20,"time_elapsed":488773,"internal_node_id":"0.0-20.0"},{"result":165,"points":2,"place":1,"phase":0,"sequence":1,"prices":[193,174,224,165,187,190,224,161,194,195],"times":[1375,1102,1015,887],"next_num":4,"trial_type":"ticket-choose","trial_index":21,"time_elapsed":496285,"internal_node_id":"0.0-21.0"},{"result":155,"points":2,"place":1,"phase":0,"sequence":2,"prices":[200,207,155,158,156,168,167,135,178,177],"times":[2128,733,1015],"next_num":3,"trial_type":"ticket-choose","trial_index":22,"time_elapsed":502608,"internal_node_id":"0.0-22.0"},{"result":166,"points":1,"place":2,"phase":0,"sequence":3,"prices":[176,186,178,217,163,181,187,166,153,209],"times":[796,1487,1086,1164,1551,673,790,1484],"next_num":8,"trial_type":"ticket-choose","trial_index":23,"time_elapsed":515174,"internal_node_id":"0.0-23.0"},{"result":163,"points":3,"place":0,"phase":0,"sequence":4,"prices":[163,199,196,199,185,195,227,163,177,166],"times":[1725,920,677,642,856,945,777,1398],"next_num":8,"trial_type":"ticket-choose","trial_index":24,"time_elapsed":526793,"internal_node_id":"0.0-24.0"},{"result":158,"points":2,"place":1,"phase":0,"sequence":5,"prices":[177,176,187,225,158,181,187,165,208,153],"times":[1450,998,871,790,959],"next_num":5,"trial_type":"ticket-choose","trial_index":25,"time_elapsed":535024,"internal_node_id":"0.0-25.0"},{"result":161,"points":2,"place":1,"phase":0,"sequence":6,"prices":[185,179,191,165,161,173,199,150,188,168],"times":[1490,1008,771,1257,1259],"next_num":5,"trial_type":"ticket-choose","trial_index":26,"time_elapsed":543643,"internal_node_id":"0.0-26.0"},{"result":158,"points":2,"place":1,"phase":0,"sequence":7,"prices":[158,176,187,210,177,181,187,165,208,153],"times":[2176],"next_num":1,"trial_type":"ticket-choose","trial_index":27,"time_elapsed":547925,"internal_node_id":"0.0-27.0"},{"result":166,"points":1,"place":2,"phase":0,"sequence":8,"prices":[165,175,186,214,177,179,187,166,153,208],"times":[1056,1220,938,715,873,1056,753,1462],"next_num":8,"trial_type":"ticket-choose","trial_index":28,"time_elapsed":559627,"internal_node_id":"0.0-28.0"},{"result":158,"points":2,"place":1,"phase":0,"sequence":9,"prices":[177,175,186,209,158,181,188,167,208,154],"times":[1061,899,1056,680,948],"next_num":5,"trial_type":"ticket-choose","trial_index":29,"time_elapsed":567205,"internal_node_id":"0.0-29.0"},{"result":163,"points":2,"place":1,"phase":0,"sequence":10,"prices":[176,175,186,210,163,179,187,166,153,208],"times":[1221,897,1001,731,1953],"next_num":5,"trial_type":"ticket-choose","trial_index":30,"time_elapsed":575834,"internal_node_id":"0.0-30.0"},{"result":150,"points":3,"place":0,"phase":0,"sequence":11,"prices":[190,150,175,161,188,207,157,194,178,199],"times":[1410,944],"next_num":2,"trial_type":"ticket-choose","trial_index":31,"time_elapsed":582648,"internal_node_id":"0.0-31.0"},{"result":165,"points":3,"place":0,"phase":0,"sequence":12,"prices":[196,171,170,184,187,165,211,169,201,202],"times":[1761,781,697,649,570,853],"next_num":6,"trial_type":"ticket-choose","trial_index":32,"time_elapsed":591034,"internal_node_id":"0.0-32.0"},{"result":165,"points":1,"place":2,"phase":0,"sequence":13,"prices":[200,173,182,169,207,165,152,202,161,204],"times":[960,1040,744,793,920,1031],"next_num":6,"trial_type":"ticket-choose","trial_index":33,"time_elapsed":599609,"internal_node_id":"0.0-33.0"},{"result":153,"points":2,"place":1,"phase":0,"sequence":14,"prices":[167,153,172,185,195,143,184,211,177,227],"times":[1213,971],"next_num":2,"trial_type":"ticket-choose","trial_index":34,"time_elapsed":603990,"internal_node_id":"0.0-34.0"},{"result":157,"points":3,"place":0,"phase":0,"sequence":15,"prices":[201,187,157,184,198,179,188,185,178,170],"times":[1623,979,876],"next_num":3,"trial_type":"ticket-choose","trial_index":35,"time_elapsed":610023,"internal_node_id":"0.0-35.0"},{"result":184,"points":1,"place":4,"phase":0,"sequence":16,"prices":[193,181,175,181,185,165,224,199,218,184],"times":[2476,680,1109,742,563,851,827,1413,843,1813],"next_num":10,"trial_type":"ticket-choose","trial_index":36,"time_elapsed":625643,"internal_node_id":"0.0-36.0"},{"result":157,"points":3,"place":0,"phase":0,"sequence":17,"prices":[191,170,182,165,175,182,203,157,195,200],"times":[1360,883,888,1320,632,555,939,898],"next_num":8,"trial_type":"ticket-choose","trial_index":37,"time_elapsed":636991,"internal_node_id":"0.0-37.0"},{"result":163,"points":1,"place":2,"phase":0,"sequence":18,"prices":[173,163,185,181,166,148,160,185,176,184],"times":[2704,1667],"next_num":2,"trial_type":"ticket-choose","trial_index":38,"time_elapsed":643839,"internal_node_id":"0.0-38.0"},{"result":154,"points":3,"place":0,"phase":0,"sequence":19,"prices":[177,175,187,209,165,180,188,165,154,208],"times":[1425,616,548,564,1037,531,664,1579,742],"next_num":9,"trial_type":"ticket-choose","trial_index":39,"time_elapsed":655478,"internal_node_id":"0.0-39.0"},{"result":168,"points":1,"place":2,"phase":0,"sequence":20,"prices":[167,174,186,211,178,181,188,168,208,156],"times":[1223,705,754,720,578,704,760,1009],"next_num":8,"trial_type":"ticket-choose","trial_index":40,"time_elapsed":665468,"internal_node_id":"0.0-40.0"},{"result":169,"points":2,"place":1,"phase":0,"sequence":21,"prices":[181,214,169,147,182,193,178,184,176,179],"times":[959,1131,1209],"next_num":3,"trial_type":"ticket-choose","trial_index":41,"time_elapsed":671175,"internal_node_id":"0.0-41.0"},{"result":158,"points":2,"place":1,"phase":0,"sequence":22,"prices":[158,175,186,211,177,180,187,166,209,153],"times":[1829],"next_num":1,"trial_type":"ticket-choose","trial_index":42,"time_elapsed":675135,"internal_node_id":"0.0-42.0"},{"result":152,"points":3,"place":0,"phase":0,"sequence":23,"prices":[200,180,203,152,175,170,160,154,176,191],"times":[906,867,726,929],"next_num":4,"trial_type":"ticket-choose","trial_index":43,"time_elapsed":681272,"internal_node_id":"0.0-43.0"},{"result":153,"points":3,"place":0,"phase":0,"sequence":24,"prices":[165,174,186,212,177,181,187,166,153,209],"times":[1343,586,1326,616,570,604,593,1037,899],"next_num":9,"trial_type":"ticket-choose","trial_index":44,"time_elapsed":692547,"internal_node_id":"0.0-44.0"},{"result":165,"points":1,"place":2,"phase":0,"sequence":25,"prices":[163,175,187,209,176,180,188,165,154,208],"times":[9087,1125,685,829,1327,641,789,1118],"next_num":8,"trial_type":"ticket-choose","trial_index":45,"time_elapsed":711734,"internal_node_id":"0.0-45.0"},{"result":165,"points":2,"place":1,"phase":0,"sequence":26,"prices":[177,174,186,217,165,181,187,166,153,209],"times":[987,774,626,647,963],"next_num":5,"trial_type":"ticket-choose","trial_index":46,"time_elapsed":718418,"internal_node_id":"0.0-46.0"},{"result":165,"points":2,"place":1,"phase":0,"sequence":27,"prices":[183,179,188,165,168,173,205,159,187,191],"times":[1332,610,528,1036],"next_num":4,"trial_type":"ticket-choose","trial_index":47,"time_elapsed":724532,"internal_node_id":"0.0-47.0"},{"result":167,"points":2,"place":1,"phase":0,"sequence":28,"prices":[178,174,186,217,167,181,188,168,208,156],"times":[1371,741,616,674,977],"next_num":5,"trial_type":"ticket-choose","trial_index":48,"time_elapsed":731700,"internal_node_id":"0.0-48.0"},{"result":165,"points":2,"place":1,"phase":0,"sequence":29,"prices":[187,201,165,172,196,174,178,154,172,180],"times":[911,880,1600],"next_num":3,"trial_type":"ticket-choose","trial_index":49,"time_elapsed":737495,"internal_node_id":"0.0-49.0"},{"result":158,"points":2,"place":1,"phase":0,"sequence":30,"prices":[177,175,186,221,158,180,187,166,209,153],"times":[908,553,643,565,798],"next_num":5,"trial_type":"ticket-choose","trial_index":50,"time_elapsed":743545,"internal_node_id":"0.0-50.0"},{"result":153,"points":3,"place":0,"phase":0,"sequence":31,"prices":[163,175,186,214,176,179,187,166,153,208],"times":[1466,626,611,579,570,734,971,1187,788],"next_num":9,"trial_type":"ticket-choose","trial_index":51,"time_elapsed":754907,"internal_node_id":"0.0-51.0"},{"result":168,"points":1,"place":2,"phase":0,"sequence":32,"prices":[167,175,185,224,178,181,186,168,208,156],"times":[1405,735,554,569,679,823,727,1308],"next_num":8,"trial_type":"ticket-choose","trial_index":52,"time_elapsed":765067,"internal_node_id":"0.0-52.0"},{"result":153,"points":3,"place":0,"phase":0,"sequence":33,"prices":[167,175,186,225,178,179,187,169,209,153],"times":[1162,704,648,789,701,643,639,876,721,852],"next_num":10,"trial_type":"ticket-choose","trial_index":53,"time_elapsed":777257,"internal_node_id":"0.0-53.0"},{"result":158,"points":2,"place":1,"phase":0,"sequence":34,"prices":[158,175,186,209,177,181,188,167,208,154],"times":[1386],"next_num":1,"trial_type":"ticket-choose","trial_index":54,"time_elapsed":780459,"internal_node_id":"0.0-54.0"},{"result":166,"points":1,"place":3,"phase":0,"sequence":35,"prices":[201,204,179,166,185,165,214,156,202,165],"times":[6120,642,678,919],"next_num":4,"trial_type":"ticket-choose","trial_index":55,"time_elapsed":791490,"internal_node_id":"0.0-55.0"},{"result":164,"points":3,"place":0,"phase":0,"sequence":36,"prices":[199,191,188,174,167,193,189,164,176,170],"times":[1035,540,571,507,860,581,734,1050],"next_num":8,"trial_type":"ticket-choose","trial_index":56,"time_elapsed":801438,"internal_node_id":"0.0-56.0"},{"result":167,"points":2,"place":1,"phase":0,"sequence":37,"prices":[178,175,186,212,167,179,187,169,209,153],"times":[1430,538,671,657,1297],"next_num":5,"trial_type":"ticket-choose","trial_index":57,"time_elapsed":808758,"internal_node_id":"0.0-57.0"},{"result":167,"points":2,"place":1,"phase":0,"sequence":38,"prices":[178,175,185,215,167,181,186,168,208,156],"times":[929,627,610,556,985],"next_num":5,"trial_type":"ticket-choose","trial_index":58,"time_elapsed":815090,"internal_node_id":"0.0-58.0"},{"result":149,"points":3,"place":0,"phase":0,"sequence":39,"prices":[180,156,149,160,168,186,172,198,176,195],"times":[935,640,1257],"next_num":3,"trial_type":"ticket-choose","trial_index":59,"time_elapsed":820445,"internal_node_id":"0.0-59.0"},{"result":165,"points":3,"place":0,"phase":0,"sequence":40,"prices":[189,167,180,197,165,168,172,213,178,171],"times":[1077,970,603,613,922],"next_num":5,"trial_type":"ticket-choose","trial_index":60,"time_elapsed":827483,"internal_node_id":"0.0-60.0"},{"result":167,"points":1,"place":2,"phase":0,"sequence":41,"prices":[165,175,187,209,177,180,188,167,154,208],"times":[1141,711,680,634,764,806,859,1002],"next_num":8,"trial_type":"ticket-choose","trial_index":61,"time_elapsed":837487,"internal_node_id":"0.0-61.0"},{"result":169,"points":3,"place":0,"phase":0,"sequence":42,"prices":[220,173,201,197,169,205,198,183,178,186],"times":[4031,911,585,516,962],"next_num":5,"trial_type":"ticket-choose","trial_index":62,"time_elapsed":847263,"internal_node_id":"0.0-62.0"},{"result":159,"points":1,"place":2,"phase":0,"sequence":43,"prices":[181,159,149,175,185,151,163,174,178,207],"times":[836,1132],"next_num":2,"trial_type":"ticket-choose","trial_index":63,"time_elapsed":851328,"internal_node_id":"0.0-63.0"},{"result":166,"points":1,"place":2,"phase":0,"sequence":44,"prices":[163,174,186,212,176,181,187,166,153,209],"times":[783,617,621,758,835,1002,736,1112],"next_num":8,"trial_type":"ticket-choose","trial_index":64,"time_elapsed":861316,"internal_node_id":"0.0-64.0"},{"result":165,"points":2,"place":1,"phase":0,"sequence":45,"prices":[177,175,186,210,165,179,187,166,153,208],"times":[1138,634,969,962,959],"next_num":5,"trial_type":"ticket-choose","trial_index":65,"time_elapsed":868902,"internal_node_id":"0.0-65.0"},{"result":165,"points":1,"place":2,"phase":0,"sequence":46,"prices":[199,193,169,165,202,182,151,164,176,171],"times":[1076,564,588,1962],"next_num":4,"trial_type":"ticket-choose","trial_index":66,"time_elapsed":875968,"internal_node_id":"0.0-66.0"},{"result":158,"points":3,"place":0,"phase":0,"sequence":47,"prices":[214,184,226,192,215,158,199,175,176,208],"times":[1396,625,602,718,1034,1062],"next_num":6,"trial_type":"ticket-choose","trial_index":67,"time_elapsed":884558,"internal_node_id":"0.0-67.0"},{"result":165,"points":1,"place":2,"phase":0,"sequence":48,"prices":[171,169,186,165,163,167,220,148,187,165],"times":[1936,1327,734,898],"next_num":4,"trial_type":"ticket-choose","trial_index":68,"time_elapsed":892122,"internal_node_id":"0.0-68.0"},{"result":165,"points":3,"place":0,"phase":0,"sequence":49,"prices":[192,172,171,178,188,165,217,168,195,197],"times":[1217,597,578,881,1106,920],"next_num":6,"trial_type":"ticket-choose","trial_index":69,"time_elapsed":901047,"internal_node_id":"0.0-69.0"},{"responses":[{"value":4,"offby":3,"category":"$115 - $130","category_index":0},{"value":5,"offby":0,"category":"$131 - $145","category_index":1},{"value":10,"offby":-2,"category":"$146 - $160","category_index":2},{"value":20,"offby":-2,"category":"$161 - $175","category_index":3},{"value":30,"offby":-4,"category":"$176 - $190","category_index":4},{"value":25,"offby":10,"category":"$191 - $205","category_index":5},{"value":6,"offby":-5,"category":"$206 - $220","category_index":6}],"phase":1,"number":1,"trial_type":"bar-choose","trial_index":70,"time_elapsed":968655,"internal_node_id":"0.0-70.0"},{"rt":78183,"url":"\/christiane\/tickets\/utils\/testing2.html","trial_type":"point_update","trial_index":71,"time_elapsed":1048144,"internal_node_id":"0.0-71.0"},{"phase":1,"order":[16,32,41,17,38,23,29,20,6,22,15,40,28,26,35,43,24,30,49,10,0,48,18,47,8,13,11,33,3,36,21,12,1,2,19,25,45,5,4,34,39,7,42,44,14,9,37,46,31,27],"trial_type":"store_order","trial_index":72,"time_elapsed":1049144,"internal_node_id":"0.0-72.0"},{"result":150,"points":3,"place":0,"phase":1,"sequence":0,"prices":[189,150,175,160,188,207,158,194,178,199],"times":[2219,1156],"next_num":2,"trial_type":"ticket-choose","trial_index":73,"time_elapsed":1055277,"internal_node_id":"0.0-73.0"},{"result":167,"points":2,"place":1,"phase":1,"sequence":1,"prices":[175,186,178,212,179,187,167,169,209,153],"times":[1428,665,1113,914,901,859,953],"next_num":7,"trial_type":"ticket-choose","trial_index":74,"time_elapsed":1065553,"internal_node_id":"0.0-74.0"},{"result":158,"points":2,"place":1,"phase":1,"sequence":2,"prices":[175,186,158,211,180,187,177,166,209,153],"times":[1038,749,1069],"next_num":3,"trial_type":"ticket-choose","trial_index":75,"time_elapsed":1070877,"internal_node_id":"0.0-75.0"},{"result":168,"points":1,"place":2,"phase":1,"sequence":3,"prices":[174,186,167,211,181,188,178,168,208,156],"times":[1292,610,1346,677,592,790,1046,1351],"next_num":8,"trial_type":"ticket-choose","trial_index":76,"time_elapsed":1081989,"internal_node_id":"0.0-76.0"},{"result":163,"points":2,"place":1,"phase":1,"sequence":4,"prices":[175,187,176,209,180,188,163,165,154,208],"times":[995,572,718,814,780,1096,788],"next_num":7,"trial_type":"ticket-choose","trial_index":77,"time_elapsed":1091048,"internal_node_id":"0.0-77.0"},{"result":158,"points":2,"place":1,"phase":1,"sequence":5,"prices":[175,186,177,209,181,188,158,167,208,154],"times":[1520,572,656,634,739,1048,843],"next_num":7,"trial_type":"ticket-choose","trial_index":78,"time_elapsed":1100254,"internal_node_id":"0.0-78.0"},{"result":163,"points":2,"place":1,"phase":1,"sequence":6,"prices":[174,186,176,217,181,187,163,166,153,209],"times":[4425,909,836,642,645,2050,1250],"next_num":7,"trial_type":"ticket-choose","trial_index":79,"time_elapsed":1114428,"internal_node_id":"0.0-79.0"},{"result":169,"points":1,"place":2,"phase":1,"sequence":7,"prices":[175,186,167,225,179,187,178,169,209,153],"times":[1027,711,1134,606,611,862,1376,1176],"next_num":8,"trial_type":"ticket-choose","trial_index":80,"time_elapsed":1125350,"internal_node_id":"0.0-80.0"},{"result":168,"points":1,"place":2,"phase":1,"sequence":8,"prices":[175,185,167,224,181,186,178,168,208,156],"times":[4303,657,1828,758,556,827,954,1476],"next_num":8,"trial_type":"ticket-choose","trial_index":81,"time_elapsed":1140117,"internal_node_id":"0.0-81.0"},{"result":143,"points":3,"place":0,"phase":1,"sequence":9,"prices":[222,173,202,197,143,205,198,183,178,186],"times":[1112,675,732,571,1094],"next_num":5,"trial_type":"ticket-choose","trial_index":82,"time_elapsed":1147240,"internal_node_id":"0.0-82.0"},{"result":165,"points":3,"place":0,"phase":1,"sequence":10,"prices":[192,165,171,178,188,217,172,195,197,186],"times":[7776,1141],"next_num":2,"trial_type":"ticket-choose","trial_index":83,"time_elapsed":1159068,"internal_node_id":"0.0-83.0"},{"result":158,"points":2,"place":1,"phase":1,"sequence":11,"prices":[176,187,177,225,181,187,158,165,208,153],"times":[1647,805,947,616,680,572,991],"next_num":7,"trial_type":"ticket-choose","trial_index":84,"time_elapsed":1168512,"internal_node_id":"0.0-84.0"},{"result":165,"points":2,"place":1,"phase":1,"sequence":12,"prices":[174,186,165,212,181,187,177,167,153,209],"times":[771,735,946],"next_num":3,"trial_type":"ticket-choose","trial_index":85,"time_elapsed":1173368,"internal_node_id":"0.0-85.0"},{"result":152,"points":3,"place":0,"phase":1,"sequence":13,"prices":[200,181,203,152,175,171,160,154,176,191],"times":[841,720,563,867],"next_num":4,"trial_type":"ticket-choose","trial_index":86,"time_elapsed":1179038,"internal_node_id":"0.0-86.0"},{"result":167,"points":2,"place":1,"phase":1,"sequence":14,"prices":[175,185,178,215,181,186,167,168,208,156],"times":[904,1119,967,923,680,1101,2132],"next_num":7,"trial_type":"ticket-choose","trial_index":87,"time_elapsed":1190015,"internal_node_id":"0.0-87.0"},{"result":163,"points":2,"place":1,"phase":1,"sequence":15,"prices":[175,186,163,214,179,187,176,166,153,208],"times":[5519,1228,889],"next_num":3,"trial_type":"ticket-choose","trial_index":88,"time_elapsed":1199861,"internal_node_id":"0.0-88.0"},{"result":165,"points":3,"place":0,"phase":1,"sequence":16,"prices":[185,170,182,201,173,199,171,188,165,168],"times":[1410,1586,579,603,695,570,2020,829,946],"next_num":9,"trial_type":"ticket-choose","trial_index":89,"time_elapsed":1212943,"internal_node_id":"0.0-89.0"},{"result":167,"points":1,"place":2,"phase":1,"sequence":17,"prices":[171,203,175,170,167,220,192,186,165,165],"times":[7834,883,728,1106,1249],"next_num":5,"trial_type":"ticket-choose","trial_index":90,"time_elapsed":1227566,"internal_node_id":"0.0-90.0"},{"result":165,"points":3,"place":0,"phase":1,"sequence":18,"prices":[196,165,170,184,187,211,171,201,202,185],"times":[1138,985],"next_num":2,"trial_type":"ticket-choose","trial_index":91,"time_elapsed":1231995,"internal_node_id":"0.0-91.0"},{"result":167,"points":2,"place":1,"phase":1,"sequence":19,"prices":[174,186,178,217,181,188,167,168,208,156],"times":[1242,581,601,1563,786,798,1033],"next_num":7,"trial_type":"ticket-choose","trial_index":92,"time_elapsed":1243203,"internal_node_id":"0.0-92.0"},{"result":158,"points":2,"place":1,"phase":1,"sequence":20,"prices":[175,186,177,221,180,187,158,166,209,153],"times":[1541,978,696,757,787,922,1194],"next_num":7,"trial_type":"ticket-choose","trial_index":93,"time_elapsed":1253400,"internal_node_id":"0.0-93.0"},{"result":158,"points":2,"place":1,"phase":1,"sequence":21,"prices":[175,186,158,209,181,188,177,167,208,154],"times":[7133,688,883],"next_num":3,"trial_type":"ticket-choose","trial_index":94,"time_elapsed":1264637,"internal_node_id":"0.0-94.0"},{"result":163,"points":2,"place":1,"phase":1,"sequence":22,"prices":[198,193,169,163,202,182,152,164,177,171],"times":[1854,921,1053,978],"next_num":4,"trial_type":"ticket-choose","trial_index":95,"time_elapsed":1271899,"internal_node_id":"0.0-95.0"},{"result":165,"points":3,"place":0,"phase":1,"sequence":23,"prices":[193,165,175,181,185,224,180,199,218,184],"times":[2179,855],"next_num":2,"trial_type":"ticket-choose","trial_index":96,"time_elapsed":1277319,"internal_node_id":"0.0-96.0"},{"result":159,"points":1,"place":2,"phase":1,"sequence":24,"prices":[180,159,149,175,185,141,163,174,178,207],"times":[1167,868],"next_num":2,"trial_type":"ticket-choose","trial_index":97,"time_elapsed":1281893,"internal_node_id":"0.0-97.0"},{"result":163,"points":2,"place":1,"phase":1,"sequence":25,"prices":[175,187,163,209,180,188,176,165,154,208],"times":[686,524,860],"next_num":3,"trial_type":"ticket-choose","trial_index":98,"time_elapsed":1286363,"internal_node_id":"0.0-98.0"},{"result":165,"points":2,"place":1,"phase":1,"sequence":26,"prices":[175,186,177,210,179,187,165,166,153,208],"times":[667,580,560,530,588,610,829],"next_num":7,"trial_type":"ticket-choose","trial_index":99,"time_elapsed":1293997,"internal_node_id":"0.0-99.0"},{"result":163,"points":2,"place":1,"phase":1,"sequence":27,"prices":[175,186,176,210,179,187,163,166,153,208],"times":[818,667,829,907,734,626,860],"next_num":7,"trial_type":"ticket-choose","trial_index":100,"time_elapsed":1302884,"internal_node_id":"0.0-100.0"},{"result":165,"points":2,"place":1,"phase":1,"sequence":28,"prices":[175,187,165,209,180,188,177,166,154,208],"times":[1013,485,1618],"next_num":3,"trial_type":"ticket-choose","trial_index":101,"time_elapsed":1308484,"internal_node_id":"0.0-101.0"},{"result":165,"points":2,"place":1,"phase":1,"sequence":29,"prices":[175,186,165,214,179,187,177,166,153,208],"times":[891,908,2203],"next_num":3,"trial_type":"ticket-choose","trial_index":102,"time_elapsed":1314801,"internal_node_id":"0.0-102.0"},{"result":165,"points":2,"place":1,"phase":1,"sequence":30,"prices":[200,165,165,173,182,207,161,202,204,180],"times":[864,1431],"next_num":2,"trial_type":"ticket-choose","trial_index":103,"time_elapsed":1319353,"internal_node_id":"0.0-103.0"},{"result":165,"points":2,"place":1,"phase":1,"sequence":31,"prices":[175,187,177,209,180,188,165,165,154,208],"times":[761,1414,1932,625,705,626,852],"next_num":7,"trial_type":"ticket-choose","trial_index":104,"time_elapsed":1329331,"internal_node_id":"0.0-104.0"},{"result":163,"points":2,"place":1,"phase":1,"sequence":32,"prices":[174,186,163,212,181,187,176,166,153,209],"times":[1537,665,876],"next_num":3,"trial_type":"ticket-choose","trial_index":105,"time_elapsed":1334767,"internal_node_id":"0.0-105.0"},{"result":155,"points":2,"place":1,"phase":1,"sequence":33,"prices":[181,155,148,161,168,187,172,199,176,194],"times":[795,806],"next_num":2,"trial_type":"ticket-choose","trial_index":106,"time_elapsed":1338478,"internal_node_id":"0.0-106.0"},{"result":154,"points":2,"place":1,"phase":1,"sequence":34,"prices":[168,154,172,185,195,144,184,211,177,227],"times":[1310,883],"next_num":2,"trial_type":"ticket-choose","trial_index":107,"time_elapsed":1342809,"internal_node_id":"0.0-107.0"},{"result":165,"points":3,"place":0,"phase":1,"sequence":35,"prices":[189,167,180,197,165,168,172,213,178,171],"times":[705,876,517,540,1500],"next_num":5,"trial_type":"ticket-choose","trial_index":108,"time_elapsed":1353531,"internal_node_id":"0.0-108.0"},{"result":163,"points":3,"place":0,"phase":1,"sequence":36,"prices":[168,199,196,198,185,195,227,163,177,166],"times":[1023,618,601,540,539,673,609,1314],"next_num":8,"trial_type":"ticket-choose","trial_index":109,"time_elapsed":1365494,"internal_node_id":"0.0-109.0"},{"result":167,"points":2,"place":1,"phase":1,"sequence":37,"prices":[212,192,188,184,167,193,189,164,176,170],"times":[1233,719,1614,711,925],"next_num":5,"trial_type":"ticket-choose","trial_index":110,"time_elapsed":1373866,"internal_node_id":"0.0-110.0"},{"result":163,"points":1,"place":2,"phase":1,"sequence":38,"prices":[183,163,185,180,166,148,160,186,176,184],"times":[1153,876],"next_num":2,"trial_type":"ticket-choose","trial_index":111,"time_elapsed":1378818,"internal_node_id":"0.0-111.0"},{"result":167,"points":2,"place":1,"phase":1,"sequence":39,"prices":[183,182,192,168,173,205,167,187,165,170],"times":[981,688,602,1250,664,618,1093],"next_num":7,"trial_type":"ticket-choose","trial_index":112,"time_elapsed":1388064,"internal_node_id":"0.0-112.0"},{"result":165,"points":3,"place":0,"phase":1,"sequence":40,"prices":[191,172,169,175,182,203,170,195,165,176],"times":[1463,936,947,596,717,579,732,643,1896],"next_num":9,"trial_type":"ticket-choose","trial_index":113,"time_elapsed":1400430,"internal_node_id":"0.0-113.0"},{"result":157,"points":3,"place":0,"phase":1,"sequence":41,"prices":[201,187,157,184,198,179,188,185,178,170],"times":[1561,851,953],"next_num":3,"trial_type":"ticket-choose","trial_index":114,"time_elapsed":1406429,"internal_node_id":"0.0-114.0"},{"result":155,"points":2,"place":1,"phase":1,"sequence":42,"prices":[201,207,155,158,156,165,167,135,178,177],"times":[1661,702,853],"next_num":3,"trial_type":"ticket-choose","trial_index":115,"time_elapsed":1412111,"internal_node_id":"0.0-115.0"},{"result":165,"points":2,"place":1,"phase":1,"sequence":43,"prices":[188,200,165,172,198,174,177,154,177,180],"times":[833,625,899],"next_num":3,"trial_type":"ticket-choose","trial_index":116,"time_elapsed":1416791,"internal_node_id":"0.0-116.0"},{"result":158,"points":3,"place":0,"phase":1,"sequence":44,"prices":[210,184,226,193,215,158,199,175,176,208],"times":[591,541,531,641,670,869],"next_num":6,"trial_type":"ticket-choose","trial_index":117,"time_elapsed":1423510,"internal_node_id":"0.0-117.0"},{"result":169,"points":2,"place":1,"phase":1,"sequence":45,"prices":[181,215,169,147,182,193,177,184,176,179],"times":[630,657,867],"next_num":3,"trial_type":"ticket-choose","trial_index":118,"time_elapsed":1427915,"internal_node_id":"0.0-118.0"},{"result":158,"points":2,"place":1,"phase":1,"sequence":46,"prices":[176,187,158,210,181,187,177,165,208,153],"times":[722,522,779],"next_num":3,"trial_type":"ticket-choose","trial_index":119,"time_elapsed":1432287,"internal_node_id":"0.0-119.0"},{"result":165,"points":2,"place":1,"phase":1,"sequence":47,"prices":[174,186,177,217,181,187,165,166,153,209],"times":[2574,711,566,656,653,562,913],"next_num":7,"trial_type":"ticket-choose","trial_index":120,"time_elapsed":1442202,"internal_node_id":"0.0-120.0"},{"result":165,"points":3,"place":0,"phase":1,"sequence":48,"prices":[193,169,171,187,190,224,174,194,165,188],"times":[888,1171,524,563,546,579,943,851,923],"next_num":9,"trial_type":"ticket-choose","trial_index":121,"time_elapsed":1463216,"internal_node_id":"0.0-121.0"},{"result":165,"points":2,"place":1,"phase":1,"sequence":49,"prices":[201,165,162,166,185,214,165,202,204,179],"times":[1274,1156],"next_num":2,"trial_type":"ticket-choose","trial_index":122,"time_elapsed":1470916,"internal_node_id":"0.0-122.0"},{"responses":[{"value":5,"offby":4,"category":"$115 - $130","category_index":0},{"value":10,"offby":5,"category":"$131 - $145","category_index":1},{"value":15,"offby":3,"category":"$146 - $160","category_index":2},{"value":30,"offby":8,"category":"$161 - $175","category_index":3},{"value":25,"offby":-9,"category":"$176 - $190","category_index":4},{"value":10,"offby":-5,"category":"$191 - $205","category_index":5},{"value":5,"offby":-6,"category":"$206 - $220","category_index":6}],"phase":1,"number":1,"trial_type":"bar-choose","trial_index":123,"time_elapsed":1675536,"internal_node_id":"0.0-123.0"},{"special_comment":"they started with 175 a lot","trial_type":"special_sequence","trial_index":124,"time_elapsed":1694279,"internal_node_id":"0.0-124.0"},{"during":"Nothing","bonus":280,"trial_type":"final","trial_index":125,"time_elapsed":1736132,"internal_node_id":"0.0-125.0"}],"bonus":280}