{"start_time":"2017-05-24 15:27:20","end_time":"2017-05-24 16:10:19","points_phase0":107,"points_phase1":111,"phase_order":1,"age":37,"gender":"f","tries":2,"during":"Nothing","worker_id":"ASI2B6A3Y556Z","assignment_id":"33F859I5676535JEYOH1OYBS4KXBHK","data":[{"rt":45781,"url":"\/christiane\/tickets\/utils\/consent.html","trial_type":"html","trial_index":0,"time_elapsed":45836,"internal_node_id":"0.0-0.0"},{"age":37,"gender":"f","trial_type":"age","trial_index":1,"time_elapsed":55199,"internal_node_id":"0.0-1.0"},{"worker_id":"ASI2B6A3Y556Z","trial_type":"workerid","trial_index":2,"time_elapsed":96331,"internal_node_id":"0.0-2.0"},{"tries":2,"trial_type":"instructions_check","trial_index":3,"time_elapsed":348779,"internal_node_id":"0.0-3.0"},{"rt":125738,"url":"\/christiane\/tickets\/utils\/start.html","trial_type":"html","trial_index":4,"time_elapsed":475613,"internal_node_id":"0.0-4.0"},{"trial_type":"number-animation","trial_index":5,"time_elapsed":520357,"internal_node_id":"0.0-5.0"},{"phase":0,"sequence":0,"avg":181,"response":175,"trial_type":"training_avg","trial_index":6,"time_elapsed":535938,"internal_node_id":"0.0-6.0"},{"trial_type":"number-animation","trial_index":7,"time_elapsed":596658,"internal_node_id":"0.0-7.0"},{"phase":0,"sequence":1,"avg":188,"response":160,"trial_type":"training_avg","trial_index":8,"time_elapsed":609165,"internal_node_id":"0.0-8.0"},{"trial_type":"number-animation","trial_index":9,"time_elapsed":648016,"internal_node_id":"0.0-9.0"},{"phase":0,"sequence":2,"avg":188,"response":195,"trial_type":"training_avg","trial_index":10,"time_elapsed":664759,"internal_node_id":"0.0-10.0"},{"trial_type":"number-animation","trial_index":11,"time_elapsed":762616,"internal_node_id":"0.0-11.0"},{"phase":0,"sequence":3,"avg":177,"response":170,"trial_type":"training_avg","trial_index":12,"time_elapsed":809670,"internal_node_id":"0.0-12.0"},{"trial_type":"number-animation","trial_index":13,"time_elapsed":860853,"internal_node_id":"0.0-13.0"},{"phase":0,"sequence":4,"avg":182,"response":180,"trial_type":"training_avg","trial_index":14,"time_elapsed":887216,"internal_node_id":"0.0-14.0"},{"responses":[{"value":0,"offby":-1,"category":"$115 - $130","category_index":0},{"value":0,"offby":-5,"category":"$131 - $145","category_index":1},{"value":5,"offby":-7,"category":"$146 - $160","category_index":2},{"value":20,"offby":-2,"category":"$161 - $175","category_index":3},{"value":50,"offby":16,"category":"$176 - $190","category_index":4},{"value":20,"offby":5,"category":"$191 - $205","category_index":5},{"value":5,"offby":-6,"category":"$206 - $220","category_index":6}],"phase":0,"number":0,"trial_type":"bar-choose","trial_index":15,"time_elapsed":1037229,"internal_node_id":"0.0-15.0"},{"rt":67028,"url":"\/christiane\/tickets\/utils\/testing.html","trial_type":"html","trial_index":16,"time_elapsed":1105334,"internal_node_id":"0.0-16.0"},{"phase":0,"order":[10,30,45,28,46,38,44,4,1,14,49,31,25,29,6,33,42,3,24,15,39,17,21,27,34,5,48,18,26,0,40,7,36,47,20,22,37,32,13,19,41,43,8,9,23,11,16,35,12,2],"trial_type":"store_order","trial_index":17,"time_elapsed":1106338,"internal_node_id":"0.0-17.0"},{"result":165,"points":2,"place":1,"phase":0,"sequence":-1,"prices":[184,180,224,165,181,199,185,193,218,146],"times":[3831,1611,950,1254],"next_num":4,"trial_type":"ticket-choose","trial_index":18,"time_elapsed":1117825,"internal_node_id":"0.0-18.0"},{"rt":36502,"url":"\/christiane\/tickets\/utils\/testing_after.html","trial_type":"html","trial_index":19,"time_elapsed":1155402,"internal_node_id":"0.0-19.0"},{"result":167,"points":2,"place":1,"phase":0,"sequence":0,"prices":[189,167,180,197,165,168,172,213,178,171],"times":[2951,1507],"next_num":2,"trial_type":"ticket-choose","trial_index":20,"time_elapsed":1163817,"internal_node_id":"0.0-20.0"},{"result":166,"points":1,"place":3,"phase":0,"sequence":1,"prices":[201,204,179,166,185,165,214,156,202,165],"times":[1382,763,674,1941],"next_num":4,"trial_type":"ticket-choose","trial_index":21,"time_elapsed":1172516,"internal_node_id":"0.0-21.0"},{"result":153,"points":3,"place":0,"phase":0,"sequence":2,"prices":[165,174,186,212,177,181,187,166,153,209],"times":[1626,660,632,642,639,630,641,1141,1090],"next_num":9,"trial_type":"ticket-choose","trial_index":22,"time_elapsed":1184707,"internal_node_id":"0.0-22.0"},{"result":156,"points":3,"place":0,"phase":0,"sequence":3,"prices":[167,174,186,211,178,181,188,168,208,156],"times":[1613,514,515,566,555,629,579,1822,1665,1253],"next_num":10,"trial_type":"ticket-choose","trial_index":23,"time_elapsed":1198797,"internal_node_id":"0.0-23.0"},{"result":153,"points":3,"place":0,"phase":0,"sequence":4,"prices":[167,175,186,225,178,179,187,169,209,153],"times":[1197,555,504,516,480,722,634,1043,701,1233],"next_num":10,"trial_type":"ticket-choose","trial_index":24,"time_elapsed":1210698,"internal_node_id":"0.0-24.0"},{"result":164,"points":2,"place":1,"phase":0,"sequence":5,"prices":[199,193,169,165,202,182,151,164,176,171],"times":[3299,530,490,511,686,534,475,1864],"next_num":8,"trial_type":"ticket-choose","trial_index":25,"time_elapsed":1223378,"internal_node_id":"0.0-25.0"},{"result":152,"points":3,"place":0,"phase":0,"sequence":6,"prices":[200,173,182,169,207,165,152,202,161,204],"times":[1140,709,565,552,549,982,900],"next_num":7,"trial_type":"ticket-choose","trial_index":26,"time_elapsed":1232209,"internal_node_id":"0.0-26.0"},{"result":158,"points":3,"place":0,"phase":0,"sequence":7,"prices":[214,184,226,192,215,158,199,175,176,208],"times":[694,440,614,517,1000,1368],"next_num":6,"trial_type":"ticket-choose","trial_index":27,"time_elapsed":1240246,"internal_node_id":"0.0-27.0"},{"result":161,"points":1,"place":2,"phase":0,"sequence":8,"prices":[190,150,175,161,188,207,157,194,178,199],"times":[1118,471,1431,996],"next_num":4,"trial_type":"ticket-choose","trial_index":28,"time_elapsed":1247213,"internal_node_id":"0.0-28.0"},{"result":166,"points":1,"place":2,"phase":0,"sequence":9,"prices":[163,199,196,199,185,195,227,163,177,166],"times":[1175,595,667,703,693,699,754,724,1098,1180],"next_num":10,"trial_type":"ticket-choose","trial_index":29,"time_elapsed":1260742,"internal_node_id":"0.0-29.0"},{"result":158,"points":2,"place":1,"phase":0,"sequence":10,"prices":[158,175,186,211,177,180,187,166,209,153],"times":[1207],"next_num":1,"trial_type":"ticket-choose","trial_index":30,"time_elapsed":1264370,"internal_node_id":"0.0-30.0"},{"result":153,"points":3,"place":0,"phase":0,"sequence":11,"prices":[165,175,186,214,177,179,187,166,153,208],"times":[1078,621,675,742,727,568,886,1551,949],"next_num":9,"trial_type":"ticket-choose","trial_index":31,"time_elapsed":1275864,"internal_node_id":"0.0-31.0"},{"result":154,"points":3,"place":0,"phase":0,"sequence":12,"prices":[163,175,187,209,176,180,188,165,154,208],"times":[779,541,525,798,643,643,678,1406,921],"next_num":9,"trial_type":"ticket-choose","trial_index":32,"time_elapsed":1286886,"internal_node_id":"0.0-32.0"},{"result":153,"points":3,"place":0,"phase":0,"sequence":13,"prices":[163,175,186,214,176,179,187,166,153,208],"times":[1666,690,630,638,609,561,503,516,868],"next_num":9,"trial_type":"ticket-choose","trial_index":33,"time_elapsed":1297435,"internal_node_id":"0.0-33.0"},{"result":195,"points":0,"place":7,"phase":0,"sequence":14,"prices":[193,174,224,165,187,190,224,161,194,195],"times":[654,431,452,390,416,536,430,462,471,561],"next_num":11,"trial_type":"ticket-choose","trial_index":34,"time_elapsed":1307114,"internal_node_id":"0.0-34.0"},{"result":159,"points":1,"place":2,"phase":0,"sequence":15,"prices":[181,159,149,175,185,151,163,174,178,207],"times":[3985,1022],"next_num":2,"trial_type":"ticket-choose","trial_index":35,"time_elapsed":1315013,"internal_node_id":"0.0-35.0"},{"result":154,"points":3,"place":0,"phase":0,"sequence":16,"prices":[187,201,165,172,196,174,178,154,172,180],"times":[746,633,775,570,596,661,499,864],"next_num":8,"trial_type":"ticket-choose","trial_index":36,"time_elapsed":1324987,"internal_node_id":"0.0-36.0"},{"result":154,"points":3,"place":0,"phase":0,"sequence":17,"prices":[165,175,187,209,177,180,188,167,154,208],"times":[1189,2939,461,489,732,593,534,482,884],"next_num":9,"trial_type":"ticket-choose","trial_index":37,"time_elapsed":1344686,"internal_node_id":"0.0-37.0"},{"result":156,"points":3,"place":0,"phase":0,"sequence":18,"prices":[178,175,185,215,167,181,186,168,208,156],"times":[2287,586,527,612,535,574,567,958,814,1078],"next_num":10,"trial_type":"ticket-choose","trial_index":38,"time_elapsed":1364288,"internal_node_id":"0.0-38.0"},{"result":156,"points":2,"place":1,"phase":0,"sequence":19,"prices":[180,156,149,160,168,186,172,198,176,195],"times":[1254,908],"next_num":2,"trial_type":"ticket-choose","trial_index":39,"time_elapsed":1374792,"internal_node_id":"0.0-39.0"},{"result":202,"points":0,"place":8,"phase":0,"sequence":20,"prices":[196,171,170,184,187,165,211,169,201,202],"times":[1135,707,704,527,517,1009,543,1173,1299,2327],"next_num":11,"trial_type":"ticket-choose","trial_index":40,"time_elapsed":1389327,"internal_node_id":"0.0-40.0"},{"result":184,"points":1,"place":4,"phase":0,"sequence":21,"prices":[193,181,175,181,185,165,224,199,218,184],"times":[9178,1256,601,578,515,1187,576,1519,615,2538],"next_num":10,"trial_type":"ticket-choose","trial_index":41,"time_elapsed":1412570,"internal_node_id":"0.0-41.0"},{"result":153,"points":3,"place":0,"phase":0,"sequence":22,"prices":[176,186,178,217,163,181,187,166,153,209],"times":[2596,508,455,501,2428,580,510,828,839],"next_num":9,"trial_type":"ticket-choose","trial_index":42,"time_elapsed":1547960,"internal_node_id":"0.0-42.0"},{"result":186,"points":1,"place":4,"phase":0,"sequence":23,"prices":[220,173,201,197,169,205,198,183,178,186],"times":[6512,734,460,461,741,598,630,549,760,1237],"next_num":10,"trial_type":"ticket-choose","trial_index":43,"time_elapsed":1565085,"internal_node_id":"0.0-43.0"},{"result":170,"points":1,"place":2,"phase":0,"sequence":24,"prices":[199,191,188,174,167,193,189,164,176,170],"times":[1027,514,510,527,515,487,528,1309,468,631],"next_num":11,"trial_type":"ticket-choose","trial_index":44,"time_elapsed":1575685,"internal_node_id":"0.0-44.0"},{"result":163,"points":2,"place":1,"phase":0,"sequence":25,"prices":[163,174,186,212,176,181,187,166,153,209],"times":[6096],"next_num":1,"trial_type":"ticket-choose","trial_index":45,"time_elapsed":1584265,"internal_node_id":"0.0-45.0"},{"result":157,"points":3,"place":0,"phase":0,"sequence":26,"prices":[191,170,182,165,175,182,203,157,195,200],"times":[1044,541,535,904,545,574,871,931],"next_num":8,"trial_type":"ticket-choose","trial_index":46,"time_elapsed":1594287,"internal_node_id":"0.0-46.0"},{"result":159,"points":3,"place":0,"phase":0,"sequence":27,"prices":[183,179,188,165,168,173,205,159,187,191],"times":[991,455,464,853,497,574,547,826],"next_num":8,"trial_type":"ticket-choose","trial_index":47,"time_elapsed":1614804,"internal_node_id":"0.0-47.0"},{"result":197,"points":0,"place":8,"phase":0,"sequence":28,"prices":[192,172,171,178,188,165,217,168,195,197],"times":[1191,566,438,416,410,726,520,449,1202,1294],"next_num":10,"trial_type":"ticket-choose","trial_index":48,"time_elapsed":1627458,"internal_node_id":"0.0-48.0"},{"result":155,"points":2,"place":1,"phase":0,"sequence":29,"prices":[200,207,155,158,156,168,167,135,178,177],"times":[1326,463,855],"next_num":3,"trial_type":"ticket-choose","trial_index":49,"time_elapsed":1632798,"internal_node_id":"0.0-49.0"},{"result":166,"points":1,"place":2,"phase":0,"sequence":30,"prices":[177,175,186,221,158,180,187,166,209,153],"times":[5450,494,446,436,386,951,637,810],"next_num":8,"trial_type":"ticket-choose","trial_index":50,"time_elapsed":1646168,"internal_node_id":"0.0-50.0"},{"result":153,"points":2,"place":1,"phase":0,"sequence":31,"prices":[167,153,172,185,195,143,184,211,177,227],"times":[1194,855],"next_num":2,"trial_type":"ticket-choose","trial_index":51,"time_elapsed":1650744,"internal_node_id":"0.0-51.0"},{"result":156,"points":3,"place":0,"phase":0,"sequence":32,"prices":[167,175,185,224,178,181,186,168,208,156],"times":[43489,614,483,526,463,535,551,1697,697,801],"next_num":10,"trial_type":"ticket-choose","trial_index":52,"time_elapsed":1705491,"internal_node_id":"0.0-52.0"},{"result":153,"points":3,"place":0,"phase":0,"sequence":33,"prices":[177,175,186,210,165,179,187,166,153,208],"times":[1193,643,475,567,1280,645,625,957,839],"next_num":9,"trial_type":"ticket-choose","trial_index":53,"time_elapsed":1716589,"internal_node_id":"0.0-53.0"},{"result":158,"points":2,"place":1,"phase":0,"sequence":34,"prices":[177,176,187,225,158,181,187,165,208,153],"times":[964,501,373,420,916],"next_num":5,"trial_type":"ticket-choose","trial_index":54,"time_elapsed":1722673,"internal_node_id":"0.0-54.0"},{"result":158,"points":2,"place":1,"phase":0,"sequence":35,"prices":[177,175,186,209,158,181,188,167,208,154],"times":[774,590,638,600,1029],"next_num":5,"trial_type":"ticket-choose","trial_index":55,"time_elapsed":1729329,"internal_node_id":"0.0-55.0"},{"result":156,"points":3,"place":0,"phase":0,"sequence":36,"prices":[178,174,186,217,167,181,188,168,208,156],"times":[1002,468,501,499,492,613,633,894,755,725],"next_num":10,"trial_type":"ticket-choose","trial_index":56,"time_elapsed":1740416,"internal_node_id":"0.0-56.0"},{"result":153,"points":3,"place":0,"phase":0,"sequence":37,"prices":[178,175,186,212,167,179,187,169,209,153],"times":[1889,474,381,405,409,458,661,836,634,770],"next_num":10,"trial_type":"ticket-choose","trial_index":57,"time_elapsed":1756653,"internal_node_id":"0.0-57.0"},{"result":163,"points":1,"place":2,"phase":0,"sequence":38,"prices":[173,163,185,181,166,148,160,185,176,184],"times":[1352,1673],"next_num":2,"trial_type":"ticket-choose","trial_index":58,"time_elapsed":1762282,"internal_node_id":"0.0-58.0"},{"result":147,"points":3,"place":0,"phase":0,"sequence":39,"prices":[181,214,169,147,182,193,178,184,176,179],"times":[727,603,1184,924],"next_num":4,"trial_type":"ticket-choose","trial_index":59,"time_elapsed":1778284,"internal_node_id":"0.0-59.0"},{"result":153,"points":3,"place":0,"phase":0,"sequence":40,"prices":[176,175,186,210,163,179,187,166,153,208],"times":[1550,523,460,654,425,720,519,641,772],"next_num":9,"trial_type":"ticket-choose","trial_index":60,"time_elapsed":1788699,"internal_node_id":"0.0-60.0"},{"result":158,"points":2,"place":1,"phase":0,"sequence":41,"prices":[158,176,187,210,177,181,187,165,208,153],"times":[2945],"next_num":1,"trial_type":"ticket-choose","trial_index":61,"time_elapsed":1794816,"internal_node_id":"0.0-61.0"},{"result":157,"points":3,"place":0,"phase":0,"sequence":42,"prices":[201,187,157,184,198,179,188,185,178,170],"times":[1115,2073,814],"next_num":3,"trial_type":"ticket-choose","trial_index":62,"time_elapsed":1801624,"internal_node_id":"0.0-62.0"},{"result":158,"points":2,"place":1,"phase":0,"sequence":43,"prices":[158,175,186,209,177,181,188,167,208,154],"times":[5706],"next_num":1,"trial_type":"ticket-choose","trial_index":63,"time_elapsed":1809847,"internal_node_id":"0.0-63.0"},{"result":163,"points":2,"place":1,"phase":0,"sequence":44,"prices":[171,169,186,165,163,167,220,148,187,165],"times":[16833,1015,558,1107,1359],"next_num":5,"trial_type":"ticket-choose","trial_index":64,"time_elapsed":1833785,"internal_node_id":"0.0-64.0"},{"result":161,"points":2,"place":1,"phase":0,"sequence":45,"prices":[185,179,191,165,161,173,199,150,188,168],"times":[974,480,488,784,882],"next_num":5,"trial_type":"ticket-choose","trial_index":65,"time_elapsed":1840404,"internal_node_id":"0.0-65.0"},{"result":177,"points":1,"place":4,"phase":0,"sequence":46,"prices":[177,174,186,217,165,181,187,166,153,209],"times":[30051],"next_num":1,"trial_type":"ticket-choose","trial_index":66,"time_elapsed":1874615,"internal_node_id":"0.0-66.0"},{"result":154,"points":3,"place":0,"phase":0,"sequence":47,"prices":[177,175,187,209,165,180,188,165,154,208],"times":[1948,595,568,601,937,1074,551,952,869],"next_num":9,"trial_type":"ticket-choose","trial_index":67,"time_elapsed":1887123,"internal_node_id":"0.0-67.0"},{"result":152,"points":3,"place":0,"phase":0,"sequence":48,"prices":[200,180,203,152,175,170,160,154,176,191],"times":[1916,512,577,1036],"next_num":4,"trial_type":"ticket-choose","trial_index":68,"time_elapsed":1893954,"internal_node_id":"0.0-68.0"},{"result":163,"points":2,"place":1,"phase":0,"sequence":49,"prices":[176,187,179,209,163,180,188,165,154,208],"times":[901,670,540,591,1625],"next_num":5,"trial_type":"ticket-choose","trial_index":69,"time_elapsed":1902263,"internal_node_id":"0.0-69.0"},{"responses":[{"value":0,"offby":-1,"category":"$115 - $130","category_index":0},{"value":5,"offby":0,"category":"$131 - $145","category_index":1},{"value":5,"offby":-7,"category":"$146 - $160","category_index":2},{"value":70,"offby":48,"category":"$161 - $175","category_index":3},{"value":10,"offby":-24,"category":"$176 - $190","category_index":4},{"value":5,"offby":-10,"category":"$191 - $205","category_index":5},{"value":5,"offby":-6,"category":"$206 - $220","category_index":6}],"phase":1,"number":1,"trial_type":"bar-choose","trial_index":70,"time_elapsed":2002170,"internal_node_id":"0.0-70.0"},{"rt":26935,"url":"\/christiane\/tickets\/utils\/testing2.html","trial_type":"point_update","trial_index":71,"time_elapsed":2030294,"internal_node_id":"0.0-71.0"},{"phase":1,"order":[39,25,8,0,2,37,26,46,40,38,18,6,13,12,32,44,36,7,4,34,28,24,17,42,45,14,30,33,27,41,21,35,1,9,23,22,3,5,49,48,15,20,43,19,31,29,11,10,47,16],"trial_type":"store_order","trial_index":72,"time_elapsed":2031299,"internal_node_id":"0.0-72.0"},{"result":177,"points":1,"place":4,"phase":1,"sequence":0,"prices":[175,187,177,209,180,188,165,165,154,208],"times":[2309,1893,751],"next_num":3,"trial_type":"ticket-choose","trial_index":73,"time_elapsed":2039321,"internal_node_id":"0.0-73.0"},{"result":165,"points":3,"place":0,"phase":1,"sequence":1,"prices":[191,172,169,175,182,203,170,195,165,176],"times":[15247,2208,999,675,622,661,636,742,2309],"next_num":9,"trial_type":"ticket-choose","trial_index":74,"time_elapsed":2068821,"internal_node_id":"0.0-74.0"},{"result":167,"points":2,"place":1,"phase":1,"sequence":2,"prices":[212,192,188,184,167,193,189,164,176,170],"times":[1907,802,632,2101,1056],"next_num":5,"trial_type":"ticket-choose","trial_index":75,"time_elapsed":2078401,"internal_node_id":"0.0-75.0"},{"result":165,"points":3,"place":0,"phase":1,"sequence":3,"prices":[196,165,170,184,187,211,171,201,202,185],"times":[820,1057],"next_num":2,"trial_type":"ticket-choose","trial_index":76,"time_elapsed":2082575,"internal_node_id":"0.0-76.0"},{"result":158,"points":3,"place":0,"phase":1,"sequence":4,"prices":[210,184,226,193,215,158,199,175,176,208],"times":[2040,762,572,656,733,975],"next_num":6,"trial_type":"ticket-choose","trial_index":77,"time_elapsed":2093185,"internal_node_id":"0.0-77.0"},{"result":168,"points":1,"place":2,"phase":1,"sequence":5,"prices":[168,199,196,198,185,195,227,163,177,166],"times":[2111],"next_num":1,"trial_type":"ticket-choose","trial_index":78,"time_elapsed":2097601,"internal_node_id":"0.0-78.0"},{"result":159,"points":1,"place":2,"phase":1,"sequence":6,"prices":[180,159,149,175,185,141,163,174,178,207],"times":[816,880],"next_num":2,"trial_type":"ticket-choose","trial_index":79,"time_elapsed":2101615,"internal_node_id":"0.0-79.0"},{"result":167,"points":2,"place":1,"phase":1,"sequence":7,"prices":[175,185,178,215,181,186,167,168,208,156],"times":[876,576,535,634,588,595,1104],"next_num":7,"trial_type":"ticket-choose","trial_index":80,"time_elapsed":2109829,"internal_node_id":"0.0-80.0"},{"result":167,"points":2,"place":1,"phase":1,"sequence":8,"prices":[175,185,167,224,181,186,178,168,208,156],"times":[777,490,927],"next_num":3,"trial_type":"ticket-choose","trial_index":81,"time_elapsed":2114489,"internal_node_id":"0.0-81.0"},{"result":163,"points":2,"place":1,"phase":1,"sequence":9,"prices":[174,186,163,212,181,187,176,166,153,209],"times":[3184,752,937],"next_num":3,"trial_type":"ticket-choose","trial_index":82,"time_elapsed":2122079,"internal_node_id":"0.0-82.0"},{"result":163,"points":1,"place":2,"phase":1,"sequence":10,"prices":[183,163,185,180,166,148,160,186,176,184],"times":[754,816],"next_num":2,"trial_type":"ticket-choose","trial_index":83,"time_elapsed":2126001,"internal_node_id":"0.0-83.0"},{"result":165,"points":3,"place":0,"phase":1,"sequence":11,"prices":[171,203,175,170,167,220,192,186,165,165],"times":[1153,567,574,587,2191,579,613,875,859],"next_num":9,"trial_type":"ticket-choose","trial_index":84,"time_elapsed":2153363,"internal_node_id":"0.0-84.0"},{"result":165,"points":2,"place":1,"phase":1,"sequence":12,"prices":[201,165,162,166,185,214,165,202,204,179],"times":[2108,2269],"next_num":2,"trial_type":"ticket-choose","trial_index":85,"time_elapsed":2159985,"internal_node_id":"0.0-85.0"},{"result":165,"points":3,"place":0,"phase":1,"sequence":13,"prices":[185,170,182,201,173,199,171,188,165,168],"times":[3821,578,588,673,1058,657,754,637,756],"next_num":9,"trial_type":"ticket-choose","trial_index":86,"time_elapsed":2173307,"internal_node_id":"0.0-86.0"},{"result":165,"points":2,"place":1,"phase":1,"sequence":14,"prices":[175,186,165,214,179,187,177,166,153,208],"times":[1089,7061,3262],"next_num":3,"trial_type":"ticket-choose","trial_index":87,"time_elapsed":2187207,"internal_node_id":"0.0-87.0"},{"result":167,"points":2,"place":1,"phase":1,"sequence":15,"prices":[183,182,192,168,173,205,167,187,165,170],"times":[2728,586,560,1690,533,659,840],"next_num":7,"trial_type":"ticket-choose","trial_index":88,"time_elapsed":2198107,"internal_node_id":"0.0-88.0"},{"result":143,"points":3,"place":0,"phase":1,"sequence":16,"prices":[222,173,202,197,143,205,198,183,178,186],"times":[953,596,553,566,932],"next_num":5,"trial_type":"ticket-choose","trial_index":89,"time_elapsed":2204990,"internal_node_id":"0.0-89.0"},{"result":167,"points":2,"place":1,"phase":1,"sequence":17,"prices":[174,186,178,217,181,188,167,168,208,156],"times":[720,632,566,550,669,573,2325],"next_num":7,"trial_type":"ticket-choose","trial_index":90,"time_elapsed":2214402,"internal_node_id":"0.0-90.0"},{"result":165,"points":3,"place":0,"phase":1,"sequence":18,"prices":[193,165,175,181,185,224,180,199,218,184],"times":[743,2006],"next_num":2,"trial_type":"ticket-choose","trial_index":91,"time_elapsed":2219676,"internal_node_id":"0.0-91.0"},{"result":163,"points":2,"place":1,"phase":1,"sequence":19,"prices":[175,186,176,210,179,187,163,166,153,208],"times":[8314,557,674,7216,649,1848,959],"next_num":7,"trial_type":"ticket-choose","trial_index":92,"time_elapsed":2243237,"internal_node_id":"0.0-92.0"},{"result":165,"points":3,"place":0,"phase":1,"sequence":20,"prices":[189,167,180,197,165,168,172,213,178,171],"times":[702,858,1235,549,838],"next_num":5,"trial_type":"ticket-choose","trial_index":93,"time_elapsed":2250363,"internal_node_id":"0.0-93.0"},{"result":163,"points":2,"place":1,"phase":1,"sequence":21,"prices":[174,186,176,217,181,187,163,166,153,209],"times":[1005,588,564,604,566,647,836],"next_num":7,"trial_type":"ticket-choose","trial_index":94,"time_elapsed":2258719,"internal_node_id":"0.0-94.0"},{"result":158,"points":2,"place":1,"phase":1,"sequence":22,"prices":[175,186,177,221,180,187,158,166,209,153],"times":[1024,586,616,571,538,560,934],"next_num":7,"trial_type":"ticket-choose","trial_index":95,"time_elapsed":2268244,"internal_node_id":"0.0-95.0"},{"result":186,"points":1,"place":4,"phase":1,"sequence":23,"prices":[192,165,171,178,188,217,172,195,197,186],"times":[705,462,467,482,529,569,614,739,651,1077],"next_num":10,"trial_type":"ticket-choose","trial_index":96,"time_elapsed":2278456,"internal_node_id":"0.0-96.0"},{"result":155,"points":2,"place":1,"phase":1,"sequence":24,"prices":[181,155,148,161,168,187,172,199,176,194],"times":[640,921],"next_num":2,"trial_type":"ticket-choose","trial_index":97,"time_elapsed":2282179,"internal_node_id":"0.0-97.0"},{"result":167,"points":2,"place":1,"phase":1,"sequence":25,"prices":[175,186,178,212,179,187,167,169,209,153],"times":[696,570,544,624,576,645,995],"next_num":7,"trial_type":"ticket-choose","trial_index":98,"time_elapsed":2290656,"internal_node_id":"0.0-98.0"},{"result":177,"points":1,"place":3,"phase":1,"sequence":26,"prices":[181,215,169,147,182,193,177,184,176,179],"times":[3514,621,478,489,772,572,1147],"next_num":7,"trial_type":"ticket-choose","trial_index":99,"time_elapsed":2301651,"internal_node_id":"0.0-99.0"},{"result":158,"points":2,"place":1,"phase":1,"sequence":27,"prices":[175,186,158,211,180,187,177,166,209,153],"times":[651,583,866],"next_num":3,"trial_type":"ticket-choose","trial_index":100,"time_elapsed":2306238,"internal_node_id":"0.0-100.0"},{"result":165,"points":2,"place":1,"phase":1,"sequence":28,"prices":[200,165,165,173,182,207,161,202,204,180],"times":[1482,2019,1082],"next_num":3,"trial_type":"ticket-choose","trial_index":101,"time_elapsed":2313385,"internal_node_id":"0.0-101.0"},{"result":156,"points":3,"place":0,"phase":1,"sequence":29,"prices":[174,186,167,211,181,188,178,168,208,156],"times":[626,643,1001,664,593,590,790,2689,753,825],"next_num":10,"trial_type":"ticket-choose","trial_index":102,"time_elapsed":2340458,"internal_node_id":"0.0-102.0"},{"result":150,"points":3,"place":0,"phase":1,"sequence":30,"prices":[189,150,175,160,188,207,158,194,178,199],"times":[1517,942],"next_num":2,"trial_type":"ticket-choose","trial_index":103,"time_elapsed":2348681,"internal_node_id":"0.0-103.0"},{"result":165,"points":2,"place":1,"phase":1,"sequence":31,"prices":[175,187,165,209,180,188,177,166,154,208],"times":[1466,526,2982],"next_num":3,"trial_type":"ticket-choose","trial_index":104,"time_elapsed":2356087,"internal_node_id":"0.0-104.0"},{"result":154,"points":3,"place":0,"phase":1,"sequence":32,"prices":[188,200,165,172,198,174,177,154,177,180],"times":[806,756,3711,598,580,661,602,884],"next_num":8,"trial_type":"ticket-choose","trial_index":105,"time_elapsed":2369148,"internal_node_id":"0.0-105.0"},{"result":152,"points":3,"place":0,"phase":1,"sequence":33,"prices":[200,181,203,152,175,171,160,154,176,191],"times":[2113,613,574,893],"next_num":4,"trial_type":"ticket-choose","trial_index":106,"time_elapsed":2376495,"internal_node_id":"0.0-106.0"},{"result":158,"points":2,"place":1,"phase":1,"sequence":34,"prices":[176,187,158,210,181,187,177,165,208,153],"times":[1206,546,911],"next_num":3,"trial_type":"ticket-choose","trial_index":107,"time_elapsed":2381882,"internal_node_id":"0.0-107.0"},{"result":158,"points":2,"place":1,"phase":1,"sequence":35,"prices":[175,186,177,209,181,188,158,167,208,154],"times":[1804,762,1401,888,564,563,815],"next_num":7,"trial_type":"ticket-choose","trial_index":108,"time_elapsed":2394946,"internal_node_id":"0.0-108.0"},{"result":152,"points":3,"place":0,"phase":1,"sequence":36,"prices":[198,193,169,163,202,182,152,164,177,171],"times":[861,558,525,565,696,587,774],"next_num":7,"trial_type":"ticket-choose","trial_index":109,"time_elapsed":2402892,"internal_node_id":"0.0-109.0"},{"result":165,"points":3,"place":0,"phase":1,"sequence":37,"prices":[193,169,171,187,190,224,174,194,165,188],"times":[908,1622,622,558,633,658,623,605,1077],"next_num":9,"trial_type":"ticket-choose","trial_index":110,"time_elapsed":2413806,"internal_node_id":"0.0-110.0"},{"result":163,"points":2,"place":1,"phase":1,"sequence":38,"prices":[175,187,163,209,180,188,176,165,154,208],"times":[683,3367,1075],"next_num":3,"trial_type":"ticket-choose","trial_index":111,"time_elapsed":2421634,"internal_node_id":"0.0-111.0"},{"result":158,"points":2,"place":1,"phase":1,"sequence":39,"prices":[175,186,158,209,181,188,177,167,208,154],"times":[707,553,790],"next_num":3,"trial_type":"ticket-choose","trial_index":112,"time_elapsed":2426366,"internal_node_id":"0.0-112.0"},{"result":155,"points":2,"place":1,"phase":1,"sequence":40,"prices":[201,207,155,158,156,165,167,135,178,177],"times":[872,566,757],"next_num":3,"trial_type":"ticket-choose","trial_index":113,"time_elapsed":2431146,"internal_node_id":"0.0-113.0"},{"result":157,"points":3,"place":0,"phase":1,"sequence":41,"prices":[201,187,157,184,198,179,188,185,178,170],"times":[663,520,986],"next_num":3,"trial_type":"ticket-choose","trial_index":114,"time_elapsed":2435777,"internal_node_id":"0.0-114.0"},{"result":153,"points":3,"place":0,"phase":1,"sequence":42,"prices":[174,186,165,212,181,187,177,167,153,209],"times":[692,550,1056,652,582,621,819,1413,823],"next_num":9,"trial_type":"ticket-choose","trial_index":115,"time_elapsed":2446907,"internal_node_id":"0.0-115.0"},{"result":165,"points":2,"place":1,"phase":1,"sequence":43,"prices":[175,186,177,210,179,187,165,166,153,208],"times":[6773,692,566,594,527,534,2975],"next_num":7,"trial_type":"ticket-choose","trial_index":116,"time_elapsed":2463047,"internal_node_id":"0.0-116.0"},{"result":158,"points":2,"place":1,"phase":1,"sequence":44,"prices":[176,187,177,225,181,187,158,165,208,153],"times":[663,567,583,643,580,573,825],"next_num":7,"trial_type":"ticket-choose","trial_index":117,"time_elapsed":2470831,"internal_node_id":"0.0-117.0"},{"result":165,"points":2,"place":1,"phase":1,"sequence":45,"prices":[174,186,177,217,181,187,165,166,153,209],"times":[2602,501,500,883,593,545,1875],"next_num":7,"trial_type":"ticket-choose","trial_index":118,"time_elapsed":2481636,"internal_node_id":"0.0-118.0"},{"result":163,"points":2,"place":1,"phase":1,"sequence":46,"prices":[175,187,176,209,180,188,163,165,154,208],"times":[743,513,581,630,505,553,831],"next_num":7,"trial_type":"ticket-choose","trial_index":119,"time_elapsed":2489252,"internal_node_id":"0.0-119.0"},{"result":154,"points":2,"place":1,"phase":1,"sequence":47,"prices":[168,154,172,185,195,144,184,211,177,227],"times":[670,852],"next_num":2,"trial_type":"ticket-choose","trial_index":120,"time_elapsed":2492990,"internal_node_id":"0.0-120.0"},{"result":163,"points":2,"place":1,"phase":1,"sequence":48,"prices":[175,186,163,214,179,187,176,166,153,208],"times":[779,550,2448],"next_num":3,"trial_type":"ticket-choose","trial_index":121,"time_elapsed":2499189,"internal_node_id":"0.0-121.0"},{"result":153,"points":3,"place":0,"phase":1,"sequence":49,"prices":[175,186,167,225,179,187,178,169,209,153],"times":[785,612,494,524,574,601,846,508,780,841],"next_num":10,"trial_type":"ticket-choose","trial_index":122,"time_elapsed":2510906,"internal_node_id":"0.0-122.0"},{"responses":[{"value":0,"offby":-1,"category":"$115 - $130","category_index":0},{"value":5,"offby":0,"category":"$131 - $145","category_index":1},{"value":10,"offby":-2,"category":"$146 - $160","category_index":2},{"value":30,"offby":8,"category":"$161 - $175","category_index":3},{"value":40,"offby":6,"category":"$176 - $190","category_index":4},{"value":10,"offby":-5,"category":"$191 - $205","category_index":5},{"value":5,"offby":-6,"category":"$206 - $220","category_index":6}],"phase":1,"number":1,"trial_type":"bar-choose","trial_index":123,"time_elapsed":2547211,"internal_node_id":"0.0-123.0"},{"special_comment":"no","trial_type":"special_sequence","trial_index":124,"time_elapsed":2556057,"internal_node_id":"0.0-124.0"},{"during":"Nothing","bonus":292,"trial_type":"final","trial_index":125,"time_elapsed":2577580,"internal_node_id":"0.0-125.0"}],"bonus":292}