{"start_time":"2017-05-24 16:08:46","end_time":"2017-05-24 16:31:00","points_phase0":104,"points_phase1":109,"phase_order":0,"age":25,"gender":"m","tries":1,"during":"Nothing","worker_id":"ASXZQW6YTIPAV","assignment_id":"3OVR4I9USQCYVZX82ZU8PYXNLFC4Q3","data":[{"rt":146398,"url":"\/christiane\/tickets\/utils\/consent.html","trial_type":"html","trial_index":0,"time_elapsed":146597,"internal_node_id":"0.0-0.0"},{"age":25,"gender":"m","trial_type":"age","trial_index":1,"time_elapsed":152437,"internal_node_id":"0.0-1.0"},{"worker_id":"ASXZQW6YTIPAV","trial_type":"workerid","trial_index":2,"time_elapsed":163299,"internal_node_id":"0.0-2.0"},{"tries":1,"trial_type":"instructions_check","trial_index":3,"time_elapsed":243780,"internal_node_id":"0.0-3.0"},{"rt":8685,"url":"\/christiane\/tickets\/utils\/start.html","trial_type":"html","trial_index":4,"time_elapsed":253674,"internal_node_id":"0.0-4.0"},{"trial_type":"number-animation","trial_index":5,"time_elapsed":269154,"internal_node_id":"0.0-5.0"},{"phase":0,"sequence":0,"avg":181,"response":175,"trial_type":"training_avg","trial_index":6,"time_elapsed":276715,"internal_node_id":"0.0-6.0"},{"trial_type":"number-animation","trial_index":7,"time_elapsed":284242,"internal_node_id":"0.0-7.0"},{"phase":0,"sequence":1,"avg":188,"response":178,"trial_type":"training_avg","trial_index":8,"time_elapsed":292442,"internal_node_id":"0.0-8.0"},{"trial_type":"number-animation","trial_index":9,"time_elapsed":299137,"internal_node_id":"0.0-9.0"},{"phase":0,"sequence":2,"avg":188,"response":185,"trial_type":"training_avg","trial_index":10,"time_elapsed":305841,"internal_node_id":"0.0-10.0"},{"trial_type":"number-animation","trial_index":11,"time_elapsed":312713,"internal_node_id":"0.0-11.0"},{"phase":0,"sequence":3,"avg":177,"response":187,"trial_type":"training_avg","trial_index":12,"time_elapsed":318713,"internal_node_id":"0.0-12.0"},{"trial_type":"number-animation","trial_index":13,"time_elapsed":326458,"internal_node_id":"0.0-13.0"},{"phase":0,"sequence":4,"avg":182,"response":176,"trial_type":"training_avg","trial_index":14,"time_elapsed":332154,"internal_node_id":"0.0-14.0"},{"responses":[{"value":6,"offby":5,"category":"$115 - $130","category_index":0},{"value":9,"offby":4,"category":"$131 - $145","category_index":1},{"value":16,"offby":4,"category":"$146 - $160","category_index":2},{"value":25,"offby":3,"category":"$161 - $175","category_index":3},{"value":33,"offby":-1,"category":"$176 - $190","category_index":4},{"value":7,"offby":-8,"category":"$191 - $205","category_index":5},{"value":4,"offby":-7,"category":"$206 - $220","category_index":6}],"phase":0,"number":0,"trial_type":"bar-choose","trial_index":15,"time_elapsed":415609,"internal_node_id":"0.0-15.0"},{"rt":3384,"url":"\/christiane\/tickets\/utils\/testing.html","trial_type":"html","trial_index":16,"time_elapsed":420204,"internal_node_id":"0.0-16.0"},{"phase":0,"order":[40,33,42,25,24,4,32,48,28,27,41,44,13,7,0,45,8,18,35,49,37,14,23,31,17,26,6,29,34,36,12,30,47,15,2,16,19,1,39,38,20,21,11,9,3,5,22,46,43,10],"trial_type":"store_order","trial_index":17,"time_elapsed":421210,"internal_node_id":"0.0-17.0"},{"result":181,"points":1,"place":3,"phase":0,"sequence":-1,"prices":[184,180,224,165,181,199,185,193,218,146],"times":[4642,587,397,442,928],"next_num":5,"trial_type":"ticket-choose","trial_index":18,"time_elapsed":432125,"internal_node_id":"0.0-18.0"},{"rt":21932,"url":"\/christiane\/tickets\/utils\/testing_after.html","trial_type":"html","trial_index":19,"time_elapsed":455276,"internal_node_id":"0.0-19.0"},{"result":160,"points":1,"place":2,"phase":0,"sequence":0,"prices":[189,150,175,160,188,207,158,194,178,199],"times":[5462,806,4359,1076],"next_num":4,"trial_type":"ticket-choose","trial_index":20,"time_elapsed":470060,"internal_node_id":"0.0-20.0"},{"result":168,"points":1,"place":2,"phase":0,"sequence":1,"prices":[183,182,192,168,173,205,167,187,165,170],"times":[1363,1250,572,1040],"next_num":4,"trial_type":"ticket-choose","trial_index":21,"time_elapsed":477428,"internal_node_id":"0.0-21.0"},{"result":143,"points":3,"place":0,"phase":0,"sequence":2,"prices":[222,173,202,197,143,205,198,183,178,186],"times":[1695,701,643,881,1054],"next_num":5,"trial_type":"ticket-choose","trial_index":22,"time_elapsed":486090,"internal_node_id":"0.0-22.0"},{"result":165,"points":2,"place":1,"phase":0,"sequence":3,"prices":[201,165,162,166,185,214,165,202,204,179],"times":[1176,2094],"next_num":2,"trial_type":"ticket-choose","trial_index":23,"time_elapsed":491684,"internal_node_id":"0.0-23.0"},{"result":184,"points":1,"place":4,"phase":0,"sequence":4,"prices":[193,165,175,181,185,224,180,199,218,184],"times":[1432,1142,550,685,591,519,624,795,708,915],"next_num":10,"trial_type":"ticket-choose","trial_index":24,"time_elapsed":503779,"internal_node_id":"0.0-24.0"},{"result":167,"points":2,"place":1,"phase":0,"sequence":5,"prices":[175,185,178,215,181,186,167,168,208,156],"times":[660,485,506,557,614,554,1052],"next_num":7,"trial_type":"ticket-choose","trial_index":25,"time_elapsed":511459,"internal_node_id":"0.0-25.0"},{"result":165,"points":3,"place":0,"phase":0,"sequence":6,"prices":[193,169,171,187,190,224,174,194,165,188],"times":[690,980,563,587,558,510,535,620,934],"next_num":9,"trial_type":"ticket-choose","trial_index":26,"time_elapsed":521172,"internal_node_id":"0.0-26.0"},{"result":169,"points":2,"place":1,"phase":0,"sequence":7,"prices":[181,215,169,147,182,193,177,184,176,179],"times":[899,773,1117],"next_num":3,"trial_type":"ticket-choose","trial_index":27,"time_elapsed":526259,"internal_node_id":"0.0-27.0"},{"result":165,"points":3,"place":0,"phase":0,"sequence":8,"prices":[196,165,170,184,187,211,171,201,202,185],"times":[813,1016],"next_num":2,"trial_type":"ticket-choose","trial_index":28,"time_elapsed":530293,"internal_node_id":"0.0-28.0"},{"result":165,"points":3,"place":0,"phase":0,"sequence":9,"prices":[192,165,171,178,188,217,172,195,197,186],"times":[1976,996],"next_num":2,"trial_type":"ticket-choose","trial_index":29,"time_elapsed":535420,"internal_node_id":"0.0-29.0"},{"result":155,"points":2,"place":1,"phase":0,"sequence":10,"prices":[201,207,155,158,156,165,167,135,178,177],"times":[480,714,941],"next_num":3,"trial_type":"ticket-choose","trial_index":30,"time_elapsed":539877,"internal_node_id":"0.0-30.0"},{"result":159,"points":1,"place":2,"phase":0,"sequence":11,"prices":[180,159,149,175,185,141,163,174,178,207],"times":[434,948],"next_num":2,"trial_type":"ticket-choose","trial_index":31,"time_elapsed":543493,"internal_node_id":"0.0-31.0"},{"result":163,"points":2,"place":1,"phase":0,"sequence":12,"prices":[175,187,163,209,180,188,176,165,154,208],"times":[826,785,860],"next_num":3,"trial_type":"ticket-choose","trial_index":32,"time_elapsed":548220,"internal_node_id":"0.0-32.0"},{"result":165,"points":2,"place":1,"phase":0,"sequence":13,"prices":[175,187,165,209,180,188,177,166,154,208],"times":[493,828,912],"next_num":3,"trial_type":"ticket-choose","trial_index":33,"time_elapsed":552691,"internal_node_id":"0.0-33.0"},{"result":167,"points":2,"place":1,"phase":0,"sequence":14,"prices":[174,186,167,211,181,188,178,168,208,156],"times":[1500,565,858],"next_num":3,"trial_type":"ticket-choose","trial_index":34,"time_elapsed":557955,"internal_node_id":"0.0-34.0"},{"result":167,"points":2,"place":1,"phase":0,"sequence":15,"prices":[212,192,188,184,167,193,189,164,176,170],"times":[469,564,572,572,1162],"next_num":5,"trial_type":"ticket-choose","trial_index":35,"time_elapsed":564003,"internal_node_id":"0.0-35.0"},{"result":165,"points":2,"place":1,"phase":0,"sequence":16,"prices":[174,186,165,212,181,187,177,167,153,209],"times":[1064,1348,933],"next_num":3,"trial_type":"ticket-choose","trial_index":36,"time_elapsed":569604,"internal_node_id":"0.0-36.0"},{"result":158,"points":2,"place":1,"phase":0,"sequence":17,"prices":[175,186,158,211,180,187,177,166,209,153],"times":[576,578,891],"next_num":3,"trial_type":"ticket-choose","trial_index":37,"time_elapsed":573868,"internal_node_id":"0.0-37.0"},{"result":154,"points":2,"place":1,"phase":0,"sequence":18,"prices":[168,154,172,185,195,144,184,211,177,227],"times":[578,875],"next_num":2,"trial_type":"ticket-choose","trial_index":38,"time_elapsed":577349,"internal_node_id":"0.0-38.0"},{"result":163,"points":1,"place":2,"phase":0,"sequence":19,"prices":[183,163,185,180,166,148,160,186,176,184],"times":[608,1220],"next_num":2,"trial_type":"ticket-choose","trial_index":39,"time_elapsed":581444,"internal_node_id":"0.0-39.0"},{"result":169,"points":1,"place":3,"phase":0,"sequence":20,"prices":[198,193,169,163,202,182,152,164,177,171],"times":[698,818,1211],"next_num":3,"trial_type":"ticket-choose","trial_index":40,"time_elapsed":586637,"internal_node_id":"0.0-40.0"},{"result":163,"points":2,"place":1,"phase":0,"sequence":21,"prices":[174,186,163,212,181,187,176,166,153,209],"times":[844,1026,1002],"next_num":3,"trial_type":"ticket-choose","trial_index":41,"time_elapsed":591869,"internal_node_id":"0.0-41.0"},{"result":158,"points":2,"place":1,"phase":0,"sequence":22,"prices":[176,187,177,225,181,187,158,165,208,153],"times":[736,587,553,560,552,1350,825],"next_num":7,"trial_type":"ticket-choose","trial_index":42,"time_elapsed":600196,"internal_node_id":"0.0-42.0"},{"result":167,"points":1,"place":2,"phase":0,"sequence":23,"prices":[171,203,175,170,167,220,192,186,165,165],"times":[540,1370,594,598,868],"next_num":5,"trial_type":"ticket-choose","trial_index":43,"time_elapsed":606987,"internal_node_id":"0.0-43.0"},{"result":163,"points":2,"place":1,"phase":0,"sequence":24,"prices":[174,186,176,217,181,187,163,166,153,209],"times":[605,641,628,596,919,533,1035],"next_num":7,"trial_type":"ticket-choose","trial_index":44,"time_elapsed":615187,"internal_node_id":"0.0-44.0"},{"result":161,"points":3,"place":0,"phase":0,"sequence":25,"prices":[200,165,165,173,182,207,161,202,204,180],"times":[605,844,1426,974,628,589,1157],"next_num":7,"trial_type":"ticket-choose","trial_index":45,"time_elapsed":624668,"internal_node_id":"0.0-45.0"},{"result":153,"points":3,"place":0,"phase":0,"sequence":26,"prices":[175,186,165,214,179,187,177,166,153,208],"times":[609,2070,412,547,565,589,571,1420,708],"next_num":9,"trial_type":"ticket-choose","trial_index":46,"time_elapsed":635803,"internal_node_id":"0.0-46.0"},{"result":165,"points":3,"place":0,"phase":0,"sequence":27,"prices":[185,170,182,201,173,199,171,188,165,168],"times":[426,518,489,546,639,567,588,834,899],"next_num":9,"trial_type":"ticket-choose","trial_index":47,"time_elapsed":644916,"internal_node_id":"0.0-47.0"},{"result":155,"points":2,"place":1,"phase":0,"sequence":28,"prices":[181,155,148,161,168,187,172,199,176,194],"times":[459,899],"next_num":2,"trial_type":"ticket-choose","trial_index":48,"time_elapsed":648364,"internal_node_id":"0.0-48.0"},{"result":165,"points":2,"place":1,"phase":0,"sequence":29,"prices":[188,200,165,172,198,174,177,154,177,180],"times":[684,767,874],"next_num":3,"trial_type":"ticket-choose","trial_index":49,"time_elapsed":652972,"internal_node_id":"0.0-49.0"},{"result":163,"points":2,"place":1,"phase":0,"sequence":30,"prices":[175,186,163,214,179,187,176,166,153,208],"times":[834,977,2620],"next_num":3,"trial_type":"ticket-choose","trial_index":50,"time_elapsed":659660,"internal_node_id":"0.0-50.0"},{"result":165,"points":3,"place":0,"phase":0,"sequence":31,"prices":[191,172,169,175,182,203,170,195,165,176],"times":[682,531,674,630,542,593,580,697,1049],"next_num":9,"trial_type":"ticket-choose","trial_index":51,"time_elapsed":669332,"internal_node_id":"0.0-51.0"},{"result":152,"points":3,"place":0,"phase":0,"sequence":32,"prices":[200,181,203,152,175,171,160,154,176,191],"times":[584,547,548,973],"next_num":4,"trial_type":"ticket-choose","trial_index":52,"time_elapsed":674444,"internal_node_id":"0.0-52.0"},{"result":163,"points":2,"place":1,"phase":0,"sequence":33,"prices":[175,186,176,210,179,187,163,166,153,208],"times":[560,564,607,602,557,546,1038],"next_num":7,"trial_type":"ticket-choose","trial_index":53,"time_elapsed":682036,"internal_node_id":"0.0-53.0"},{"result":167,"points":2,"place":1,"phase":0,"sequence":34,"prices":[175,186,167,225,179,187,178,169,209,153],"times":[684,610,1134],"next_num":3,"trial_type":"ticket-choose","trial_index":54,"time_elapsed":686894,"internal_node_id":"0.0-54.0"},{"result":165,"points":1,"place":2,"phase":0,"sequence":35,"prices":[175,187,176,209,180,188,163,165,154,208],"times":[428,571,659,538,574,518,475,985],"next_num":8,"trial_type":"ticket-choose","trial_index":55,"time_elapsed":695051,"internal_node_id":"0.0-55.0"},{"result":154,"points":3,"place":0,"phase":0,"sequence":36,"prices":[175,186,158,209,181,188,177,167,208,154],"times":[443,595,530,548,547,482,612,2044,580,598],"next_num":10,"trial_type":"ticket-choose","trial_index":56,"time_elapsed":706180,"internal_node_id":"0.0-56.0"},{"result":167,"points":2,"place":1,"phase":0,"sequence":37,"prices":[175,185,167,224,181,186,178,168,208,156],"times":[1131,540,1193],"next_num":3,"trial_type":"ticket-choose","trial_index":57,"time_elapsed":711531,"internal_node_id":"0.0-57.0"},{"result":171,"points":1,"place":3,"phase":0,"sequence":38,"prices":[189,167,180,197,165,168,172,213,178,171],"times":[1040,1331,581,547,697,530,589,689,587,768],"next_num":10,"trial_type":"ticket-choose","trial_index":58,"time_elapsed":722780,"internal_node_id":"0.0-58.0"},{"result":163,"points":3,"place":0,"phase":0,"sequence":39,"prices":[168,199,196,198,185,195,227,163,177,166],"times":[455,558,539,554,596,539,559,1123],"next_num":8,"trial_type":"ticket-choose","trial_index":59,"time_elapsed":731109,"internal_node_id":"0.0-59.0"},{"result":158,"points":2,"place":1,"phase":0,"sequence":40,"prices":[176,187,158,210,181,187,177,165,208,153],"times":[507,947,1003],"next_num":3,"trial_type":"ticket-choose","trial_index":60,"time_elapsed":735811,"internal_node_id":"0.0-60.0"},{"result":158,"points":2,"place":1,"phase":0,"sequence":41,"prices":[175,186,177,221,180,187,158,166,209,153],"times":[808,996,659,597,683,547,1055],"next_num":7,"trial_type":"ticket-choose","trial_index":61,"time_elapsed":744396,"internal_node_id":"0.0-61.0"},{"result":165,"points":2,"place":1,"phase":0,"sequence":42,"prices":[174,186,177,217,181,187,165,166,153,209],"times":[587,1109,554,513,569,601,925],"next_num":7,"trial_type":"ticket-choose","trial_index":62,"time_elapsed":752340,"internal_node_id":"0.0-62.0"},{"result":165,"points":2,"place":1,"phase":0,"sequence":43,"prices":[175,186,177,210,179,187,165,166,153,208],"times":[830,729,556,525,601,649,956],"next_num":7,"trial_type":"ticket-choose","trial_index":63,"time_elapsed":760371,"internal_node_id":"0.0-63.0"},{"result":167,"points":2,"place":1,"phase":0,"sequence":44,"prices":[174,186,178,217,181,188,167,168,208,156],"times":[2399,1184,539,573,604,652,1114],"next_num":7,"trial_type":"ticket-choose","trial_index":64,"time_elapsed":770756,"internal_node_id":"0.0-64.0"},{"result":167,"points":2,"place":1,"phase":0,"sequence":45,"prices":[175,186,178,212,179,187,167,169,209,153],"times":[1858,561,879,587,842,563,1524],"next_num":7,"trial_type":"ticket-choose","trial_index":65,"time_elapsed":780870,"internal_node_id":"0.0-65.0"},{"result":158,"points":2,"place":1,"phase":0,"sequence":46,"prices":[175,186,177,209,181,188,158,167,208,154],"times":[691,710,550,676,589,550,1126],"next_num":7,"trial_type":"ticket-choose","trial_index":66,"time_elapsed":789076,"internal_node_id":"0.0-66.0"},{"result":158,"points":3,"place":0,"phase":0,"sequence":47,"prices":[210,184,226,193,215,158,199,175,176,208],"times":[1997,711,601,597,558,1097],"next_num":6,"trial_type":"ticket-choose","trial_index":67,"time_elapsed":798011,"internal_node_id":"0.0-67.0"},{"result":157,"points":3,"place":0,"phase":0,"sequence":48,"prices":[201,187,157,184,198,179,188,185,178,170],"times":[1183,706,913],"next_num":3,"trial_type":"ticket-choose","trial_index":68,"time_elapsed":803612,"internal_node_id":"0.0-68.0"},{"result":165,"points":2,"place":1,"phase":0,"sequence":49,"prices":[175,187,177,209,180,188,165,165,154,208],"times":[918,587,516,547,474,526,988],"next_num":7,"trial_type":"ticket-choose","trial_index":69,"time_elapsed":811629,"internal_node_id":"0.0-69.0"},{"responses":[{"value":1,"offby":0,"category":"$115 - $130","category_index":0},{"value":3,"offby":-2,"category":"$131 - $145","category_index":1},{"value":14,"offby":2,"category":"$146 - $160","category_index":2},{"value":24,"offby":2,"category":"$161 - $175","category_index":3},{"value":30,"offby":-4,"category":"$176 - $190","category_index":4},{"value":20,"offby":5,"category":"$191 - $205","category_index":5},{"value":8,"offby":-3,"category":"$206 - $220","category_index":6}],"phase":1,"number":1,"trial_type":"bar-choose","trial_index":70,"time_elapsed":863239,"internal_node_id":"0.0-70.0"},{"rt":23681,"url":"\/christiane\/tickets\/utils\/testing2.html","trial_type":"point_update","trial_index":71,"time_elapsed":888255,"internal_node_id":"0.0-71.0"},{"phase":1,"order":[13,15,12,37,46,21,24,44,2,11,10,14,20,4,49,25,34,1,39,7,26,43,23,42,38,30,8,28,45,0,31,16,35,32,48,36,22,18,47,29,40,27,3,19,5,17,9,41,33,6],"trial_type":"store_order","trial_index":72,"time_elapsed":889262,"internal_node_id":"0.0-72.0"},{"result":163,"points":2,"place":1,"phase":1,"sequence":0,"prices":[163,175,187,209,176,180,188,165,154,208],"times":[6309],"next_num":1,"trial_type":"ticket-choose","trial_index":73,"time_elapsed":897566,"internal_node_id":"0.0-73.0"},{"result":163,"points":2,"place":1,"phase":1,"sequence":1,"prices":[176,175,186,210,163,179,187,166,153,208],"times":[1360,602,562,551,1066],"next_num":5,"trial_type":"ticket-choose","trial_index":74,"time_elapsed":904541,"internal_node_id":"0.0-74.0"},{"result":163,"points":2,"place":1,"phase":1,"sequence":2,"prices":[163,175,186,214,176,179,187,166,153,208],"times":[2015],"next_num":1,"trial_type":"ticket-choose","trial_index":75,"time_elapsed":908620,"internal_node_id":"0.0-75.0"},{"result":165,"points":1,"place":2,"phase":1,"sequence":3,"prices":[199,193,169,165,202,182,151,164,176,171],"times":[4963,648,1144,2275],"next_num":4,"trial_type":"ticket-choose","trial_index":76,"time_elapsed":920237,"internal_node_id":"0.0-76.0"},{"result":158,"points":3,"place":0,"phase":1,"sequence":4,"prices":[214,184,226,192,215,158,199,175,176,208],"times":[988,515,479,536,629,1042],"next_num":6,"trial_type":"ticket-choose","trial_index":77,"time_elapsed":927341,"internal_node_id":"0.0-77.0"},{"result":158,"points":2,"place":1,"phase":1,"sequence":5,"prices":[177,175,186,221,158,180,187,166,209,153],"times":[975,637,529,604,1355],"next_num":5,"trial_type":"ticket-choose","trial_index":78,"time_elapsed":934140,"internal_node_id":"0.0-78.0"},{"result":165,"points":3,"place":0,"phase":1,"sequence":6,"prices":[193,181,175,181,185,165,224,199,218,184],"times":[588,540,517,690,546,1563],"next_num":6,"trial_type":"ticket-choose","trial_index":79,"time_elapsed":941711,"internal_node_id":"0.0-79.0"},{"result":159,"points":1,"place":2,"phase":1,"sequence":7,"prices":[181,159,149,175,185,151,163,174,178,207],"times":[678,1077],"next_num":2,"trial_type":"ticket-choose","trial_index":80,"time_elapsed":945591,"internal_node_id":"0.0-80.0"},{"result":153,"points":3,"place":0,"phase":1,"sequence":8,"prices":[167,175,186,225,178,179,187,169,209,153],"times":[2003,560,536,507,641,687,1010,1159,531,734],"next_num":10,"trial_type":"ticket-choose","trial_index":81,"time_elapsed":957919,"internal_node_id":"0.0-81.0"},{"result":153,"points":3,"place":0,"phase":1,"sequence":9,"prices":[177,174,186,217,165,181,187,166,153,209],"times":[1465,733,526,524,472,538,551,1311,888],"next_num":9,"trial_type":"ticket-choose","trial_index":82,"time_elapsed":968757,"internal_node_id":"0.0-82.0"},{"result":165,"points":2,"place":1,"phase":1,"sequence":10,"prices":[177,175,187,209,165,180,188,165,154,208],"times":[652,559,549,469,975],"next_num":5,"trial_type":"ticket-choose","trial_index":83,"time_elapsed":974663,"internal_node_id":"0.0-83.0"},{"result":163,"points":2,"place":1,"phase":1,"sequence":11,"prices":[163,174,186,212,176,181,187,166,153,209],"times":[1066],"next_num":1,"trial_type":"ticket-choose","trial_index":84,"time_elapsed":977638,"internal_node_id":"0.0-84.0"},{"result":158,"points":2,"place":1,"phase":1,"sequence":12,"prices":[158,176,187,210,177,181,187,165,208,153],"times":[938],"next_num":1,"trial_type":"ticket-choose","trial_index":85,"time_elapsed":980380,"internal_node_id":"0.0-85.0"},{"result":156,"points":3,"place":0,"phase":1,"sequence":13,"prices":[178,175,185,215,167,181,186,168,208,156],"times":[711,595,941,719,1082,558,607,899,597,661],"next_num":10,"trial_type":"ticket-choose","trial_index":86,"time_elapsed":991516,"internal_node_id":"0.0-86.0"},{"result":148,"points":3,"place":0,"phase":1,"sequence":14,"prices":[173,163,185,181,166,148,160,185,176,184],"times":[678,5598,541,535,625,1093],"next_num":6,"trial_type":"ticket-choose","trial_index":87,"time_elapsed":1003464,"internal_node_id":"0.0-87.0"},{"result":166,"points":1,"place":3,"phase":1,"sequence":15,"prices":[201,204,179,166,185,165,214,156,202,165],"times":[611,543,493,935],"next_num":4,"trial_type":"ticket-choose","trial_index":88,"time_elapsed":1008556,"internal_node_id":"0.0-88.0"},{"result":156,"points":2,"place":1,"phase":1,"sequence":16,"prices":[180,156,149,160,168,186,172,198,176,195],"times":[637,862],"next_num":2,"trial_type":"ticket-choose","trial_index":89,"time_elapsed":1012085,"internal_node_id":"0.0-89.0"},{"result":156,"points":3,"place":0,"phase":1,"sequence":17,"prices":[167,175,185,224,178,181,186,168,208,156],"times":[474,586,515,525,718,518,549,520,506,1078],"next_num":10,"trial_type":"ticket-choose","trial_index":90,"time_elapsed":1022006,"internal_node_id":"0.0-90.0"},{"result":165,"points":3,"place":0,"phase":1,"sequence":18,"prices":[189,167,180,197,165,168,172,213,178,171],"times":[668,1301,534,533,863],"next_num":5,"trial_type":"ticket-choose","trial_index":91,"time_elapsed":1028485,"internal_node_id":"0.0-91.0"},{"result":165,"points":2,"place":1,"phase":1,"sequence":19,"prices":[165,175,187,209,177,180,188,167,154,208],"times":[1002],"next_num":1,"trial_type":"ticket-choose","trial_index":92,"time_elapsed":1031453,"internal_node_id":"0.0-92.0"},{"result":165,"points":1,"place":2,"phase":1,"sequence":20,"prices":[200,173,182,169,207,165,152,202,161,204],"times":[1008,738,551,937,515,852],"next_num":6,"trial_type":"ticket-choose","trial_index":93,"time_elapsed":1038965,"internal_node_id":"0.0-93.0"},{"result":157,"points":3,"place":0,"phase":1,"sequence":21,"prices":[201,187,157,184,198,179,188,185,178,170],"times":[800,472,965],"next_num":3,"trial_type":"ticket-choose","trial_index":94,"time_elapsed":1043504,"internal_node_id":"0.0-94.0"},{"result":158,"points":2,"place":1,"phase":1,"sequence":22,"prices":[177,176,187,225,158,181,187,165,208,153],"times":[1040,553,470,587,2122],"next_num":5,"trial_type":"ticket-choose","trial_index":95,"time_elapsed":1051007,"internal_node_id":"0.0-95.0"},{"result":186,"points":1,"place":4,"phase":1,"sequence":23,"prices":[220,173,201,197,169,205,198,183,178,186],"times":[673,598,481,571,511,529,549,586,551,906],"next_num":10,"trial_type":"ticket-choose","trial_index":96,"time_elapsed":1060895,"internal_node_id":"0.0-96.0"},{"result":163,"points":3,"place":0,"phase":1,"sequence":24,"prices":[163,199,196,199,185,195,227,163,177,166],"times":[810,613,522,532,495,731,638,1002],"next_num":8,"trial_type":"ticket-choose","trial_index":97,"time_elapsed":1069533,"internal_node_id":"0.0-97.0"},{"result":165,"points":2,"place":1,"phase":1,"sequence":25,"prices":[191,170,182,165,175,182,203,157,195,200],"times":[744,578,523,1203],"next_num":4,"trial_type":"ticket-choose","trial_index":98,"time_elapsed":1075141,"internal_node_id":"0.0-98.0"},{"result":153,"points":3,"place":0,"phase":1,"sequence":26,"prices":[165,174,186,212,177,181,187,166,153,209],"times":[731,478,587,541,501,633,522,986,900],"next_num":9,"trial_type":"ticket-choose","trial_index":99,"time_elapsed":1084943,"internal_node_id":"0.0-99.0"},{"result":165,"points":3,"place":0,"phase":1,"sequence":27,"prices":[196,171,170,184,187,165,211,169,201,202],"times":[5089,649,494,560,523,878],"next_num":6,"trial_type":"ticket-choose","trial_index":100,"time_elapsed":1096061,"internal_node_id":"0.0-100.0"},{"result":167,"points":2,"place":1,"phase":1,"sequence":28,"prices":[199,191,188,174,167,193,189,164,176,170],"times":[761,516,471,509,928],"next_num":5,"trial_type":"ticket-choose","trial_index":101,"time_elapsed":1101941,"internal_node_id":"0.0-101.0"},{"result":167,"points":2,"place":1,"phase":1,"sequence":29,"prices":[167,174,186,211,178,181,188,168,208,156],"times":[876],"next_num":1,"trial_type":"ticket-choose","trial_index":102,"time_elapsed":1104710,"internal_node_id":"0.0-102.0"},{"result":163,"points":2,"place":1,"phase":1,"sequence":30,"prices":[171,169,186,165,163,167,220,148,187,165],"times":[715,668,554,537,829],"next_num":5,"trial_type":"ticket-choose","trial_index":103,"time_elapsed":1110630,"internal_node_id":"0.0-103.0"},{"result":163,"points":2,"place":1,"phase":1,"sequence":31,"prices":[176,187,179,209,163,180,188,165,154,208],"times":[7454,508,458,495,836],"next_num":5,"trial_type":"ticket-choose","trial_index":104,"time_elapsed":1122998,"internal_node_id":"0.0-104.0"},{"result":167,"points":1,"place":2,"phase":1,"sequence":32,"prices":[167,153,172,185,195,143,184,211,177,227],"times":[980],"next_num":1,"trial_type":"ticket-choose","trial_index":105,"time_elapsed":1125830,"internal_node_id":"0.0-105.0"},{"result":165,"points":2,"place":1,"phase":1,"sequence":33,"prices":[193,174,224,165,187,190,224,161,194,195],"times":[825,1220,501,857],"next_num":4,"trial_type":"ticket-choose","trial_index":106,"time_elapsed":1131684,"internal_node_id":"0.0-106.0"},{"result":179,"points":1,"place":4,"phase":1,"sequence":34,"prices":[181,214,169,147,182,193,178,184,176,179],"times":[545,532,1045,516,581,660,707,748,581,684],"next_num":10,"trial_type":"ticket-choose","trial_index":107,"time_elapsed":1141925,"internal_node_id":"0.0-107.0"},{"result":154,"points":3,"place":0,"phase":1,"sequence":35,"prices":[187,201,165,172,196,174,178,154,172,180],"times":[1645,492,730,562,533,565,498,878],"next_num":8,"trial_type":"ticket-choose","trial_index":108,"time_elapsed":1151134,"internal_node_id":"0.0-108.0"},{"result":158,"points":2,"place":1,"phase":1,"sequence":36,"prices":[177,175,186,209,158,181,188,167,208,154],"times":[1029,591,570,547,978],"next_num":5,"trial_type":"ticket-choose","trial_index":109,"time_elapsed":1157501,"internal_node_id":"0.0-109.0"},{"result":158,"points":2,"place":1,"phase":1,"sequence":37,"prices":[158,175,186,211,177,180,187,166,209,153],"times":[935],"next_num":1,"trial_type":"ticket-choose","trial_index":110,"time_elapsed":1160236,"internal_node_id":"0.0-110.0"},{"result":152,"points":3,"place":0,"phase":1,"sequence":38,"prices":[200,180,203,152,175,170,160,154,176,191],"times":[808,622,561,877],"next_num":4,"trial_type":"ticket-choose","trial_index":111,"time_elapsed":1165462,"internal_node_id":"0.0-111.0"},{"result":165,"points":1,"place":2,"phase":1,"sequence":39,"prices":[185,179,191,165,161,173,199,150,188,168],"times":[753,515,552,1043],"next_num":4,"trial_type":"ticket-choose","trial_index":112,"time_elapsed":1170751,"internal_node_id":"0.0-112.0"},{"result":150,"points":3,"place":0,"phase":1,"sequence":40,"prices":[190,150,175,161,188,207,157,194,178,199],"times":[576,789],"next_num":2,"trial_type":"ticket-choose","trial_index":113,"time_elapsed":1174094,"internal_node_id":"0.0-113.0"},{"result":165,"points":3,"place":0,"phase":1,"sequence":41,"prices":[192,172,171,178,188,165,217,168,195,197],"times":[804,637,523,517,570,932],"next_num":6,"trial_type":"ticket-choose","trial_index":114,"time_elapsed":1180854,"internal_node_id":"0.0-114.0"},{"result":156,"points":3,"place":0,"phase":1,"sequence":42,"prices":[178,174,186,217,167,181,188,168,208,156],"times":[590,516,566,504,579,622,507,524,661,538],"next_num":10,"trial_type":"ticket-choose","trial_index":115,"time_elapsed":1190341,"internal_node_id":"0.0-115.0"},{"result":158,"points":2,"place":1,"phase":1,"sequence":43,"prices":[158,175,186,209,177,181,188,167,208,154],"times":[1097],"next_num":1,"trial_type":"ticket-choose","trial_index":116,"time_elapsed":1193677,"internal_node_id":"0.0-116.0"},{"result":153,"points":3,"place":0,"phase":1,"sequence":44,"prices":[178,175,186,212,167,179,187,169,209,153],"times":[691,617,492,540,499,508,500,789,539,703],"next_num":10,"trial_type":"ticket-choose","trial_index":117,"time_elapsed":1203596,"internal_node_id":"0.0-117.0"},{"result":166,"points":1,"place":2,"phase":1,"sequence":45,"prices":[176,186,178,217,163,181,187,166,153,209],"times":[721,529,526,491,799,496,541,1052],"next_num":8,"trial_type":"ticket-choose","trial_index":118,"time_elapsed":1211972,"internal_node_id":"0.0-118.0"},{"result":165,"points":2,"place":1,"phase":1,"sequence":46,"prices":[177,175,186,210,165,179,187,166,153,208],"times":[764,536,485,492,843],"next_num":5,"trial_type":"ticket-choose","trial_index":119,"time_elapsed":1217740,"internal_node_id":"0.0-119.0"},{"result":158,"points":1,"place":3,"phase":1,"sequence":47,"prices":[200,207,155,158,156,168,167,135,178,177],"times":[450,542,466,811],"next_num":4,"trial_type":"ticket-choose","trial_index":120,"time_elapsed":1222436,"internal_node_id":"0.0-120.0"},{"result":165,"points":2,"place":1,"phase":1,"sequence":48,"prices":[183,179,188,165,168,173,205,159,187,191],"times":[581,500,547,908],"next_num":4,"trial_type":"ticket-choose","trial_index":121,"time_elapsed":1227653,"internal_node_id":"0.0-121.0"},{"result":153,"points":3,"place":0,"phase":1,"sequence":49,"prices":[165,175,186,214,177,179,187,166,153,208],"times":[813,613,511,469,523,549,597,1036,811],"next_num":9,"trial_type":"ticket-choose","trial_index":122,"time_elapsed":1237084,"internal_node_id":"0.0-122.0"},{"responses":[{"value":1,"offby":0,"category":"$115 - $130","category_index":0},{"value":2,"offby":-3,"category":"$131 - $145","category_index":1},{"value":17,"offby":5,"category":"$146 - $160","category_index":2},{"value":26,"offby":4,"category":"$161 - $175","category_index":3},{"value":34,"offby":0,"category":"$176 - $190","category_index":4},{"value":17,"offby":2,"category":"$191 - $205","category_index":5},{"value":3,"offby":-8,"category":"$206 - $220","category_index":6}],"phase":1,"number":1,"trial_type":"bar-choose","trial_index":123,"time_elapsed":1273340,"internal_node_id":"0.0-123.0"},{"special_comment":"most of the low prices were towards the end","trial_type":"special_sequence","trial_index":124,"time_elapsed":1289047,"internal_node_id":"0.0-124.0"},{"during":"Nothing","bonus":284,"trial_type":"final","trial_index":125,"time_elapsed":1329575,"internal_node_id":"0.0-125.0"}],"bonus":284}