{"start_time":"2017-05-24 13:41:14","end_time":"2017-05-24 14:01:36","points_phase0":101,"points_phase1":98,"phase_order":1,"age":54,"gender":"f","tries":2,"during":"Nothing","worker_id":"ATIUQQLY0LCNA","assignment_id":"374TNBHA8COET6BSR6IF5N1UGFTYQY","data":[{"rt":16524,"url":"\/christiane\/tickets\/utils\/consent.html","trial_type":"html","trial_index":0,"time_elapsed":16649,"internal_node_id":"0.0-0.0"},{"age":54,"gender":"f","trial_type":"age","trial_index":1,"time_elapsed":23220,"internal_node_id":"0.0-1.0"},{"worker_id":"ATIUQQLY0LCNA","trial_type":"workerid","trial_index":2,"time_elapsed":28697,"internal_node_id":"0.0-2.0"},{"tries":2,"trial_type":"instructions_check","trial_index":3,"time_elapsed":63239,"internal_node_id":"0.0-3.0"},{"rt":8167,"url":"\/christiane\/tickets\/utils\/start.html","trial_type":"html","trial_index":4,"time_elapsed":72518,"internal_node_id":"0.0-4.0"},{"trial_type":"number-animation","trial_index":5,"time_elapsed":95008,"internal_node_id":"0.0-5.0"},{"phase":0,"sequence":0,"avg":181,"response":189,"trial_type":"training_avg","trial_index":6,"time_elapsed":107080,"internal_node_id":"0.0-6.0"},{"trial_type":"number-animation","trial_index":7,"time_elapsed":117855,"internal_node_id":"0.0-7.0"},{"phase":0,"sequence":1,"avg":188,"response":183,"trial_type":"training_avg","trial_index":8,"time_elapsed":127751,"internal_node_id":"0.0-8.0"},{"trial_type":"number-animation","trial_index":9,"time_elapsed":140422,"internal_node_id":"0.0-9.0"},{"phase":0,"sequence":2,"avg":188,"response":180,"trial_type":"training_avg","trial_index":10,"time_elapsed":147991,"internal_node_id":"0.0-10.0"},{"trial_type":"number-animation","trial_index":11,"time_elapsed":157334,"internal_node_id":"0.0-11.0"},{"phase":0,"sequence":3,"avg":177,"response":181,"trial_type":"training_avg","trial_index":12,"time_elapsed":167280,"internal_node_id":"0.0-12.0"},{"trial_type":"number-animation","trial_index":13,"time_elapsed":178750,"internal_node_id":"0.0-13.0"},{"phase":0,"sequence":4,"avg":182,"response":179,"trial_type":"training_avg","trial_index":14,"time_elapsed":187576,"internal_node_id":"0.0-14.0"},{"responses":[{"value":0,"offby":-1,"category":"$115 - $130","category_index":0},{"value":0,"offby":-5,"category":"$131 - $145","category_index":1},{"value":10,"offby":-2,"category":"$146 - $160","category_index":2},{"value":10,"offby":-12,"category":"$161 - $175","category_index":3},{"value":65,"offby":31,"category":"$176 - $190","category_index":4},{"value":10,"offby":-5,"category":"$191 - $205","category_index":5},{"value":5,"offby":-6,"category":"$206 - $220","category_index":6}],"phase":0,"number":0,"trial_type":"bar-choose","trial_index":15,"time_elapsed":258474,"internal_node_id":"0.0-15.0"},{"rt":15342,"url":"\/christiane\/tickets\/utils\/testing.html","trial_type":"html","trial_index":16,"time_elapsed":275045,"internal_node_id":"0.0-16.0"},{"phase":0,"order":[10,39,41,18,21,34,49,48,45,27,33,44,22,13,11,29,25,31,35,28,15,5,23,7,17,40,14,30,8,19,6,3,36,47,4,12,0,9,16,38,46,43,1,2,37,26,42,32,24,20],"trial_type":"store_order","trial_index":17,"time_elapsed":276046,"internal_node_id":"0.0-17.0"},{"result":146,"points":3,"place":0,"phase":0,"sequence":-1,"prices":[184,180,224,165,181,199,185,193,218,146],"times":[1718,603,676,974,2005,657,668,676,829,1120],"next_num":10,"trial_type":"ticket-choose","trial_index":18,"time_elapsed":290246,"internal_node_id":"0.0-18.0"},{"rt":19636,"url":"\/christiane\/tickets\/utils\/testing_after.html","trial_type":"html","trial_index":19,"time_elapsed":311023,"internal_node_id":"0.0-19.0"},{"result":153,"points":3,"place":0,"phase":0,"sequence":0,"prices":[163,174,186,212,176,181,187,166,153,209],"times":[3250,626,590,589,528,587,528,492,1214],"next_num":9,"trial_type":"ticket-choose","trial_index":20,"time_elapsed":323987,"internal_node_id":"0.0-20.0"},{"result":158,"points":2,"place":1,"phase":0,"sequence":1,"prices":[177,175,186,209,158,181,188,167,208,154],"times":[1490,565,646,662,1686],"next_num":5,"trial_type":"ticket-choose","trial_index":21,"time_elapsed":332142,"internal_node_id":"0.0-21.0"},{"result":163,"points":1,"place":2,"phase":0,"sequence":2,"prices":[173,163,185,181,166,148,160,185,176,184],"times":[1754,1271],"next_num":2,"trial_type":"ticket-choose","trial_index":22,"time_elapsed":337683,"internal_node_id":"0.0-22.0"},{"result":165,"points":2,"place":1,"phase":0,"sequence":3,"prices":[165,175,186,214,177,179,187,166,153,208],"times":[3455],"next_num":1,"trial_type":"ticket-choose","trial_index":23,"time_elapsed":343252,"internal_node_id":"0.0-23.0"},{"result":165,"points":2,"place":1,"phase":0,"sequence":4,"prices":[177,175,186,210,165,179,187,166,153,208],"times":[1549,823,652,654,1565],"next_num":5,"trial_type":"ticket-choose","trial_index":24,"time_elapsed":351374,"internal_node_id":"0.0-24.0"},{"result":165,"points":2,"place":1,"phase":0,"sequence":5,"prices":[201,204,179,166,185,165,214,156,202,165],"times":[1105,541,510,1157,646,1439],"next_num":6,"trial_type":"ticket-choose","trial_index":25,"time_elapsed":359853,"internal_node_id":"0.0-25.0"},{"result":154,"points":3,"place":0,"phase":0,"sequence":6,"prices":[187,201,165,172,196,174,178,154,172,180],"times":[832,566,723,522,614,574,582,947],"next_num":8,"trial_type":"ticket-choose","trial_index":26,"time_elapsed":368797,"internal_node_id":"0.0-26.0"},{"result":147,"points":3,"place":0,"phase":0,"sequence":7,"prices":[181,214,169,147,182,193,178,184,176,179],"times":[593,469,931,1039],"next_num":4,"trial_type":"ticket-choose","trial_index":27,"time_elapsed":374653,"internal_node_id":"0.0-27.0"},{"result":165,"points":1,"place":2,"phase":0,"sequence":8,"prices":[158,176,187,210,177,181,187,165,208,153],"times":[1562,3044,585,637,638,572,559,1480],"next_num":8,"trial_type":"ticket-choose","trial_index":28,"time_elapsed":387333,"internal_node_id":"0.0-28.0"},{"result":197,"points":0,"place":8,"phase":0,"sequence":9,"prices":[192,172,171,178,188,165,217,168,195,197],"times":[641,821,612,573,510,1030,590,982,622,559],"next_num":11,"trial_type":"ticket-choose","trial_index":29,"time_elapsed":398644,"internal_node_id":"0.0-29.0"},{"result":167,"points":2,"place":1,"phase":0,"sequence":10,"prices":[167,174,186,211,178,181,188,168,208,156],"times":[1901],"next_num":1,"trial_type":"ticket-choose","trial_index":30,"time_elapsed":402565,"internal_node_id":"0.0-30.0"},{"result":163,"points":2,"place":1,"phase":0,"sequence":11,"prices":[176,186,178,217,163,181,187,166,153,209],"times":[1017,517,997,629,902],"next_num":5,"trial_type":"ticket-choose","trial_index":31,"time_elapsed":409411,"internal_node_id":"0.0-31.0"},{"result":171,"points":1,"place":3,"phase":0,"sequence":12,"prices":[189,167,180,197,165,168,172,213,178,171],"times":[1885,1052,607,526,1268,521,548,597,557,2261],"next_num":10,"trial_type":"ticket-choose","trial_index":32,"time_elapsed":425771,"internal_node_id":"0.0-32.0"},{"result":165,"points":3,"place":0,"phase":0,"sequence":13,"prices":[193,181,175,181,185,165,224,199,218,184],"times":[1118,515,630,583,622,1025],"next_num":6,"trial_type":"ticket-choose","trial_index":33,"time_elapsed":433165,"internal_node_id":"0.0-33.0"},{"result":167,"points":2,"place":1,"phase":0,"sequence":14,"prices":[178,174,186,217,167,181,188,168,208,156],"times":[639,326,318,613,989],"next_num":5,"trial_type":"ticket-choose","trial_index":34,"time_elapsed":438749,"internal_node_id":"0.0-34.0"},{"result":165,"points":1,"place":2,"phase":0,"sequence":15,"prices":[200,173,182,169,207,165,152,202,161,204],"times":[497,421,530,452,517,1103],"next_num":6,"trial_type":"ticket-choose","trial_index":35,"time_elapsed":445389,"internal_node_id":"0.0-35.0"},{"result":163,"points":2,"place":1,"phase":0,"sequence":16,"prices":[163,175,187,209,176,180,188,165,154,208],"times":[1274],"next_num":1,"trial_type":"ticket-choose","trial_index":36,"time_elapsed":448532,"internal_node_id":"0.0-36.0"},{"result":156,"points":3,"place":0,"phase":0,"sequence":17,"prices":[167,175,185,224,178,181,186,168,208,156],"times":[885,239,470,478,542,564,480,1693,1054,772],"next_num":10,"trial_type":"ticket-choose","trial_index":37,"time_elapsed":459621,"internal_node_id":"0.0-37.0"},{"result":152,"points":3,"place":0,"phase":0,"sequence":18,"prices":[200,180,203,152,175,170,160,154,176,191],"times":[947,407,605,1552],"next_num":4,"trial_type":"ticket-choose","trial_index":38,"time_elapsed":465909,"internal_node_id":"0.0-38.0"},{"result":153,"points":2,"place":1,"phase":0,"sequence":19,"prices":[167,153,172,185,195,143,184,211,177,227],"times":[651,1065],"next_num":2,"trial_type":"ticket-choose","trial_index":39,"time_elapsed":469686,"internal_node_id":"0.0-39.0"},{"result":169,"points":1,"place":2,"phase":0,"sequence":20,"prices":[167,175,186,225,178,179,187,169,209,153],"times":[1033,525,495,527,501,502,532,2581],"next_num":8,"trial_type":"ticket-choose","trial_index":40,"time_elapsed":480524,"internal_node_id":"0.0-40.0"},{"result":165,"points":2,"place":1,"phase":0,"sequence":21,"prices":[177,175,187,209,165,180,188,165,154,208],"times":[732,541,502,622,1029],"next_num":5,"trial_type":"ticket-choose","trial_index":41,"time_elapsed":486775,"internal_node_id":"0.0-41.0"},{"result":165,"points":2,"place":1,"phase":0,"sequence":22,"prices":[183,179,188,165,168,173,205,159,187,191],"times":[521,471,421,978],"next_num":4,"trial_type":"ticket-choose","trial_index":42,"time_elapsed":491646,"internal_node_id":"0.0-42.0"},{"result":165,"points":3,"place":0,"phase":0,"sequence":23,"prices":[196,171,170,184,187,165,211,169,201,202],"times":[499,405,462,486,526,909],"next_num":6,"trial_type":"ticket-choose","trial_index":43,"time_elapsed":497813,"internal_node_id":"0.0-43.0"},{"result":149,"points":3,"place":0,"phase":0,"sequence":24,"prices":[180,156,149,160,168,186,172,198,176,195],"times":[732,411,901],"next_num":3,"trial_type":"ticket-choose","trial_index":44,"time_elapsed":502157,"internal_node_id":"0.0-44.0"},{"result":159,"points":1,"place":2,"phase":0,"sequence":25,"prices":[181,159,149,175,185,151,163,174,178,207],"times":[489,1535],"next_num":2,"trial_type":"ticket-choose","trial_index":45,"time_elapsed":506262,"internal_node_id":"0.0-45.0"},{"result":163,"points":2,"place":1,"phase":0,"sequence":26,"prices":[176,175,186,210,163,179,187,166,153,208],"times":[903,429,2580,1107,1268],"next_num":5,"trial_type":"ticket-choose","trial_index":46,"time_elapsed":515431,"internal_node_id":"0.0-46.0"},{"result":154,"points":3,"place":0,"phase":0,"sequence":27,"prices":[176,187,179,209,163,180,188,165,154,208],"times":[639,397,519,606,1726,574,518,1374,948],"next_num":9,"trial_type":"ticket-choose","trial_index":47,"time_elapsed":526415,"internal_node_id":"0.0-47.0"},{"result":199,"points":0,"place":8,"phase":0,"sequence":28,"prices":[190,150,175,161,188,207,157,194,178,199],"times":[847,402,653,613,695,635,1223,630,982,1356],"next_num":10,"trial_type":"ticket-choose","trial_index":48,"time_elapsed":538396,"internal_node_id":"0.0-48.0"},{"result":158,"points":2,"place":1,"phase":0,"sequence":29,"prices":[177,176,187,225,158,181,187,165,208,153],"times":[1594,822,550,653,1014],"next_num":5,"trial_type":"ticket-choose","trial_index":49,"time_elapsed":545693,"internal_node_id":"0.0-49.0"},{"result":157,"points":3,"place":0,"phase":0,"sequence":30,"prices":[191,170,182,165,175,182,203,157,195,200],"times":[587,469,597,846,631,587,645,1166],"next_num":8,"trial_type":"ticket-choose","trial_index":50,"time_elapsed":554651,"internal_node_id":"0.0-50.0"},{"result":167,"points":2,"place":1,"phase":0,"sequence":31,"prices":[199,191,188,174,167,193,189,164,176,170],"times":[532,659,486,589,806],"next_num":5,"trial_type":"ticket-choose","trial_index":51,"time_elapsed":560387,"internal_node_id":"0.0-51.0"},{"result":165,"points":2,"place":1,"phase":0,"sequence":32,"prices":[193,174,224,165,187,190,224,161,194,195],"times":[461,1557,590,1140],"next_num":4,"trial_type":"ticket-choose","trial_index":52,"time_elapsed":566516,"internal_node_id":"0.0-52.0"},{"result":153,"points":3,"place":0,"phase":0,"sequence":33,"prices":[163,175,186,214,176,179,187,166,153,208],"times":[585,448,513,536,505,537,526,543,766],"next_num":9,"trial_type":"ticket-choose","trial_index":53,"time_elapsed":575014,"internal_node_id":"0.0-53.0"},{"result":156,"points":1,"place":2,"phase":0,"sequence":34,"prices":[200,207,155,158,156,168,167,135,178,177],"times":[2172,460,405,878,911],"next_num":5,"trial_type":"ticket-choose","trial_index":54,"time_elapsed":584150,"internal_node_id":"0.0-54.0"},{"result":165,"points":1,"place":2,"phase":0,"sequence":35,"prices":[199,193,169,165,202,182,151,164,176,171],"times":[525,309,446,1214],"next_num":4,"trial_type":"ticket-choose","trial_index":55,"time_elapsed":589061,"internal_node_id":"0.0-55.0"},{"result":165,"points":1,"place":2,"phase":0,"sequence":36,"prices":[185,179,191,165,161,173,199,150,188,168],"times":[649,518,483,903],"next_num":4,"trial_type":"ticket-choose","trial_index":56,"time_elapsed":594206,"internal_node_id":"0.0-56.0"},{"result":165,"points":2,"place":1,"phase":0,"sequence":37,"prices":[165,175,187,209,177,180,188,167,154,208],"times":[1270],"next_num":1,"trial_type":"ticket-choose","trial_index":57,"time_elapsed":597254,"internal_node_id":"0.0-57.0"},{"result":169,"points":3,"place":0,"phase":0,"sequence":38,"prices":[220,173,201,197,169,205,198,183,178,186],"times":[1057,718,892,1990,1222],"next_num":5,"trial_type":"ticket-choose","trial_index":58,"time_elapsed":605853,"internal_node_id":"0.0-58.0"},{"result":167,"points":2,"place":1,"phase":0,"sequence":39,"prices":[178,175,186,212,167,179,187,169,209,153],"times":[1282,566,653,574,1087],"next_num":5,"trial_type":"ticket-choose","trial_index":59,"time_elapsed":612647,"internal_node_id":"0.0-59.0"},{"result":165,"points":1,"place":2,"phase":0,"sequence":40,"prices":[171,169,186,165,163,167,220,148,187,165],"times":[568,453,412,1110],"next_num":4,"trial_type":"ticket-choose","trial_index":60,"time_elapsed":617663,"internal_node_id":"0.0-60.0"},{"result":165,"points":2,"place":1,"phase":0,"sequence":41,"prices":[177,174,186,217,165,181,187,166,153,209],"times":[623,436,654,623,1414],"next_num":5,"trial_type":"ticket-choose","trial_index":61,"time_elapsed":624157,"internal_node_id":"0.0-61.0"},{"result":163,"points":3,"place":0,"phase":0,"sequence":42,"prices":[163,199,196,199,185,195,227,163,177,166],"times":[990],"next_num":1,"trial_type":"ticket-choose","trial_index":62,"time_elapsed":627038,"internal_node_id":"0.0-62.0"},{"result":158,"points":2,"place":1,"phase":0,"sequence":43,"prices":[158,175,186,209,177,181,188,167,208,154],"times":[833],"next_num":1,"trial_type":"ticket-choose","trial_index":63,"time_elapsed":629733,"internal_node_id":"0.0-63.0"},{"result":157,"points":3,"place":0,"phase":0,"sequence":44,"prices":[201,187,157,184,198,179,188,185,178,170],"times":[1151,821,924],"next_num":3,"trial_type":"ticket-choose","trial_index":64,"time_elapsed":634963,"internal_node_id":"0.0-64.0"},{"result":165,"points":2,"place":1,"phase":0,"sequence":45,"prices":[165,174,186,212,177,181,187,166,153,209],"times":[1319],"next_num":1,"trial_type":"ticket-choose","trial_index":65,"time_elapsed":638548,"internal_node_id":"0.0-65.0"},{"result":158,"points":2,"place":1,"phase":0,"sequence":46,"prices":[158,175,186,211,177,180,187,166,209,153],"times":[1104],"next_num":1,"trial_type":"ticket-choose","trial_index":66,"time_elapsed":641572,"internal_node_id":"0.0-66.0"},{"result":158,"points":2,"place":1,"phase":0,"sequence":47,"prices":[177,175,186,221,158,180,187,166,209,153],"times":[808,550,519,621,960],"next_num":5,"trial_type":"ticket-choose","trial_index":67,"time_elapsed":647741,"internal_node_id":"0.0-67.0"},{"result":158,"points":3,"place":0,"phase":0,"sequence":48,"prices":[214,184,226,192,215,158,199,175,176,208],"times":[1138,453,677,597,613,1047],"next_num":6,"trial_type":"ticket-choose","trial_index":68,"time_elapsed":655309,"internal_node_id":"0.0-68.0"},{"result":167,"points":2,"place":1,"phase":0,"sequence":49,"prices":[178,175,185,215,167,181,186,168,208,156],"times":[1529,613,781,574,2757],"next_num":5,"trial_type":"ticket-choose","trial_index":69,"time_elapsed":664513,"internal_node_id":"0.0-69.0"},{"responses":[{"value":0,"offby":-1,"category":"$115 - $130","category_index":0},{"value":1,"offby":-4,"category":"$131 - $145","category_index":1},{"value":5,"offby":-7,"category":"$146 - $160","category_index":2},{"value":20,"offby":-2,"category":"$161 - $175","category_index":3},{"value":64,"offby":30,"category":"$176 - $190","category_index":4},{"value":7,"offby":-8,"category":"$191 - $205","category_index":5},{"value":3,"offby":-8,"category":"$206 - $220","category_index":6}],"phase":1,"number":1,"trial_type":"bar-choose","trial_index":70,"time_elapsed":729339,"internal_node_id":"0.0-70.0"},{"rt":8921,"url":"\/christiane\/tickets\/utils\/testing2.html","trial_type":"point_update","trial_index":71,"time_elapsed":739496,"internal_node_id":"0.0-71.0"},{"phase":1,"order":[14,22,49,6,9,25,36,48,20,27,0,17,39,24,3,26,13,1,47,35,2,10,33,28,34,44,15,16,40,23,30,45,32,12,41,37,29,7,42,5,31,11,38,19,43,8,18,21,46,4],"trial_type":"store_order","trial_index":72,"time_elapsed":742421,"internal_node_id":"0.0-72.0"},{"result":165,"points":2,"place":1,"phase":1,"sequence":0,"prices":[175,187,177,209,180,188,165,165,154,208],"times":[3053,486,583,917,677,524,854],"next_num":7,"trial_type":"ticket-choose","trial_index":73,"time_elapsed":752934,"internal_node_id":"0.0-73.0"},{"result":167,"points":2,"place":1,"phase":1,"sequence":1,"prices":[189,167,180,197,165,168,172,213,178,171],"times":[891,903],"next_num":2,"trial_type":"ticket-choose","trial_index":74,"time_elapsed":756924,"internal_node_id":"0.0-74.0"},{"result":155,"points":2,"place":1,"phase":1,"sequence":2,"prices":[201,207,155,158,156,165,167,135,178,177],"times":[1202,518,862],"next_num":3,"trial_type":"ticket-choose","trial_index":75,"time_elapsed":761741,"internal_node_id":"0.0-75.0"},{"result":158,"points":2,"place":1,"phase":1,"sequence":3,"prices":[175,186,158,211,180,187,177,166,209,153],"times":[863,710,929],"next_num":3,"trial_type":"ticket-choose","trial_index":76,"time_elapsed":766485,"internal_node_id":"0.0-76.0"},{"result":158,"points":2,"place":1,"phase":1,"sequence":4,"prices":[175,186,177,221,180,187,158,166,209,153],"times":[632,688,486,533,535,516,1005],"next_num":7,"trial_type":"ticket-choose","trial_index":77,"time_elapsed":773998,"internal_node_id":"0.0-77.0"},{"result":148,"points":3,"place":0,"phase":1,"sequence":5,"prices":[181,155,148,161,168,187,172,199,176,194],"times":[678,420,924],"next_num":3,"trial_type":"ticket-choose","trial_index":78,"time_elapsed":778180,"internal_node_id":"0.0-78.0"},{"result":148,"points":3,"place":0,"phase":1,"sequence":6,"prices":[183,163,185,180,166,148,160,186,176,184],"times":[720,1510,604,581,1381,911],"next_num":6,"trial_type":"ticket-choose","trial_index":79,"time_elapsed":786637,"internal_node_id":"0.0-79.0"},{"result":147,"points":3,"place":0,"phase":1,"sequence":7,"prices":[181,215,169,147,182,193,177,184,176,179],"times":[885,510,516,1158],"next_num":4,"trial_type":"ticket-choose","trial_index":80,"time_elapsed":792365,"internal_node_id":"0.0-80.0"},{"result":164,"points":3,"place":0,"phase":1,"sequence":8,"prices":[212,192,188,184,167,193,189,164,176,170],"times":[943,565,526,613,935,589,566,1104],"next_num":8,"trial_type":"ticket-choose","trial_index":81,"time_elapsed":801654,"internal_node_id":"0.0-81.0"},{"result":165,"points":3,"place":0,"phase":1,"sequence":9,"prices":[192,165,171,178,188,217,172,195,197,186],"times":[884,879],"next_num":2,"trial_type":"ticket-choose","trial_index":82,"time_elapsed":805397,"internal_node_id":"0.0-82.0"},{"result":168,"points":1,"place":2,"phase":1,"sequence":10,"prices":[183,182,192,168,173,205,167,187,165,170],"times":[719,565,549,1070],"next_num":4,"trial_type":"ticket-choose","trial_index":83,"time_elapsed":810797,"internal_node_id":"0.0-83.0"},{"result":159,"points":1,"place":2,"phase":1,"sequence":11,"prices":[180,159,149,175,185,141,163,174,178,207],"times":[719,1071],"next_num":2,"trial_type":"ticket-choose","trial_index":84,"time_elapsed":814557,"internal_node_id":"0.0-84.0"},{"result":158,"points":2,"place":1,"phase":1,"sequence":12,"prices":[175,186,177,209,181,188,158,167,208,154],"times":[731,693,503,694,596,487,969],"next_num":7,"trial_type":"ticket-choose","trial_index":85,"time_elapsed":822511,"internal_node_id":"0.0-85.0"},{"result":165,"points":1,"place":2,"phase":1,"sequence":13,"prices":[175,187,163,209,180,188,176,165,154,208],"times":[708,468,787,601,573,558,1884,967],"next_num":8,"trial_type":"ticket-choose","trial_index":86,"time_elapsed":832295,"internal_node_id":"0.0-86.0"},{"result":165,"points":2,"place":1,"phase":1,"sequence":14,"prices":[174,186,177,217,181,187,165,166,153,209],"times":[605,726,501,559,686,558,910],"next_num":7,"trial_type":"ticket-choose","trial_index":87,"time_elapsed":839941,"internal_node_id":"0.0-87.0"},{"result":171,"points":1,"place":3,"phase":1,"sequence":15,"prices":[185,170,182,201,173,199,171,188,165,168],"times":[599,534,812,741,909,550,1085],"next_num":7,"trial_type":"ticket-choose","trial_index":88,"time_elapsed":848277,"internal_node_id":"0.0-88.0"},{"result":162,"points":3,"place":0,"phase":1,"sequence":16,"prices":[201,165,162,166,185,214,165,202,204,179],"times":[597,404,1007],"next_num":3,"trial_type":"ticket-choose","trial_index":89,"time_elapsed":852460,"internal_node_id":"0.0-89.0"},{"result":167,"points":1,"place":2,"phase":1,"sequence":17,"prices":[171,203,175,170,167,220,192,186,165,165],"times":[1211,583,514,2273,996],"next_num":5,"trial_type":"ticket-choose","trial_index":90,"time_elapsed":864462,"internal_node_id":"0.0-90.0"},{"result":154,"points":2,"place":1,"phase":1,"sequence":18,"prices":[168,154,172,185,195,144,184,211,177,227],"times":[1043,910],"next_num":2,"trial_type":"ticket-choose","trial_index":91,"time_elapsed":868580,"internal_node_id":"0.0-91.0"},{"result":185,"points":1,"place":4,"phase":1,"sequence":19,"prices":[196,165,170,184,187,211,171,201,202,185],"times":[750,494,589,605,542,533,606,637,774,1652],"next_num":11,"trial_type":"ticket-choose","trial_index":92,"time_elapsed":881388,"internal_node_id":"0.0-92.0"},{"result":153,"points":3,"place":0,"phase":1,"sequence":20,"prices":[175,186,176,210,179,187,163,166,153,208],"times":[1419,549,527,558,494,617,1366,694,1078],"next_num":9,"trial_type":"ticket-choose","trial_index":93,"time_elapsed":892229,"internal_node_id":"0.0-93.0"},{"result":167,"points":2,"place":1,"phase":1,"sequence":21,"prices":[175,186,178,212,179,187,167,169,209,153],"times":[1165,511,517,645,524,540,1074],"next_num":7,"trial_type":"ticket-choose","trial_index":94,"time_elapsed":900315,"internal_node_id":"0.0-94.0"},{"result":158,"points":2,"place":1,"phase":1,"sequence":22,"prices":[176,187,177,225,181,187,158,165,208,153],"times":[507,367,493,622,1351,576,1206],"next_num":7,"trial_type":"ticket-choose","trial_index":95,"time_elapsed":908572,"internal_node_id":"0.0-95.0"},{"result":165,"points":2,"place":1,"phase":1,"sequence":23,"prices":[175,187,165,209,180,188,177,166,154,208],"times":[703,589,1287],"next_num":3,"trial_type":"ticket-choose","trial_index":96,"time_elapsed":913447,"internal_node_id":"0.0-96.0"},{"result":163,"points":2,"place":1,"phase":1,"sequence":24,"prices":[174,186,176,217,181,187,163,166,153,209],"times":[606,461,502,606,741,784,948],"next_num":7,"trial_type":"ticket-choose","trial_index":97,"time_elapsed":921108,"internal_node_id":"0.0-97.0"},{"result":199,"points":0,"place":8,"phase":1,"sequence":25,"prices":[189,150,175,160,188,207,158,194,178,199],"times":[729,342,631,486,494,662,1062,613,1261,1078],"next_num":10,"trial_type":"ticket-choose","trial_index":98,"time_elapsed":932181,"internal_node_id":"0.0-98.0"},{"result":163,"points":2,"place":1,"phase":1,"sequence":26,"prices":[174,186,163,212,181,187,176,166,153,209],"times":[711,501,1302],"next_num":3,"trial_type":"ticket-choose","trial_index":99,"time_elapsed":936949,"internal_node_id":"0.0-99.0"},{"result":165,"points":3,"place":0,"phase":1,"sequence":27,"prices":[191,172,169,175,182,203,170,195,165,176],"times":[527,367,518,623,614,895,677,686,1295],"next_num":9,"trial_type":"ticket-choose","trial_index":100,"time_elapsed":946727,"internal_node_id":"0.0-100.0"},{"result":165,"points":2,"place":1,"phase":1,"sequence":28,"prices":[174,186,165,212,181,187,177,167,153,209],"times":[813,445,1069],"next_num":3,"trial_type":"ticket-choose","trial_index":101,"time_elapsed":951205,"internal_node_id":"0.0-101.0"},{"result":158,"points":2,"place":1,"phase":1,"sequence":29,"prices":[175,186,158,209,181,188,177,167,208,154],"times":[648,677,934],"next_num":3,"trial_type":"ticket-choose","trial_index":102,"time_elapsed":960412,"internal_node_id":"0.0-102.0"},{"result":165,"points":2,"place":1,"phase":1,"sequence":30,"prices":[175,186,165,214,179,187,177,166,153,208],"times":[1336,550,964],"next_num":3,"trial_type":"ticket-choose","trial_index":103,"time_elapsed":965611,"internal_node_id":"0.0-103.0"},{"result":167,"points":2,"place":1,"phase":1,"sequence":31,"prices":[174,186,178,217,181,188,167,168,208,156],"times":[1014,923,473,627,518,588,948],"next_num":7,"trial_type":"ticket-choose","trial_index":104,"time_elapsed":973813,"internal_node_id":"0.0-104.0"},{"result":165,"points":2,"place":1,"phase":1,"sequence":32,"prices":[188,200,165,172,198,174,177,154,177,180],"times":[552,638,966],"next_num":3,"trial_type":"ticket-choose","trial_index":105,"time_elapsed":978118,"internal_node_id":"0.0-105.0"},{"result":154,"points":2,"place":1,"phase":1,"sequence":33,"prices":[200,181,203,152,175,171,160,154,176,191],"times":[655,525,607,621,573,597,581,1102],"next_num":8,"trial_type":"ticket-choose","trial_index":106,"time_elapsed":986589,"internal_node_id":"0.0-106.0"},{"result":167,"points":2,"place":1,"phase":1,"sequence":34,"prices":[175,185,178,215,181,186,167,168,208,156],"times":[877,670,558,677,533,543,913],"next_num":7,"trial_type":"ticket-choose","trial_index":107,"time_elapsed":994423,"internal_node_id":"0.0-107.0"},{"result":163,"points":2,"place":1,"phase":1,"sequence":35,"prices":[175,186,163,214,179,187,176,166,153,208],"times":[649,438,910],"next_num":3,"trial_type":"ticket-choose","trial_index":108,"time_elapsed":998556,"internal_node_id":"0.0-108.0"},{"result":167,"points":2,"place":1,"phase":1,"sequence":36,"prices":[174,186,167,211,181,188,178,168,208,156],"times":[668,566,1109],"next_num":3,"trial_type":"ticket-choose","trial_index":109,"time_elapsed":1003038,"internal_node_id":"0.0-109.0"},{"result":165,"points":2,"place":1,"phase":1,"sequence":37,"prices":[175,186,177,210,179,187,165,166,153,208],"times":[655,518,526,533,542,510,1005],"next_num":7,"trial_type":"ticket-choose","trial_index":110,"time_elapsed":1010494,"internal_node_id":"0.0-110.0"},{"result":163,"points":2,"place":1,"phase":1,"sequence":38,"prices":[175,187,176,209,180,188,163,165,154,208],"times":[660,526,582,612,926,1238,806],"next_num":7,"trial_type":"ticket-choose","trial_index":111,"time_elapsed":1019174,"internal_node_id":"0.0-111.0"},{"result":168,"points":1,"place":2,"phase":1,"sequence":39,"prices":[168,199,196,198,185,195,227,163,177,166],"times":[1233],"next_num":1,"trial_type":"ticket-choose","trial_index":112,"time_elapsed":1022134,"internal_node_id":"0.0-112.0"},{"result":158,"points":3,"place":0,"phase":1,"sequence":40,"prices":[210,184,226,193,215,158,199,175,176,208],"times":[757,603,573,615,630,887],"next_num":6,"trial_type":"ticket-choose","trial_index":113,"time_elapsed":1029086,"internal_node_id":"0.0-113.0"},{"result":157,"points":3,"place":0,"phase":1,"sequence":41,"prices":[201,187,157,184,198,179,188,185,178,170],"times":[995,551,902],"next_num":3,"trial_type":"ticket-choose","trial_index":114,"time_elapsed":1033790,"internal_node_id":"0.0-114.0"},{"result":168,"points":1,"place":2,"phase":1,"sequence":42,"prices":[175,185,167,224,181,186,178,168,208,156],"times":[837,2324,1059,598,821,702,549,900],"next_num":8,"trial_type":"ticket-choose","trial_index":115,"time_elapsed":1044958,"internal_node_id":"0.0-115.0"},{"result":169,"points":1,"place":2,"phase":1,"sequence":43,"prices":[175,186,167,225,179,187,178,169,209,153],"times":[637,400,526,622,694,636,566,894],"next_num":8,"trial_type":"ticket-choose","trial_index":116,"time_elapsed":1053189,"internal_node_id":"0.0-116.0"},{"result":163,"points":2,"place":1,"phase":1,"sequence":44,"prices":[198,193,169,163,202,182,152,164,177,171],"times":[595,588,807,1221],"next_num":4,"trial_type":"ticket-choose","trial_index":117,"time_elapsed":1058916,"internal_node_id":"0.0-117.0"},{"result":161,"points":3,"place":0,"phase":1,"sequence":45,"prices":[200,165,165,173,182,207,161,202,204,180],"times":[639,695,1240,708,638,598,902],"next_num":7,"trial_type":"ticket-choose","trial_index":118,"time_elapsed":1067444,"internal_node_id":"0.0-118.0"},{"result":197,"points":0,"place":5,"phase":1,"sequence":46,"prices":[222,173,202,197,143,205,198,183,178,186],"times":[666,421,463,1093],"next_num":4,"trial_type":"ticket-choose","trial_index":119,"time_elapsed":1072571,"internal_node_id":"0.0-119.0"},{"result":165,"points":3,"place":0,"phase":1,"sequence":47,"prices":[193,169,171,187,190,224,174,194,165,188],"times":[1035,614,454,574,638,564,630,783,1057],"next_num":9,"trial_type":"ticket-choose","trial_index":120,"time_elapsed":1082597,"internal_node_id":"0.0-120.0"},{"result":184,"points":1,"place":4,"phase":1,"sequence":48,"prices":[193,165,175,181,185,224,180,199,218,184],"times":[837,494,527,550,564,639,565,692,574,968],"next_num":10,"trial_type":"ticket-choose","trial_index":121,"time_elapsed":1093047,"internal_node_id":"0.0-121.0"},{"result":158,"points":2,"place":1,"phase":1,"sequence":49,"prices":[176,187,158,210,181,187,177,165,208,153],"times":[1435,9216,1236],"next_num":3,"trial_type":"ticket-choose","trial_index":122,"time_elapsed":1115950,"internal_node_id":"0.0-122.0"},{"responses":[{"value":0,"offby":-1,"category":"$115 - $130","category_index":0},{"value":4,"offby":-1,"category":"$131 - $145","category_index":1},{"value":4,"offby":-8,"category":"$146 - $160","category_index":2},{"value":30,"offby":8,"category":"$161 - $175","category_index":3},{"value":55,"offby":21,"category":"$176 - $190","category_index":4},{"value":5,"offby":-10,"category":"$191 - $205","category_index":5},{"value":2,"offby":-9,"category":"$206 - $220","category_index":6}],"phase":1,"number":1,"trial_type":"bar-choose","trial_index":123,"time_elapsed":1188949,"internal_node_id":"0.0-123.0"},{"special_comment":"no","trial_type":"special_sequence","trial_index":124,"time_elapsed":1194929,"internal_node_id":"0.0-124.0"},{"during":"Nothing","bonus":264,"trial_type":"final","trial_index":125,"time_elapsed":1218722,"internal_node_id":"0.0-125.0"}],"bonus":264}