{"start_time":"2017-05-24 12:37:28","end_time":"2017-05-24 13:07:25","points_phase0":91,"points_phase1":116,"phase_order":1,"age":37,"gender":"f","tries":1,"during":"Eating","worker_id":"AU5UJIZ3TLI5M","assignment_id":"3LEP4MGT3HTORPECCSYBXDWUCRNBDS","data":[{"rt":85925,"url":"\/christiane\/tickets\/utils\/consent.html","trial_type":"html","trial_index":0,"time_elapsed":86165,"internal_node_id":"0.0-0.0"},{"age":37,"gender":"f","trial_type":"age","trial_index":1,"time_elapsed":93312,"internal_node_id":"0.0-1.0"},{"worker_id":"AU5UJIZ3TLI5M","trial_type":"workerid","trial_index":2,"time_elapsed":103290,"internal_node_id":"0.0-2.0"},{"tries":1,"trial_type":"instructions_check","trial_index":3,"time_elapsed":129674,"internal_node_id":"0.0-3.0"},{"rt":245602,"url":"\/christiane\/tickets\/utils\/start.html","trial_type":"html","trial_index":4,"time_elapsed":376435,"internal_node_id":"0.0-4.0"},{"trial_type":"number-animation","trial_index":5,"time_elapsed":389971,"internal_node_id":"0.0-5.0"},{"phase":0,"sequence":0,"avg":181,"response":166,"trial_type":"training_avg","trial_index":6,"time_elapsed":399118,"internal_node_id":"0.0-6.0"},{"trial_type":"number-animation","trial_index":7,"time_elapsed":417246,"internal_node_id":"0.0-7.0"},{"phase":0,"sequence":1,"avg":188,"response":184,"trial_type":"training_avg","trial_index":8,"time_elapsed":424205,"internal_node_id":"0.0-8.0"},{"trial_type":"number-animation","trial_index":9,"time_elapsed":432422,"internal_node_id":"0.0-9.0"},{"phase":0,"sequence":2,"avg":188,"response":186,"trial_type":"training_avg","trial_index":10,"time_elapsed":438958,"internal_node_id":"0.0-10.0"},{"trial_type":"number-animation","trial_index":11,"time_elapsed":447235,"internal_node_id":"0.0-11.0"},{"phase":0,"sequence":3,"avg":177,"response":184,"trial_type":"training_avg","trial_index":12,"time_elapsed":453405,"internal_node_id":"0.0-12.0"},{"trial_type":"number-animation","trial_index":13,"time_elapsed":461575,"internal_node_id":"0.0-13.0"},{"phase":0,"sequence":4,"avg":182,"response":185,"trial_type":"training_avg","trial_index":14,"time_elapsed":468517,"internal_node_id":"0.0-14.0"},{"responses":[{"value":5,"offby":4,"category":"$115 - $130","category_index":0},{"value":10,"offby":5,"category":"$131 - $145","category_index":1},{"value":20,"offby":8,"category":"$146 - $160","category_index":2},{"value":30,"offby":8,"category":"$161 - $175","category_index":3},{"value":20,"offby":-14,"category":"$176 - $190","category_index":4},{"value":10,"offby":-5,"category":"$191 - $205","category_index":5},{"value":5,"offby":-6,"category":"$206 - $220","category_index":6}],"phase":0,"number":0,"trial_type":"bar-choose","trial_index":15,"time_elapsed":542358,"internal_node_id":"0.0-15.0"},{"rt":65450,"url":"\/christiane\/tickets\/utils\/testing.html","trial_type":"html","trial_index":16,"time_elapsed":608957,"internal_node_id":"0.0-16.0"},{"phase":0,"order":[14,15,17,29,0,4,27,1,44,12,48,41,47,3,16,30,28,21,38,42,34,25,20,36,32,7,9,45,37,46,2,24,18,19,10,35,6,13,8,31,49,26,39,11,22,23,33,40,43,5],"trial_type":"store_order","trial_index":17,"time_elapsed":609960,"internal_node_id":"0.0-17.0"},{"result":165,"points":2,"place":1,"phase":0,"sequence":-1,"prices":[184,180,224,165,181,199,185,193,218,146],"times":[1869,552,521,1209],"next_num":4,"trial_type":"ticket-choose","trial_index":18,"time_elapsed":616925,"internal_node_id":"0.0-18.0"},{"rt":14445,"url":"\/christiane\/tickets\/utils\/testing_after.html","trial_type":"html","trial_index":19,"time_elapsed":632525,"internal_node_id":"0.0-19.0"},{"result":165,"points":1,"place":2,"phase":0,"sequence":0,"prices":[171,169,186,165,163,167,220,148,187,165],"times":[2063,502,579,1181],"next_num":4,"trial_type":"ticket-choose","trial_index":20,"time_elapsed":639879,"internal_node_id":"0.0-20.0"},{"result":158,"points":2,"place":1,"phase":0,"sequence":1,"prices":[177,176,187,225,158,181,187,165,208,153],"times":[1208,954,632,403,1315],"next_num":5,"trial_type":"ticket-choose","trial_index":21,"time_elapsed":647274,"internal_node_id":"0.0-21.0"},{"result":176,"points":0,"place":5,"phase":0,"sequence":2,"prices":[180,156,149,160,168,186,172,198,176,195],"times":[2809,446,370,284,281,363,593,541,1098],"next_num":9,"trial_type":"ticket-choose","trial_index":22,"time_elapsed":657658,"internal_node_id":"0.0-22.0"},{"result":165,"points":1,"place":2,"phase":0,"sequence":3,"prices":[200,173,182,169,207,165,152,202,161,204],"times":[6501,944,542,849,577,1131],"next_num":6,"trial_type":"ticket-choose","trial_index":23,"time_elapsed":671585,"internal_node_id":"0.0-23.0"},{"result":154,"points":3,"place":0,"phase":0,"sequence":4,"prices":[177,175,187,209,165,180,188,165,154,208],"times":[1051,611,570,622,1110,511,577,1166,981],"next_num":9,"trial_type":"ticket-choose","trial_index":24,"time_elapsed":682344,"internal_node_id":"0.0-24.0"},{"result":151,"points":3,"place":0,"phase":0,"sequence":5,"prices":[199,193,169,165,202,182,151,164,176,171],"times":[1811,361,322,361,683,837,1169],"next_num":7,"trial_type":"ticket-choose","trial_index":25,"time_elapsed":691718,"internal_node_id":"0.0-25.0"},{"result":158,"points":2,"place":1,"phase":0,"sequence":6,"prices":[158,175,186,211,177,180,187,166,209,153],"times":[1236],"next_num":1,"trial_type":"ticket-choose","trial_index":26,"time_elapsed":694877,"internal_node_id":"0.0-26.0"},{"result":166,"points":1,"place":3,"phase":0,"sequence":7,"prices":[201,204,179,166,185,165,214,156,202,165],"times":[936,515,582,1157],"next_num":4,"trial_type":"ticket-choose","trial_index":27,"time_elapsed":700584,"internal_node_id":"0.0-27.0"},{"result":156,"points":3,"place":0,"phase":0,"sequence":8,"prices":[178,175,185,215,167,181,186,168,208,156],"times":[1135,467,490,543,894,529,538,542,592,869],"next_num":10,"trial_type":"ticket-choose","trial_index":28,"time_elapsed":710982,"internal_node_id":"0.0-28.0"},{"result":161,"points":3,"place":0,"phase":0,"sequence":9,"prices":[193,174,224,165,187,190,224,161,194,195],"times":[9064,529,610,1262,471,518,556,1665],"next_num":8,"trial_type":"ticket-choose","trial_index":29,"time_elapsed":729040,"internal_node_id":"0.0-29.0"},{"result":163,"points":2,"place":1,"phase":0,"sequence":10,"prices":[163,175,186,214,176,179,187,166,153,208],"times":[21287],"next_num":1,"trial_type":"ticket-choose","trial_index":30,"time_elapsed":752151,"internal_node_id":"0.0-30.0"},{"result":202,"points":0,"place":8,"phase":0,"sequence":11,"prices":[196,171,170,184,187,165,211,169,201,202],"times":[933,479,350,488,540,934,458,1315,516,813],"next_num":11,"trial_type":"ticket-choose","trial_index":31,"time_elapsed":763215,"internal_node_id":"0.0-31.0"},{"result":158,"points":2,"place":1,"phase":0,"sequence":12,"prices":[177,175,186,221,158,180,187,166,209,153],"times":[1931,550,567,644,888],"next_num":5,"trial_type":"ticket-choose","trial_index":32,"time_elapsed":770435,"internal_node_id":"0.0-32.0"},{"result":166,"points":1,"place":2,"phase":0,"sequence":13,"prices":[165,175,186,214,177,179,187,166,153,208],"times":[869,451,550,612,671,709,586,961],"next_num":8,"trial_type":"ticket-choose","trial_index":33,"time_elapsed":779429,"internal_node_id":"0.0-33.0"},{"result":186,"points":1,"place":4,"phase":0,"sequence":14,"prices":[220,173,201,197,169,205,198,183,178,186],"times":[9335,448,295,627,624,333,630,626,877,812],"next_num":11,"trial_type":"ticket-choose","trial_index":34,"time_elapsed":797767,"internal_node_id":"0.0-34.0"},{"result":166,"points":1,"place":2,"phase":0,"sequence":15,"prices":[165,174,186,212,177,181,187,166,153,209],"times":[1514,729,627,519,575,549,500,941],"next_num":8,"trial_type":"ticket-choose","trial_index":35,"time_elapsed":809751,"internal_node_id":"0.0-35.0"},{"result":227,"points":0,"place":9,"phase":0,"sequence":16,"prices":[167,153,172,185,195,143,184,211,177,227],"times":[925,361,383,402,383,365,635,751,396,836],"next_num":11,"trial_type":"ticket-choose","trial_index":36,"time_elapsed":818881,"internal_node_id":"0.0-36.0"},{"result":167,"points":2,"place":1,"phase":0,"sequence":17,"prices":[189,167,180,197,165,168,172,213,178,171],"times":[994,960],"next_num":2,"trial_type":"ticket-choose","trial_index":37,"time_elapsed":822770,"internal_node_id":"0.0-37.0"},{"result":169,"points":1,"place":2,"phase":0,"sequence":18,"prices":[167,175,186,225,178,179,187,169,209,153],"times":[523,563,608,536,739,641,571,889],"next_num":8,"trial_type":"ticket-choose","trial_index":38,"time_elapsed":831066,"internal_node_id":"0.0-38.0"},{"result":165,"points":2,"place":1,"phase":0,"sequence":19,"prices":[177,175,186,210,165,179,187,166,153,208],"times":[660,427,298,576,2808],"next_num":5,"trial_type":"ticket-choose","trial_index":39,"time_elapsed":838402,"internal_node_id":"0.0-39.0"},{"result":165,"points":2,"place":1,"phase":0,"sequence":20,"prices":[165,175,187,209,177,180,188,167,154,208],"times":[6432],"next_num":1,"trial_type":"ticket-choose","trial_index":40,"time_elapsed":846610,"internal_node_id":"0.0-40.0"},{"result":167,"points":2,"place":1,"phase":0,"sequence":21,"prices":[178,174,186,217,167,181,188,168,208,156],"times":[1505,1211,374,520,1115],"next_num":5,"trial_type":"ticket-choose","trial_index":41,"time_elapsed":853908,"internal_node_id":"0.0-41.0"},{"result":159,"points":1,"place":2,"phase":0,"sequence":22,"prices":[181,159,149,175,185,151,163,174,178,207],"times":[1090,1104],"next_num":2,"trial_type":"ticket-choose","trial_index":42,"time_elapsed":858135,"internal_node_id":"0.0-42.0"},{"result":191,"points":0,"place":8,"phase":0,"sequence":23,"prices":[183,179,188,165,168,173,205,159,187,191],"times":[840,442,460,481,545,582,575,1286,541,687],"next_num":11,"trial_type":"ticket-choose","trial_index":43,"time_elapsed":868833,"internal_node_id":"0.0-43.0"},{"result":166,"points":1,"place":3,"phase":0,"sequence":24,"prices":[173,163,185,181,166,148,160,185,176,184],"times":[1138,443,559,564,882],"next_num":5,"trial_type":"ticket-choose","trial_index":44,"time_elapsed":874984,"internal_node_id":"0.0-44.0"},{"result":154,"points":3,"place":0,"phase":0,"sequence":25,"prices":[176,187,179,209,163,180,188,165,154,208],"times":[443,577,484,595,821,496,470,974,1009],"next_num":9,"trial_type":"ticket-choose","trial_index":45,"time_elapsed":884280,"internal_node_id":"0.0-45.0"},{"result":153,"points":3,"place":0,"phase":0,"sequence":26,"prices":[178,175,186,212,167,179,187,169,209,153],"times":[870,862,452,482,1115,673,495,1645,538,822],"next_num":10,"trial_type":"ticket-choose","trial_index":46,"time_elapsed":895854,"internal_node_id":"0.0-46.0"},{"result":197,"points":0,"place":8,"phase":0,"sequence":27,"prices":[192,172,171,178,188,165,217,168,195,197],"times":[815,573,529,563,573,1141,578,800,554,665],"next_num":11,"trial_type":"ticket-choose","trial_index":47,"time_elapsed":906480,"internal_node_id":"0.0-47.0"},{"result":163,"points":2,"place":1,"phase":0,"sequence":28,"prices":[163,174,186,212,176,181,187,166,153,209],"times":[3559],"next_num":1,"trial_type":"ticket-choose","trial_index":48,"time_elapsed":911774,"internal_node_id":"0.0-48.0"},{"result":155,"points":2,"place":1,"phase":0,"sequence":29,"prices":[200,207,155,158,156,168,167,135,178,177],"times":[1476,606,1194],"next_num":3,"trial_type":"ticket-choose","trial_index":49,"time_elapsed":917290,"internal_node_id":"0.0-49.0"},{"result":164,"points":3,"place":0,"phase":0,"sequence":30,"prices":[199,191,188,174,167,193,189,164,176,170],"times":[11458,582,572,515,715,560,525,1717],"next_num":8,"trial_type":"ticket-choose","trial_index":50,"time_elapsed":937263,"internal_node_id":"0.0-50.0"},{"result":158,"points":2,"place":1,"phase":0,"sequence":31,"prices":[158,175,186,209,177,181,188,167,208,154],"times":[20386],"next_num":1,"trial_type":"ticket-choose","trial_index":51,"time_elapsed":962609,"internal_node_id":"0.0-51.0"},{"result":150,"points":3,"place":0,"phase":0,"sequence":32,"prices":[190,150,175,161,188,207,157,194,178,199],"times":[768,901],"next_num":2,"trial_type":"ticket-choose","trial_index":52,"time_elapsed":966248,"internal_node_id":"0.0-52.0"},{"result":156,"points":3,"place":0,"phase":0,"sequence":33,"prices":[167,174,186,211,178,181,188,168,208,156],"times":[682,514,478,503,495,514,470,674,543,862],"next_num":10,"trial_type":"ticket-choose","trial_index":53,"time_elapsed":975707,"internal_node_id":"0.0-53.0"},{"result":165,"points":2,"place":1,"phase":0,"sequence":34,"prices":[177,174,186,217,165,181,187,166,153,209],"times":[9462,947,705,490,1198],"next_num":5,"trial_type":"ticket-choose","trial_index":54,"time_elapsed":991183,"internal_node_id":"0.0-54.0"},{"result":154,"points":3,"place":0,"phase":0,"sequence":35,"prices":[187,201,165,172,196,174,178,154,172,180],"times":[7390,632,3489,607,466,457,566,1229],"next_num":8,"trial_type":"ticket-choose","trial_index":55,"time_elapsed":1009271,"internal_node_id":"0.0-55.0"},{"result":157,"points":3,"place":0,"phase":0,"sequence":36,"prices":[201,187,157,184,198,179,188,185,178,170],"times":[1381,1182,1169],"next_num":3,"trial_type":"ticket-choose","trial_index":56,"time_elapsed":1015989,"internal_node_id":"0.0-56.0"},{"result":158,"points":3,"place":0,"phase":0,"sequence":37,"prices":[214,184,226,192,215,158,199,175,176,208],"times":[1113,685,692,630,623,1279],"next_num":6,"trial_type":"ticket-choose","trial_index":57,"time_elapsed":1024159,"internal_node_id":"0.0-57.0"},{"result":163,"points":2,"place":1,"phase":0,"sequence":38,"prices":[176,186,178,217,163,181,187,166,153,209],"times":[7054,681,1315,505,1578],"next_num":5,"trial_type":"ticket-choose","trial_index":58,"time_elapsed":1037958,"internal_node_id":"0.0-58.0"},{"result":152,"points":3,"place":0,"phase":0,"sequence":39,"prices":[200,180,203,152,175,170,160,154,176,191],"times":[9349,1772,592,913],"next_num":4,"trial_type":"ticket-choose","trial_index":59,"time_elapsed":1052861,"internal_node_id":"0.0-59.0"},{"result":184,"points":1,"place":4,"phase":0,"sequence":40,"prices":[193,181,175,181,185,165,224,199,218,184],"times":[783,390,569,655,545,1154,629,572,514,1287],"next_num":10,"trial_type":"ticket-choose","trial_index":60,"time_elapsed":1063708,"internal_node_id":"0.0-60.0"},{"result":163,"points":3,"place":0,"phase":0,"sequence":41,"prices":[163,199,196,199,185,195,227,163,177,166],"times":[1175],"next_num":1,"trial_type":"ticket-choose","trial_index":61,"time_elapsed":1066669,"internal_node_id":"0.0-61.0"},{"result":167,"points":2,"place":1,"phase":0,"sequence":42,"prices":[167,175,185,224,178,181,186,168,208,156],"times":[1054],"next_num":1,"trial_type":"ticket-choose","trial_index":62,"time_elapsed":1069544,"internal_node_id":"0.0-62.0"},{"result":165,"points":2,"place":1,"phase":0,"sequence":43,"prices":[191,170,182,165,175,182,203,157,195,200],"times":[846,517,513,1132],"next_num":4,"trial_type":"ticket-choose","trial_index":63,"time_elapsed":1075217,"internal_node_id":"0.0-63.0"},{"result":165,"points":1,"place":2,"phase":0,"sequence":44,"prices":[185,179,191,165,161,173,199,150,188,168],"times":[2325,1713,617,1447],"next_num":4,"trial_type":"ticket-choose","trial_index":64,"time_elapsed":1084036,"internal_node_id":"0.0-64.0"},{"result":165,"points":1,"place":2,"phase":0,"sequence":45,"prices":[163,175,187,209,176,180,188,165,154,208],"times":[1564,398,561,426,551,556,503,1396],"next_num":8,"trial_type":"ticket-choose","trial_index":65,"time_elapsed":1093232,"internal_node_id":"0.0-65.0"},{"result":158,"points":2,"place":1,"phase":0,"sequence":46,"prices":[158,176,187,210,177,181,187,165,208,153],"times":[26282],"next_num":1,"trial_type":"ticket-choose","trial_index":66,"time_elapsed":1121415,"internal_node_id":"0.0-66.0"},{"result":163,"points":2,"place":1,"phase":0,"sequence":47,"prices":[176,175,186,210,163,179,187,166,153,208],"times":[960,580,480,516,1082],"next_num":5,"trial_type":"ticket-choose","trial_index":67,"time_elapsed":1128673,"internal_node_id":"0.0-67.0"},{"result":158,"points":2,"place":1,"phase":0,"sequence":48,"prices":[177,175,186,209,158,181,188,167,208,154],"times":[980,603,507,539,1196],"next_num":5,"trial_type":"ticket-choose","trial_index":68,"time_elapsed":1135013,"internal_node_id":"0.0-68.0"},{"result":179,"points":1,"place":4,"phase":0,"sequence":49,"prices":[181,214,169,147,182,193,178,184,176,179],"times":[775,237,551,469,1322,530,548,526,1090,714],"next_num":10,"trial_type":"ticket-choose","trial_index":69,"time_elapsed":1145624,"internal_node_id":"0.0-69.0"},{"responses":[{"value":10,"offby":9,"category":"$115 - $130","category_index":0},{"value":15,"offby":10,"category":"$131 - $145","category_index":1},{"value":15,"offby":3,"category":"$146 - $160","category_index":2},{"value":15,"offby":-7,"category":"$161 - $175","category_index":3},{"value":15,"offby":-19,"category":"$176 - $190","category_index":4},{"value":15,"offby":0,"category":"$191 - $205","category_index":5},{"value":15,"offby":4,"category":"$206 - $220","category_index":6}],"phase":1,"number":1,"trial_type":"bar-choose","trial_index":70,"time_elapsed":1179301,"internal_node_id":"0.0-70.0"},{"rt":54966,"url":"\/christiane\/tickets\/utils\/testing2.html","trial_type":"point_update","trial_index":71,"time_elapsed":1235555,"internal_node_id":"0.0-71.0"},{"phase":1,"order":[31,23,34,26,10,37,18,25,4,32,12,28,21,6,42,8,35,39,2,9,7,3,44,33,49,16,5,27,14,41,45,19,40,0,11,36,43,46,17,47,24,38,1,30,29,13,20,15,22,48],"trial_type":"store_order","trial_index":72,"time_elapsed":1236558,"internal_node_id":"0.0-72.0"},{"result":163,"points":2,"place":1,"phase":1,"sequence":0,"prices":[174,186,163,212,181,187,176,166,153,209],"times":[1984,759,1125],"next_num":3,"trial_type":"ticket-choose","trial_index":73,"time_elapsed":1242593,"internal_node_id":"0.0-73.0"},{"result":153,"points":3,"place":0,"phase":1,"sequence":1,"prices":[175,186,176,210,179,187,163,166,153,208],"times":[971,1437,766,559,988,714,1093,655,931],"next_num":9,"trial_type":"ticket-choose","trial_index":74,"time_elapsed":1254335,"internal_node_id":"0.0-74.0"},{"result":153,"points":3,"place":0,"phase":1,"sequence":2,"prices":[174,186,176,217,181,187,163,166,153,209],"times":[923,483,418,622,2470,616,1462,550,1487],"next_num":9,"trial_type":"ticket-choose","trial_index":75,"time_elapsed":1267002,"internal_node_id":"0.0-75.0"},{"result":171,"points":1,"place":3,"phase":1,"sequence":3,"prices":[185,170,182,201,173,199,171,188,165,168],"times":[935,393,358,587,525,585,1488],"next_num":7,"trial_type":"ticket-choose","trial_index":76,"time_elapsed":1276530,"internal_node_id":"0.0-76.0"},{"result":156,"points":3,"place":0,"phase":1,"sequence":4,"prices":[174,186,167,211,181,188,178,168,208,156],"times":[504,562,1042,383,579,503,533,1071,540,807],"next_num":10,"trial_type":"ticket-choose","trial_index":77,"time_elapsed":1286709,"internal_node_id":"0.0-77.0"},{"result":167,"points":2,"place":1,"phase":1,"sequence":5,"prices":[175,185,178,215,181,186,167,168,208,156],"times":[1701,1189,817,771,959,1302,1210],"next_num":7,"trial_type":"ticket-choose","trial_index":78,"time_elapsed":1297777,"internal_node_id":"0.0-78.0"},{"result":165,"points":3,"place":0,"phase":1,"sequence":6,"prices":[192,165,171,178,188,217,172,195,197,186],"times":[3051,1206],"next_num":2,"trial_type":"ticket-choose","trial_index":79,"time_elapsed":1304135,"internal_node_id":"0.0-79.0"},{"result":156,"points":3,"place":0,"phase":1,"sequence":7,"prices":[175,185,167,224,181,186,178,168,208,156],"times":[674,501,659,508,611,607,525,819,622,1496],"next_num":10,"trial_type":"ticket-choose","trial_index":80,"time_elapsed":1315188,"internal_node_id":"0.0-80.0"},{"result":159,"points":1,"place":2,"phase":1,"sequence":8,"prices":[180,159,149,175,185,141,163,174,178,207],"times":[2393,1163],"next_num":2,"trial_type":"ticket-choose","trial_index":81,"time_elapsed":1320865,"internal_node_id":"0.0-81.0"},{"result":153,"points":3,"place":0,"phase":1,"sequence":9,"prices":[175,186,163,214,179,187,176,166,153,208],"times":[940,729,716,596,520,619,537,716,1492],"next_num":9,"trial_type":"ticket-choose","trial_index":82,"time_elapsed":1331620,"internal_node_id":"0.0-82.0"},{"result":147,"points":3,"place":0,"phase":1,"sequence":10,"prices":[181,215,169,147,182,193,177,184,176,179],"times":[1653,575,1175,1264],"next_num":4,"trial_type":"ticket-choose","trial_index":83,"time_elapsed":1338943,"internal_node_id":"0.0-83.0"},{"result":155,"points":2,"place":1,"phase":1,"sequence":11,"prices":[201,207,155,158,156,165,167,135,178,177],"times":[809,686,1441],"next_num":3,"trial_type":"ticket-choose","trial_index":84,"time_elapsed":1344091,"internal_node_id":"0.0-84.0"},{"result":152,"points":3,"place":0,"phase":1,"sequence":12,"prices":[200,181,203,152,175,171,160,154,176,191],"times":[1723,961,656,1038],"next_num":4,"trial_type":"ticket-choose","trial_index":85,"time_elapsed":1350972,"internal_node_id":"0.0-85.0"},{"result":167,"points":2,"place":1,"phase":1,"sequence":13,"prices":[174,186,178,217,181,188,167,168,208,156],"times":[1878,588,628,800,682,538,1163],"next_num":7,"trial_type":"ticket-choose","trial_index":86,"time_elapsed":1360324,"internal_node_id":"0.0-86.0"},{"result":163,"points":2,"place":1,"phase":1,"sequence":14,"prices":[175,187,176,209,180,188,163,165,154,208],"times":[979,600,484,622,641,631,1429],"next_num":7,"trial_type":"ticket-choose","trial_index":87,"time_elapsed":1369004,"internal_node_id":"0.0-87.0"},{"result":165,"points":3,"place":0,"phase":1,"sequence":15,"prices":[191,172,169,175,182,203,170,195,165,176],"times":[4711,913,751,680,710,608,834,721,1155],"next_num":9,"trial_type":"ticket-choose","trial_index":88,"time_elapsed":1383741,"internal_node_id":"0.0-88.0"},{"result":165,"points":3,"place":0,"phase":1,"sequence":16,"prices":[196,165,170,184,187,211,171,201,202,185],"times":[1123,1456],"next_num":2,"trial_type":"ticket-choose","trial_index":89,"time_elapsed":1388354,"internal_node_id":"0.0-89.0"},{"result":158,"points":2,"place":1,"phase":1,"sequence":17,"prices":[175,186,177,221,180,187,158,166,209,153],"times":[14736,535,489,602,641,636,970],"next_num":7,"trial_type":"ticket-choose","trial_index":90,"time_elapsed":1410784,"internal_node_id":"0.0-90.0"},{"result":163,"points":3,"place":0,"phase":1,"sequence":18,"prices":[168,199,196,198,185,195,227,163,177,166],"times":[1827,551,375,352,444,535,547,1043],"next_num":8,"trial_type":"ticket-choose","trial_index":91,"time_elapsed":1419769,"internal_node_id":"0.0-91.0"},{"result":143,"points":3,"place":0,"phase":1,"sequence":19,"prices":[222,173,202,197,143,205,198,183,178,186],"times":[3808,2576,1890,599,1373],"next_num":5,"trial_type":"ticket-choose","trial_index":92,"time_elapsed":1432646,"internal_node_id":"0.0-92.0"},{"result":155,"points":2,"place":1,"phase":1,"sequence":20,"prices":[181,155,148,161,168,187,172,199,176,194],"times":[1073,1314],"next_num":2,"trial_type":"ticket-choose","trial_index":93,"time_elapsed":1437112,"internal_node_id":"0.0-93.0"},{"result":165,"points":2,"place":1,"phase":1,"sequence":21,"prices":[201,165,162,166,185,214,165,202,204,179],"times":[16727,1178,730,6381,647,483,1204],"next_num":7,"trial_type":"ticket-choose","trial_index":94,"time_elapsed":1467630,"internal_node_id":"0.0-94.0"},{"result":153,"points":3,"place":0,"phase":1,"sequence":22,"prices":[176,187,158,210,181,187,177,165,208,153],"times":[1083,535,308,404,540,514,519,606,521,848],"next_num":10,"trial_type":"ticket-choose","trial_index":95,"time_elapsed":1477078,"internal_node_id":"0.0-95.0"},{"result":165,"points":2,"place":1,"phase":1,"sequence":23,"prices":[188,200,165,172,198,174,177,154,177,180],"times":[1593,1444,2131],"next_num":3,"trial_type":"ticket-choose","trial_index":96,"time_elapsed":1484514,"internal_node_id":"0.0-96.0"},{"result":188,"points":0,"place":5,"phase":1,"sequence":24,"prices":[193,169,171,187,190,224,174,194,165,188],"times":[1977,726,508,512,571,552,770,574,945,1011],"next_num":10,"trial_type":"ticket-choose","trial_index":97,"time_elapsed":1496344,"internal_node_id":"0.0-97.0"},{"result":165,"points":2,"place":1,"phase":1,"sequence":25,"prices":[175,187,165,209,180,188,177,166,154,208],"times":[7071,556,1106],"next_num":3,"trial_type":"ticket-choose","trial_index":98,"time_elapsed":1508184,"internal_node_id":"0.0-98.0"},{"result":153,"points":3,"place":0,"phase":1,"sequence":26,"prices":[175,186,177,210,179,187,165,166,153,208],"times":[739,536,518,506,508,547,1156,664,1013],"next_num":9,"trial_type":"ticket-choose","trial_index":99,"time_elapsed":1517793,"internal_node_id":"0.0-99.0"},{"result":164,"points":3,"place":0,"phase":1,"sequence":27,"prices":[212,192,188,184,167,193,189,164,176,170],"times":[9001,605,671,611,2333,1690,1231,1727],"next_num":8,"trial_type":"ticket-choose","trial_index":100,"time_elapsed":1538973,"internal_node_id":"0.0-100.0"},{"result":169,"points":1,"place":3,"phase":1,"sequence":28,"prices":[198,193,169,163,202,182,152,164,177,171],"times":[1689,733,1948],"next_num":3,"trial_type":"ticket-choose","trial_index":101,"time_elapsed":1545701,"internal_node_id":"0.0-101.0"},{"result":158,"points":3,"place":0,"phase":1,"sequence":29,"prices":[210,184,226,193,215,158,199,175,176,208],"times":[951,616,597,538,529,1289],"next_num":6,"trial_type":"ticket-choose","trial_index":102,"time_elapsed":1553841,"internal_node_id":"0.0-102.0"},{"result":153,"points":3,"place":0,"phase":1,"sequence":30,"prices":[175,186,167,225,179,187,178,169,209,153],"times":[4418,991,533,579,564,540,544,1474,547,686],"next_num":10,"trial_type":"ticket-choose","trial_index":103,"time_elapsed":1568361,"internal_node_id":"0.0-103.0"},{"result":165,"points":3,"place":0,"phase":1,"sequence":31,"prices":[193,165,175,181,185,224,180,199,218,184],"times":[995,1088],"next_num":2,"trial_type":"ticket-choose","trial_index":104,"time_elapsed":1572490,"internal_node_id":"0.0-104.0"},{"result":158,"points":2,"place":1,"phase":1,"sequence":32,"prices":[175,186,158,211,180,187,177,166,209,153],"times":[757,548,1599],"next_num":3,"trial_type":"ticket-choose","trial_index":105,"time_elapsed":1577554,"internal_node_id":"0.0-105.0"},{"result":158,"points":2,"place":1,"phase":1,"sequence":33,"prices":[175,186,158,209,181,188,177,167,208,154],"times":[624,503,936],"next_num":3,"trial_type":"ticket-choose","trial_index":106,"time_elapsed":1581792,"internal_node_id":"0.0-106.0"},{"result":165,"points":2,"place":1,"phase":1,"sequence":34,"prices":[175,187,177,209,180,188,165,165,154,208],"times":[730,2039,860,629,713,549,1146],"next_num":7,"trial_type":"ticket-choose","trial_index":107,"time_elapsed":1592051,"internal_node_id":"0.0-107.0"},{"result":154,"points":2,"place":1,"phase":1,"sequence":35,"prices":[168,154,172,185,195,144,184,211,177,227],"times":[6844,1051],"next_num":2,"trial_type":"ticket-choose","trial_index":108,"time_elapsed":1601906,"internal_node_id":"0.0-108.0"},{"result":153,"points":3,"place":0,"phase":1,"sequence":36,"prices":[175,186,165,214,179,187,177,166,153,208],"times":[1303,573,1087,488,534,3013,865,896,911],"next_num":9,"trial_type":"ticket-choose","trial_index":109,"time_elapsed":1615341,"internal_node_id":"0.0-109.0"},{"result":163,"points":2,"place":1,"phase":1,"sequence":37,"prices":[175,187,163,209,180,188,176,165,154,208],"times":[3205,584,1299],"next_num":3,"trial_type":"ticket-choose","trial_index":110,"time_elapsed":1622797,"internal_node_id":"0.0-110.0"},{"result":153,"points":3,"place":0,"phase":1,"sequence":38,"prices":[174,186,165,212,181,187,177,167,153,209],"times":[1041,525,924,580,653,1639,588,630,896],"next_num":9,"trial_type":"ticket-choose","trial_index":111,"time_elapsed":1633894,"internal_node_id":"0.0-111.0"},{"result":165,"points":3,"place":0,"phase":1,"sequence":39,"prices":[171,203,175,170,167,220,192,186,165,165],"times":[885,634,594,601,835,639,580,565,1276],"next_num":9,"trial_type":"ticket-choose","trial_index":112,"time_elapsed":1645195,"internal_node_id":"0.0-112.0"},{"result":163,"points":1,"place":2,"phase":1,"sequence":40,"prices":[183,163,185,180,166,148,160,186,176,184],"times":[2240,1151],"next_num":2,"trial_type":"ticket-choose","trial_index":113,"time_elapsed":1650687,"internal_node_id":"0.0-113.0"},{"result":180,"points":1,"place":4,"phase":1,"sequence":41,"prices":[200,165,165,173,182,207,161,202,204,180],"times":[791,580,600,558,599,611,684,594,569,1587],"next_num":10,"trial_type":"ticket-choose","trial_index":114,"time_elapsed":1661482,"internal_node_id":"0.0-114.0"},{"result":165,"points":3,"place":0,"phase":1,"sequence":42,"prices":[189,167,180,197,165,168,172,213,178,171],"times":[897,630,433,594,935],"next_num":5,"trial_type":"ticket-choose","trial_index":115,"time_elapsed":1667508,"internal_node_id":"0.0-115.0"},{"result":165,"points":2,"place":1,"phase":1,"sequence":43,"prices":[174,186,177,217,181,187,165,166,153,209],"times":[974,587,563,806,631,619,967],"next_num":7,"trial_type":"ticket-choose","trial_index":116,"time_elapsed":1675714,"internal_node_id":"0.0-116.0"},{"result":158,"points":2,"place":1,"phase":1,"sequence":44,"prices":[175,186,177,209,181,188,158,167,208,154],"times":[1258,1581,536,618,975,601,947],"next_num":7,"trial_type":"ticket-choose","trial_index":117,"time_elapsed":1687046,"internal_node_id":"0.0-117.0"},{"result":158,"points":2,"place":1,"phase":1,"sequence":45,"prices":[176,187,177,225,181,187,158,165,208,153],"times":[2262,585,760,921,753,542,1001],"next_num":7,"trial_type":"ticket-choose","trial_index":118,"time_elapsed":1697064,"internal_node_id":"0.0-118.0"},{"result":167,"points":2,"place":1,"phase":1,"sequence":46,"prices":[183,182,192,168,173,205,167,187,165,170],"times":[663,541,550,1029,1398,561,1024],"next_num":7,"trial_type":"ticket-choose","trial_index":119,"time_elapsed":1705845,"internal_node_id":"0.0-119.0"},{"result":150,"points":3,"place":0,"phase":1,"sequence":47,"prices":[189,150,175,160,188,207,158,194,178,199],"times":[1145,1023],"next_num":2,"trial_type":"ticket-choose","trial_index":120,"time_elapsed":1709916,"internal_node_id":"0.0-120.0"},{"result":170,"points":2,"place":1,"phase":1,"sequence":48,"prices":[201,187,157,184,198,179,188,185,178,170],"times":[649,478,924,501,572,590,528,638,530,924],"next_num":10,"trial_type":"ticket-choose","trial_index":121,"time_elapsed":1719849,"internal_node_id":"0.0-121.0"},{"result":167,"points":2,"place":1,"phase":1,"sequence":49,"prices":[175,186,178,212,179,187,167,169,209,153],"times":[991,528,544,564,581,577,1041],"next_num":7,"trial_type":"ticket-choose","trial_index":122,"time_elapsed":1727750,"internal_node_id":"0.0-122.0"},{"responses":[{"value":20,"offby":19,"category":"$115 - $130","category_index":0},{"value":10,"offby":5,"category":"$131 - $145","category_index":1},{"value":30,"offby":18,"category":"$146 - $160","category_index":2},{"value":20,"offby":-2,"category":"$161 - $175","category_index":3},{"value":10,"offby":-24,"category":"$176 - $190","category_index":4},{"value":5,"offby":-10,"category":"$191 - $205","category_index":5},{"value":5,"offby":-6,"category":"$206 - $220","category_index":6}],"phase":1,"number":1,"trial_type":"bar-choose","trial_index":123,"time_elapsed":1750140,"internal_node_id":"0.0-123.0"},{"special_comment":"Not at all!","trial_type":"special_sequence","trial_index":124,"time_elapsed":1758191,"internal_node_id":"0.0-124.0"},{"during":"Eating","bonus":276,"trial_type":"final","trial_index":125,"time_elapsed":1793312,"internal_node_id":"0.0-125.0"}],"bonus":276}