{"start_time":"2017-05-24 16:32:59","end_time":"2017-05-24 16:54:12","points_phase0":100,"points_phase1":103,"phase_order":0,"age":42,"gender":"m","tries":1,"during":"Nothing","worker_id":"AVXEDARJC5HLU","assignment_id":"3PZDLQMM0UEKYK82T3APCEB8XMF2C0","data":[{"rt":6575,"url":"\/christiane\/tickets\/utils\/consent.html","trial_type":"html","trial_index":0,"time_elapsed":6720,"internal_node_id":"0.0-0.0"},{"age":42,"gender":"m","trial_type":"age","trial_index":1,"time_elapsed":12128,"internal_node_id":"0.0-1.0"},{"worker_id":"AVXEDARJC5HLU","trial_type":"workerid","trial_index":2,"time_elapsed":25175,"internal_node_id":"0.0-2.0"},{"tries":1,"trial_type":"instructions_check","trial_index":3,"time_elapsed":43935,"internal_node_id":"0.0-3.0"},{"rt":11623,"url":"\/christiane\/tickets\/utils\/start.html","trial_type":"html","trial_index":4,"time_elapsed":56682,"internal_node_id":"0.0-4.0"},{"trial_type":"number-animation","trial_index":5,"time_elapsed":75380,"internal_node_id":"0.0-5.0"},{"phase":0,"sequence":0,"avg":181,"response":172,"trial_type":"training_avg","trial_index":6,"time_elapsed":87625,"internal_node_id":"0.0-6.0"},{"trial_type":"number-animation","trial_index":7,"time_elapsed":99485,"internal_node_id":"0.0-7.0"},{"phase":0,"sequence":1,"avg":188,"response":196,"trial_type":"training_avg","trial_index":8,"time_elapsed":109265,"internal_node_id":"0.0-8.0"},{"trial_type":"number-animation","trial_index":9,"time_elapsed":121165,"internal_node_id":"0.0-9.0"},{"phase":0,"sequence":2,"avg":188,"response":194,"trial_type":"training_avg","trial_index":10,"time_elapsed":129561,"internal_node_id":"0.0-10.0"},{"trial_type":"number-animation","trial_index":11,"time_elapsed":139721,"internal_node_id":"0.0-11.0"},{"phase":0,"sequence":3,"avg":177,"response":180,"trial_type":"training_avg","trial_index":12,"time_elapsed":149349,"internal_node_id":"0.0-12.0"},{"trial_type":"number-animation","trial_index":13,"time_elapsed":158965,"internal_node_id":"0.0-13.0"},{"phase":0,"sequence":4,"avg":182,"response":175,"trial_type":"training_avg","trial_index":14,"time_elapsed":165741,"internal_node_id":"0.0-14.0"},{"responses":[{"value":0,"offby":-1,"category":"$115 - $130","category_index":0},{"value":3,"offby":-2,"category":"$131 - $145","category_index":1},{"value":15,"offby":3,"category":"$146 - $160","category_index":2},{"value":35,"offby":13,"category":"$161 - $175","category_index":3},{"value":35,"offby":1,"category":"$176 - $190","category_index":4},{"value":6,"offby":-9,"category":"$191 - $205","category_index":5},{"value":6,"offby":-5,"category":"$206 - $220","category_index":6}],"phase":0,"number":0,"trial_type":"bar-choose","trial_index":15,"time_elapsed":229830,"internal_node_id":"0.0-15.0"},{"rt":10685,"url":"\/christiane\/tickets\/utils\/testing.html","trial_type":"html","trial_index":16,"time_elapsed":241589,"internal_node_id":"0.0-16.0"},{"phase":0,"order":[49,26,1,12,43,19,29,38,10,7,27,20,21,48,30,18,28,0,5,41,24,42,14,25,32,34,39,13,47,3,33,15,40,17,36,44,4,31,23,37,22,8,46,35,6,45,2,11,16,9],"trial_type":"store_order","trial_index":17,"time_elapsed":242590,"internal_node_id":"0.0-17.0"},{"result":165,"points":2,"place":1,"phase":0,"sequence":-1,"prices":[184,180,224,165,181,199,185,193,218,146],"times":[1673,1029,769,1770],"next_num":4,"trial_type":"ticket-choose","trial_index":18,"time_elapsed":251145,"internal_node_id":"0.0-18.0"},{"rt":11302,"url":"\/christiane\/tickets\/utils\/testing_after.html","trial_type":"html","trial_index":19,"time_elapsed":263541,"internal_node_id":"0.0-19.0"},{"result":163,"points":1,"place":2,"phase":0,"sequence":0,"prices":[183,163,185,180,166,148,160,186,176,184],"times":[1199,990],"next_num":2,"trial_type":"ticket-choose","trial_index":20,"time_elapsed":268541,"internal_node_id":"0.0-20.0"},{"result":161,"points":3,"place":0,"phase":0,"sequence":1,"prices":[200,165,165,173,182,207,161,202,204,180],"times":[1132,756,2088,558,606,610,1070],"next_num":7,"trial_type":"ticket-choose","trial_index":21,"time_elapsed":279076,"internal_node_id":"0.0-21.0"},{"result":168,"points":1,"place":2,"phase":0,"sequence":2,"prices":[175,185,167,224,181,186,178,168,208,156],"times":[743,482,895,590,833,462,827,1126],"next_num":8,"trial_type":"ticket-choose","trial_index":22,"time_elapsed":288860,"internal_node_id":"0.0-22.0"},{"result":163,"points":2,"place":1,"phase":0,"sequence":3,"prices":[175,186,163,214,179,187,176,166,153,208],"times":[789,819,967],"next_num":3,"trial_type":"ticket-choose","trial_index":23,"time_elapsed":293976,"internal_node_id":"0.0-23.0"},{"result":170,"points":2,"place":1,"phase":0,"sequence":4,"prices":[201,187,157,184,198,179,188,185,178,170],"times":[4623,1048,502,673,591,653,890,861,953,894],"next_num":10,"trial_type":"ticket-choose","trial_index":24,"time_elapsed":309836,"internal_node_id":"0.0-24.0"},{"result":158,"points":2,"place":1,"phase":0,"sequence":5,"prices":[175,186,158,209,181,188,177,167,208,154],"times":[1085,586,1167],"next_num":3,"trial_type":"ticket-choose","trial_index":25,"time_elapsed":315400,"internal_node_id":"0.0-25.0"},{"result":170,"points":1,"place":2,"phase":0,"sequence":6,"prices":[185,170,182,201,173,199,171,188,165,168],"times":[938,1154],"next_num":2,"trial_type":"ticket-choose","trial_index":26,"time_elapsed":319848,"internal_node_id":"0.0-26.0"},{"result":163,"points":3,"place":0,"phase":0,"sequence":7,"prices":[168,199,196,198,185,195,227,163,177,166],"times":[601,725,605,554,646,798,594,1014],"next_num":8,"trial_type":"ticket-choose","trial_index":27,"time_elapsed":328956,"internal_node_id":"0.0-27.0"},{"result":165,"points":2,"place":1,"phase":0,"sequence":8,"prices":[175,187,177,209,180,188,165,165,154,208],"times":[758,542,570,614,597,653,1259],"next_num":7,"trial_type":"ticket-choose","trial_index":28,"time_elapsed":337408,"internal_node_id":"0.0-28.0"},{"result":165,"points":2,"place":1,"phase":0,"sequence":9,"prices":[175,187,165,209,180,188,177,166,154,208],"times":[144658,535,1373],"next_num":3,"trial_type":"ticket-choose","trial_index":29,"time_elapsed":486976,"internal_node_id":"0.0-29.0"},{"result":165,"points":3,"place":0,"phase":0,"sequence":10,"prices":[192,165,171,178,188,217,172,195,197,186],"times":[1115,1085],"next_num":2,"trial_type":"ticket-choose","trial_index":30,"time_elapsed":491472,"internal_node_id":"0.0-30.0"},{"result":165,"points":1,"place":2,"phase":0,"sequence":11,"prices":[176,187,158,210,181,187,177,165,208,153],"times":[870,578,537,607,614,521,709,1082],"next_num":8,"trial_type":"ticket-choose","trial_index":31,"time_elapsed":500734,"internal_node_id":"0.0-31.0"},{"result":158,"points":2,"place":1,"phase":0,"sequence":12,"prices":[175,186,177,221,180,187,158,166,209,153],"times":[904,540,582,554,581,550,1225],"next_num":7,"trial_type":"ticket-choose","trial_index":32,"time_elapsed":509192,"internal_node_id":"0.0-32.0"},{"result":169,"points":2,"place":1,"phase":0,"sequence":13,"prices":[181,215,169,147,182,193,177,184,176,179],"times":[867,710,1337],"next_num":3,"trial_type":"ticket-choose","trial_index":33,"time_elapsed":514713,"internal_node_id":"0.0-33.0"},{"result":170,"points":1,"place":2,"phase":0,"sequence":14,"prices":[191,172,169,175,182,203,170,195,165,176],"times":[718,567,822,587,557,550,1332],"next_num":7,"trial_type":"ticket-choose","trial_index":34,"time_elapsed":523101,"internal_node_id":"0.0-34.0"},{"result":158,"points":2,"place":1,"phase":0,"sequence":15,"prices":[175,186,158,211,180,187,177,166,209,153],"times":[945,670,1242],"next_num":3,"trial_type":"ticket-choose","trial_index":35,"time_elapsed":528364,"internal_node_id":"0.0-35.0"},{"result":165,"points":3,"place":0,"phase":0,"sequence":16,"prices":[196,165,170,184,187,211,171,201,202,185],"times":[2229,1276],"next_num":2,"trial_type":"ticket-choose","trial_index":36,"time_elapsed":534280,"internal_node_id":"0.0-36.0"},{"result":167,"points":2,"place":1,"phase":0,"sequence":17,"prices":[174,186,167,211,181,188,178,168,208,156],"times":[11144,971,1058],"next_num":3,"trial_type":"ticket-choose","trial_index":37,"time_elapsed":549980,"internal_node_id":"0.0-37.0"},{"result":167,"points":2,"place":1,"phase":0,"sequence":18,"prices":[175,186,178,212,179,187,167,169,209,153],"times":[1152,548,583,585,583,669,1115],"next_num":7,"trial_type":"ticket-choose","trial_index":38,"time_elapsed":558656,"internal_node_id":"0.0-38.0"},{"result":155,"points":2,"place":1,"phase":0,"sequence":19,"prices":[201,207,155,158,156,165,167,135,178,177],"times":[1620,548,1170],"next_num":3,"trial_type":"ticket-choose","trial_index":39,"time_elapsed":564417,"internal_node_id":"0.0-39.0"},{"result":184,"points":1,"place":4,"phase":0,"sequence":20,"prices":[193,165,175,181,185,224,180,199,218,184],"times":[563,869,653,739,581,566,561,614,558,1450],"next_num":10,"trial_type":"ticket-choose","trial_index":40,"time_elapsed":575704,"internal_node_id":"0.0-40.0"},{"result":143,"points":3,"place":0,"phase":0,"sequence":21,"prices":[222,173,202,197,143,205,198,183,178,186],"times":[931,1374,578,613,1157],"next_num":5,"trial_type":"ticket-choose","trial_index":41,"time_elapsed":583220,"internal_node_id":"0.0-41.0"},{"result":163,"points":2,"place":1,"phase":0,"sequence":22,"prices":[174,186,163,212,181,187,176,166,153,209],"times":[1174,690,1173],"next_num":3,"trial_type":"ticket-choose","trial_index":42,"time_elapsed":588803,"internal_node_id":"0.0-42.0"},{"result":165,"points":2,"place":1,"phase":0,"sequence":23,"prices":[201,165,162,166,185,214,165,202,204,179],"times":[783,978],"next_num":2,"trial_type":"ticket-choose","trial_index":43,"time_elapsed":592887,"internal_node_id":"0.0-43.0"},{"result":165,"points":3,"place":0,"phase":0,"sequence":24,"prices":[193,169,171,187,190,224,174,194,165,188],"times":[959,958,546,598,527,558,858,950,1106],"next_num":9,"trial_type":"ticket-choose","trial_index":44,"time_elapsed":603696,"internal_node_id":"0.0-44.0"},{"result":155,"points":2,"place":1,"phase":0,"sequence":25,"prices":[181,155,148,161,168,187,172,199,176,194],"times":[1505,1281],"next_num":2,"trial_type":"ticket-choose","trial_index":45,"time_elapsed":608759,"internal_node_id":"0.0-45.0"},{"result":167,"points":2,"place":1,"phase":0,"sequence":26,"prices":[189,167,180,197,165,168,172,213,178,171],"times":[911,1470],"next_num":2,"trial_type":"ticket-choose","trial_index":46,"time_elapsed":613415,"internal_node_id":"0.0-46.0"},{"result":163,"points":2,"place":1,"phase":0,"sequence":27,"prices":[175,187,163,209,180,188,176,165,154,208],"times":[1348,522,1055],"next_num":3,"trial_type":"ticket-choose","trial_index":47,"time_elapsed":619127,"internal_node_id":"0.0-47.0"},{"result":152,"points":3,"place":0,"phase":0,"sequence":28,"prices":[200,181,203,152,175,171,160,154,176,191],"times":[1217,547,550,1191],"next_num":4,"trial_type":"ticket-choose","trial_index":48,"time_elapsed":625359,"internal_node_id":"0.0-48.0"},{"result":167,"points":2,"place":1,"phase":0,"sequence":29,"prices":[174,186,178,217,181,188,167,168,208,156],"times":[1265,581,526,630,698,558,1170],"next_num":7,"trial_type":"ticket-choose","trial_index":49,"time_elapsed":634067,"internal_node_id":"0.0-49.0"},{"result":168,"points":1,"place":2,"phase":0,"sequence":30,"prices":[183,182,192,168,173,205,167,187,165,170],"times":[684,750,805,1042],"next_num":4,"trial_type":"ticket-choose","trial_index":50,"time_elapsed":640051,"internal_node_id":"0.0-50.0"},{"result":163,"points":2,"place":1,"phase":0,"sequence":31,"prices":[175,186,176,210,179,187,163,166,153,208],"times":[681,575,615,594,541,614,1147],"next_num":7,"trial_type":"ticket-choose","trial_index":51,"time_elapsed":648423,"internal_node_id":"0.0-51.0"},{"result":160,"points":1,"place":2,"phase":0,"sequence":32,"prices":[189,150,175,160,188,207,158,194,178,199],"times":[997,582,554,1036],"next_num":4,"trial_type":"ticket-choose","trial_index":52,"time_elapsed":654191,"internal_node_id":"0.0-52.0"},{"result":163,"points":2,"place":1,"phase":0,"sequence":33,"prices":[174,186,176,217,181,187,163,166,153,209],"times":[658,567,651,629,639,583,1133],"next_num":7,"trial_type":"ticket-choose","trial_index":53,"time_elapsed":662495,"internal_node_id":"0.0-53.0"},{"result":165,"points":2,"place":1,"phase":0,"sequence":34,"prices":[188,200,165,172,198,174,177,154,177,180],"times":[775,655,1251],"next_num":3,"trial_type":"ticket-choose","trial_index":54,"time_elapsed":667771,"internal_node_id":"0.0-54.0"},{"result":159,"points":1,"place":2,"phase":0,"sequence":35,"prices":[180,159,149,175,185,141,163,174,178,207],"times":[861,1051],"next_num":2,"trial_type":"ticket-choose","trial_index":55,"time_elapsed":672307,"internal_node_id":"0.0-55.0"},{"result":167,"points":2,"place":1,"phase":0,"sequence":36,"prices":[175,185,178,215,181,186,167,168,208,156],"times":[1848,625,589,622,717,585,1046],"next_num":7,"trial_type":"ticket-choose","trial_index":56,"time_elapsed":681727,"internal_node_id":"0.0-56.0"},{"result":165,"points":3,"place":0,"phase":0,"sequence":37,"prices":[171,203,175,170,167,220,192,186,165,165],"times":[866,543,578,582,1094,675,583,770,1023],"next_num":9,"trial_type":"ticket-choose","trial_index":57,"time_elapsed":692167,"internal_node_id":"0.0-57.0"},{"result":158,"points":2,"place":1,"phase":0,"sequence":38,"prices":[176,187,177,225,181,187,158,165,208,153],"times":[851,510,713,607,556,580,1110],"next_num":7,"trial_type":"ticket-choose","trial_index":58,"time_elapsed":700563,"internal_node_id":"0.0-58.0"},{"result":163,"points":2,"place":1,"phase":0,"sequence":39,"prices":[198,193,169,163,202,182,152,164,177,171],"times":[696,526,514,1022],"next_num":4,"trial_type":"ticket-choose","trial_index":59,"time_elapsed":705802,"internal_node_id":"0.0-59.0"},{"result":158,"points":2,"place":1,"phase":0,"sequence":40,"prices":[175,186,177,209,181,188,158,167,208,154],"times":[474,879,630,563,596,567,1268],"next_num":7,"trial_type":"ticket-choose","trial_index":60,"time_elapsed":714190,"internal_node_id":"0.0-60.0"},{"result":165,"points":2,"place":1,"phase":0,"sequence":41,"prices":[174,186,165,212,181,187,177,167,153,209],"times":[1162,526,1450],"next_num":3,"trial_type":"ticket-choose","trial_index":61,"time_elapsed":719767,"internal_node_id":"0.0-61.0"},{"result":158,"points":3,"place":0,"phase":0,"sequence":42,"prices":[210,184,226,193,215,158,199,175,176,208],"times":[995,702,666,790,606,1218],"next_num":6,"trial_type":"ticket-choose","trial_index":62,"time_elapsed":728871,"internal_node_id":"0.0-62.0"},{"result":144,"points":3,"place":0,"phase":0,"sequence":43,"prices":[168,154,172,185,195,144,184,211,177,227],"times":[1207,522,235,649,518,1043],"next_num":6,"trial_type":"ticket-choose","trial_index":63,"time_elapsed":736166,"internal_node_id":"0.0-63.0"},{"result":165,"points":2,"place":1,"phase":0,"sequence":44,"prices":[175,186,165,214,179,187,177,166,153,208],"times":[1119,454,987],"next_num":3,"trial_type":"ticket-choose","trial_index":64,"time_elapsed":741255,"internal_node_id":"0.0-64.0"},{"result":167,"points":2,"place":1,"phase":0,"sequence":45,"prices":[212,192,188,184,167,193,189,164,176,170],"times":[579,537,562,551,938],"next_num":5,"trial_type":"ticket-choose","trial_index":65,"time_elapsed":747214,"internal_node_id":"0.0-65.0"},{"result":169,"points":1,"place":2,"phase":0,"sequence":46,"prices":[175,186,167,225,179,187,178,169,209,153],"times":[880,612,1530,581,638,594,566,1013],"next_num":8,"trial_type":"ticket-choose","trial_index":66,"time_elapsed":757158,"internal_node_id":"0.0-66.0"},{"result":165,"points":2,"place":1,"phase":0,"sequence":47,"prices":[174,186,177,217,181,187,165,166,153,209],"times":[557,577,567,853,711,570,1009],"next_num":7,"trial_type":"ticket-choose","trial_index":67,"time_elapsed":765843,"internal_node_id":"0.0-67.0"},{"result":163,"points":2,"place":1,"phase":0,"sequence":48,"prices":[175,187,176,209,180,188,163,165,154,208],"times":[1059,510,582,523,525,614,977],"next_num":7,"trial_type":"ticket-choose","trial_index":68,"time_elapsed":774280,"internal_node_id":"0.0-68.0"},{"result":165,"points":2,"place":1,"phase":0,"sequence":49,"prices":[175,186,177,210,179,187,165,166,153,208],"times":[826,766,678,730,549,574,1345],"next_num":7,"trial_type":"ticket-choose","trial_index":69,"time_elapsed":783211,"internal_node_id":"0.0-69.0"},{"responses":[{"value":0,"offby":-1,"category":"$115 - $130","category_index":0},{"value":9,"offby":4,"category":"$131 - $145","category_index":1},{"value":10,"offby":-2,"category":"$146 - $160","category_index":2},{"value":25,"offby":3,"category":"$161 - $175","category_index":3},{"value":35,"offby":1,"category":"$176 - $190","category_index":4},{"value":15,"offby":0,"category":"$191 - $205","category_index":5},{"value":6,"offby":-5,"category":"$206 - $220","category_index":6}],"phase":1,"number":1,"trial_type":"bar-choose","trial_index":70,"time_elapsed":817993,"internal_node_id":"0.0-70.0"},{"rt":9100,"url":"\/christiane\/tickets\/utils\/testing2.html","trial_type":"point_update","trial_index":71,"time_elapsed":828292,"internal_node_id":"0.0-71.0"},{"phase":1,"order":[17,22,3,46,39,43,23,8,0,12,30,47,40,16,33,20,42,32,10,38,19,48,34,37,18,21,29,5,44,4,15,49,35,11,14,2,36,28,1,27,41,13,24,45,6,31,25,26,9,7],"trial_type":"store_order","trial_index":72,"time_elapsed":829293,"internal_node_id":"0.0-72.0"},{"result":163,"points":2,"place":1,"phase":1,"sequence":0,"prices":[176,186,178,217,163,181,187,166,153,209],"times":[15114,793,745,648,1255],"next_num":5,"trial_type":"ticket-choose","trial_index":73,"time_elapsed":850915,"internal_node_id":"0.0-73.0"},{"result":167,"points":1,"place":2,"phase":1,"sequence":1,"prices":[177,175,186,209,158,181,188,167,208,154],"times":[1737,541,697,526,510,720,589,1083],"next_num":8,"trial_type":"ticket-choose","trial_index":74,"time_elapsed":860763,"internal_node_id":"0.0-74.0"},{"result":156,"points":3,"place":0,"phase":1,"sequence":2,"prices":[178,174,186,217,167,181,188,168,208,156],"times":[895,534,581,613,548,517,581,529,648,1004],"next_num":10,"trial_type":"ticket-choose","trial_index":75,"time_elapsed":871155,"internal_node_id":"0.0-75.0"},{"result":158,"points":3,"place":0,"phase":1,"sequence":3,"prices":[214,184,226,192,215,158,199,175,176,208],"times":[774,611,686,629,633,1054],"next_num":6,"trial_type":"ticket-choose","trial_index":76,"time_elapsed":878903,"internal_node_id":"0.0-76.0"},{"result":165,"points":3,"place":0,"phase":1,"sequence":4,"prices":[189,167,180,197,165,168,172,213,178,171],"times":[1112,482,438,469,1093],"next_num":5,"trial_type":"ticket-choose","trial_index":77,"time_elapsed":885359,"internal_node_id":"0.0-77.0"},{"result":157,"points":3,"place":0,"phase":1,"sequence":5,"prices":[201,187,157,184,198,179,188,185,178,170],"times":[831,385,1181],"next_num":3,"trial_type":"ticket-choose","trial_index":78,"time_elapsed":890149,"internal_node_id":"0.0-78.0"},{"result":158,"points":2,"place":1,"phase":1,"sequence":6,"prices":[177,176,187,225,158,181,187,165,208,153],"times":[528,498,499,582,1087],"next_num":5,"trial_type":"ticket-choose","trial_index":79,"time_elapsed":896150,"internal_node_id":"0.0-79.0"},{"result":153,"points":3,"place":0,"phase":1,"sequence":7,"prices":[165,174,186,212,177,181,187,166,153,209],"times":[1133,445,485,615,562,838,547,588,1119],"next_num":9,"trial_type":"ticket-choose","trial_index":80,"time_elapsed":906050,"internal_node_id":"0.0-80.0"},{"result":168,"points":1,"place":2,"phase":1,"sequence":8,"prices":[167,174,186,211,178,181,188,168,208,156],"times":[940,390,667,733,534,650,567,1102],"next_num":8,"trial_type":"ticket-choose","trial_index":81,"time_elapsed":915244,"internal_node_id":"0.0-81.0"},{"result":163,"points":2,"place":1,"phase":1,"sequence":9,"prices":[163,175,186,214,176,179,187,166,153,208],"times":[1305],"next_num":1,"trial_type":"ticket-choose","trial_index":82,"time_elapsed":918542,"internal_node_id":"0.0-82.0"},{"result":165,"points":2,"place":1,"phase":1,"sequence":10,"prices":[191,170,182,165,175,182,203,157,195,200],"times":[792,554,551,1123],"next_num":4,"trial_type":"ticket-choose","trial_index":83,"time_elapsed":924069,"internal_node_id":"0.0-83.0"},{"result":152,"points":3,"place":0,"phase":1,"sequence":11,"prices":[200,180,203,152,175,170,160,154,176,191],"times":[807,546,563,1102],"next_num":4,"trial_type":"ticket-choose","trial_index":84,"time_elapsed":929654,"internal_node_id":"0.0-84.0"},{"result":150,"points":3,"place":0,"phase":1,"sequence":12,"prices":[190,150,175,161,188,207,157,194,178,199],"times":[1180,991],"next_num":2,"trial_type":"ticket-choose","trial_index":85,"time_elapsed":934009,"internal_node_id":"0.0-85.0"},{"result":163,"points":2,"place":1,"phase":1,"sequence":13,"prices":[176,187,179,209,163,180,188,165,154,208],"times":[812,533,627,670,982],"next_num":5,"trial_type":"ticket-choose","trial_index":86,"time_elapsed":940518,"internal_node_id":"0.0-86.0"},{"result":159,"points":3,"place":0,"phase":1,"sequence":14,"prices":[183,179,188,165,168,173,205,159,187,191],"times":[487,554,566,526,858,725,574,1363],"next_num":8,"trial_type":"ticket-choose","trial_index":87,"time_elapsed":949538,"internal_node_id":"0.0-87.0"},{"result":158,"points":2,"place":1,"phase":1,"sequence":15,"prices":[158,176,187,210,177,181,187,165,208,153],"times":[1620],"next_num":1,"trial_type":"ticket-choose","trial_index":88,"time_elapsed":952997,"internal_node_id":"0.0-88.0"},{"result":186,"points":1,"place":4,"phase":1,"sequence":16,"prices":[220,173,201,197,169,205,198,183,178,186],"times":[837,574,679,515,759,566,584,773,795,749],"next_num":10,"trial_type":"ticket-choose","trial_index":89,"time_elapsed":963797,"internal_node_id":"0.0-89.0"},{"result":165,"points":2,"place":1,"phase":1,"sequence":17,"prices":[193,174,224,165,187,190,224,161,194,195],"times":[936,582,565,1034],"next_num":4,"trial_type":"ticket-choose","trial_index":90,"time_elapsed":969541,"internal_node_id":"0.0-90.0"},{"result":165,"points":2,"place":1,"phase":1,"sequence":18,"prices":[177,175,187,209,165,180,188,165,154,208],"times":[1660,430,530,598,1069],"next_num":5,"trial_type":"ticket-choose","trial_index":91,"time_elapsed":976570,"internal_node_id":"0.0-91.0"},{"result":163,"points":3,"place":0,"phase":1,"sequence":19,"prices":[163,199,196,199,185,195,227,163,177,166],"times":[1135],"next_num":1,"trial_type":"ticket-choose","trial_index":92,"time_elapsed":979433,"internal_node_id":"0.0-92.0"},{"result":158,"points":2,"place":1,"phase":1,"sequence":20,"prices":[158,175,186,209,177,181,188,167,208,154],"times":[1207],"next_num":1,"trial_type":"ticket-choose","trial_index":93,"time_elapsed":982718,"internal_node_id":"0.0-93.0"},{"result":169,"points":2,"place":1,"phase":1,"sequence":21,"prices":[181,214,169,147,182,193,178,184,176,179],"times":[1015,601,1097],"next_num":3,"trial_type":"ticket-choose","trial_index":94,"time_elapsed":988170,"internal_node_id":"0.0-94.0"},{"result":156,"points":2,"place":1,"phase":1,"sequence":22,"prices":[180,156,149,160,168,186,172,198,176,195],"times":[764,1450],"next_num":2,"trial_type":"ticket-choose","trial_index":95,"time_elapsed":992486,"internal_node_id":"0.0-95.0"},{"result":151,"points":3,"place":0,"phase":1,"sequence":23,"prices":[199,193,169,165,202,182,151,164,176,171],"times":[812,678,486,474,590,510,1196],"next_num":7,"trial_type":"ticket-choose","trial_index":96,"time_elapsed":1000978,"internal_node_id":"0.0-96.0"},{"result":158,"points":2,"place":1,"phase":1,"sequence":24,"prices":[158,175,186,211,177,180,187,166,209,153],"times":[15134],"next_num":1,"trial_type":"ticket-choose","trial_index":97,"time_elapsed":1018162,"internal_node_id":"0.0-97.0"},{"result":158,"points":2,"place":1,"phase":1,"sequence":25,"prices":[177,175,186,221,158,180,187,166,209,153],"times":[1496,527,501,662,944],"next_num":5,"trial_type":"ticket-choose","trial_index":98,"time_elapsed":1025269,"internal_node_id":"0.0-98.0"},{"result":165,"points":1,"place":2,"phase":1,"sequence":26,"prices":[185,179,191,165,161,173,199,150,188,168],"times":[1202,483,573,1318],"next_num":4,"trial_type":"ticket-choose","trial_index":99,"time_elapsed":1031469,"internal_node_id":"0.0-99.0"},{"result":169,"points":1,"place":2,"phase":1,"sequence":27,"prices":[178,175,186,212,167,179,187,169,209,153],"times":[903,514,622,583,626,629,573,977],"next_num":8,"trial_type":"ticket-choose","trial_index":100,"time_elapsed":1040362,"internal_node_id":"0.0-100.0"},{"result":159,"points":1,"place":2,"phase":1,"sequence":28,"prices":[181,159,149,175,185,151,163,174,178,207],"times":[895,1046],"next_num":2,"trial_type":"ticket-choose","trial_index":101,"time_elapsed":1044421,"internal_node_id":"0.0-101.0"},{"result":168,"points":1,"place":2,"phase":1,"sequence":29,"prices":[178,175,185,215,167,181,186,168,208,156],"times":[642,494,522,528,518,543,553,996],"next_num":8,"trial_type":"ticket-choose","trial_index":102,"time_elapsed":1052665,"internal_node_id":"0.0-102.0"},{"result":163,"points":2,"place":1,"phase":1,"sequence":30,"prices":[176,175,186,210,163,179,187,166,153,208],"times":[3260,758,534,601,1262],"next_num":5,"trial_type":"ticket-choose","trial_index":103,"time_elapsed":1061778,"internal_node_id":"0.0-103.0"},{"result":163,"points":1,"place":2,"phase":1,"sequence":31,"prices":[173,163,185,181,166,148,160,185,176,184],"times":[1965,1293],"next_num":2,"trial_type":"ticket-choose","trial_index":104,"time_elapsed":1067441,"internal_node_id":"0.0-104.0"},{"result":153,"points":2,"place":1,"phase":1,"sequence":32,"prices":[167,153,172,185,195,143,184,211,177,227],"times":[1015,969],"next_num":2,"trial_type":"ticket-choose","trial_index":105,"time_elapsed":1071678,"internal_node_id":"0.0-105.0"},{"result":165,"points":2,"place":1,"phase":1,"sequence":33,"prices":[177,174,186,217,165,181,187,166,153,209],"times":[604,791,647,593,1119],"next_num":5,"trial_type":"ticket-choose","trial_index":106,"time_elapsed":1078411,"internal_node_id":"0.0-106.0"},{"result":163,"points":2,"place":1,"phase":1,"sequence":34,"prices":[163,174,186,212,176,181,187,166,153,209],"times":[1098],"next_num":1,"trial_type":"ticket-choose","trial_index":107,"time_elapsed":1081422,"internal_node_id":"0.0-107.0"},{"result":167,"points":2,"place":1,"phase":1,"sequence":35,"prices":[167,175,186,225,178,179,187,169,209,153],"times":[935],"next_num":1,"trial_type":"ticket-choose","trial_index":108,"time_elapsed":1084210,"internal_node_id":"0.0-108.0"},{"result":165,"points":2,"place":1,"phase":1,"sequence":36,"prices":[187,201,165,172,196,174,178,154,172,180],"times":[896,571,911],"next_num":3,"trial_type":"ticket-choose","trial_index":109,"time_elapsed":1088974,"internal_node_id":"0.0-109.0"},{"result":165,"points":3,"place":0,"phase":1,"sequence":37,"prices":[196,171,170,184,187,165,211,169,201,202],"times":[810,869,576,511,527,1130],"next_num":6,"trial_type":"ticket-choose","trial_index":110,"time_elapsed":1096831,"internal_node_id":"0.0-110.0"},{"result":167,"points":2,"place":1,"phase":1,"sequence":38,"prices":[167,175,185,224,178,181,186,168,208,156],"times":[1309],"next_num":1,"trial_type":"ticket-choose","trial_index":111,"time_elapsed":1100030,"internal_node_id":"0.0-111.0"},{"result":165,"points":3,"place":0,"phase":1,"sequence":39,"prices":[192,172,171,178,188,165,217,168,195,197],"times":[1001,607,503,491,511,1006],"next_num":6,"trial_type":"ticket-choose","trial_index":112,"time_elapsed":1107050,"internal_node_id":"0.0-112.0"},{"result":155,"points":2,"place":1,"phase":1,"sequence":40,"prices":[200,207,155,158,156,168,167,135,178,177],"times":[799,563,1214],"next_num":3,"trial_type":"ticket-choose","trial_index":113,"time_elapsed":1112738,"internal_node_id":"0.0-113.0"},{"result":163,"points":2,"place":1,"phase":1,"sequence":41,"prices":[163,175,187,209,176,180,188,165,154,208],"times":[2355],"next_num":1,"trial_type":"ticket-choose","trial_index":114,"time_elapsed":1117558,"internal_node_id":"0.0-114.0"},{"result":165,"points":3,"place":0,"phase":1,"sequence":42,"prices":[193,181,175,181,185,165,224,199,218,184],"times":[1347,558,563,500,509,1011],"next_num":6,"trial_type":"ticket-choose","trial_index":115,"time_elapsed":1125307,"internal_node_id":"0.0-115.0"},{"result":167,"points":2,"place":1,"phase":1,"sequence":43,"prices":[199,191,188,174,167,193,189,164,176,170],"times":[691,689,463,493,987],"next_num":5,"trial_type":"ticket-choose","trial_index":116,"time_elapsed":1131369,"internal_node_id":"0.0-116.0"},{"result":165,"points":2,"place":1,"phase":1,"sequence":44,"prices":[165,175,186,214,177,179,187,166,153,208],"times":[1115],"next_num":1,"trial_type":"ticket-choose","trial_index":117,"time_elapsed":1134189,"internal_node_id":"0.0-117.0"},{"result":163,"points":2,"place":1,"phase":1,"sequence":45,"prices":[171,169,186,165,163,167,220,148,187,165],"times":[35486,441,426,421,1126],"next_num":5,"trial_type":"ticket-choose","trial_index":118,"time_elapsed":1175125,"internal_node_id":"0.0-118.0"},{"result":166,"points":1,"place":3,"phase":1,"sequence":46,"prices":[201,204,179,166,185,165,214,156,202,165],"times":[910,494,502,998],"next_num":4,"trial_type":"ticket-choose","trial_index":119,"time_elapsed":1180845,"internal_node_id":"0.0-119.0"},{"result":165,"points":1,"place":2,"phase":1,"sequence":47,"prices":[200,173,182,169,207,165,152,202,161,204],"times":[825,511,822,690,550,1166],"next_num":6,"trial_type":"ticket-choose","trial_index":120,"time_elapsed":1188409,"internal_node_id":"0.0-120.0"},{"result":165,"points":2,"place":1,"phase":1,"sequence":48,"prices":[177,175,186,210,165,179,187,166,153,208],"times":[727,466,471,557,1186],"next_num":5,"trial_type":"ticket-choose","trial_index":121,"time_elapsed":1194593,"internal_node_id":"0.0-121.0"},{"result":165,"points":2,"place":1,"phase":1,"sequence":49,"prices":[165,175,187,209,177,180,188,167,154,208],"times":[1120],"next_num":1,"trial_type":"ticket-choose","trial_index":122,"time_elapsed":1197974,"internal_node_id":"0.0-122.0"},{"responses":[{"value":2,"offby":1,"category":"$115 - $130","category_index":0},{"value":3,"offby":-2,"category":"$131 - $145","category_index":1},{"value":5,"offby":-7,"category":"$146 - $160","category_index":2},{"value":25,"offby":3,"category":"$161 - $175","category_index":3},{"value":35,"offby":1,"category":"$176 - $190","category_index":4},{"value":20,"offby":5,"category":"$191 - $205","category_index":5},{"value":10,"offby":-1,"category":"$206 - $220","category_index":6}],"phase":1,"number":1,"trial_type":"bar-choose","trial_index":123,"time_elapsed":1231627,"internal_node_id":"0.0-123.0"},{"special_comment":"no","trial_type":"special_sequence","trial_index":124,"time_elapsed":1254121,"internal_node_id":"0.0-124.0"},{"during":"Nothing","bonus":272,"trial_type":"final","trial_index":125,"time_elapsed":1269500,"internal_node_id":"0.0-125.0"}],"bonus":272}