{"start_time":"2017-05-24 15:58:47","end_time":"2017-05-24 16:30:03","points_phase0":118,"points_phase1":119,"phase_order":1,"age":33,"gender":"f","tries":1,"during":"Nothing","worker_id":"AWRRXY5ZCJM03","assignment_id":"36NEMU28XG6JJMI0KCTA3HW9V7DWMT","data":[{"rt":5219,"url":"\/christiane\/tickets\/utils\/consent.html","trial_type":"html","trial_index":0,"time_elapsed":5298,"internal_node_id":"0.0-0.0"},{"age":33,"gender":"f","trial_type":"age","trial_index":1,"time_elapsed":11644,"internal_node_id":"0.0-1.0"},{"worker_id":"AWRRXY5ZCJM03","trial_type":"workerid","trial_index":2,"time_elapsed":22763,"internal_node_id":"0.0-2.0"},{"tries":1,"trial_type":"instructions_check","trial_index":3,"time_elapsed":46793,"internal_node_id":"0.0-3.0"},{"rt":15827,"url":"\/christiane\/tickets\/utils\/start.html","trial_type":"html","trial_index":4,"time_elapsed":63781,"internal_node_id":"0.0-4.0"},{"trial_type":"number-animation","trial_index":5,"time_elapsed":116400,"internal_node_id":"0.0-5.0"},{"phase":0,"sequence":0,"avg":181,"response":180,"trial_type":"training_avg","trial_index":6,"time_elapsed":181052,"internal_node_id":"0.0-6.0"},{"trial_type":"number-animation","trial_index":7,"time_elapsed":244216,"internal_node_id":"0.0-7.0"},{"phase":0,"sequence":1,"avg":188,"response":183,"trial_type":"training_avg","trial_index":8,"time_elapsed":277188,"internal_node_id":"0.0-8.0"},{"trial_type":"number-animation","trial_index":9,"time_elapsed":319913,"internal_node_id":"0.0-9.0"},{"phase":0,"sequence":2,"avg":188,"response":188,"trial_type":"training_avg","trial_index":10,"time_elapsed":330865,"internal_node_id":"0.0-10.0"},{"trial_type":"number-animation","trial_index":11,"time_elapsed":369428,"internal_node_id":"0.0-11.0"},{"phase":0,"sequence":3,"avg":177,"response":176,"trial_type":"training_avg","trial_index":12,"time_elapsed":380436,"internal_node_id":"0.0-12.0"},{"trial_type":"number-animation","trial_index":13,"time_elapsed":425262,"internal_node_id":"0.0-13.0"},{"phase":0,"sequence":4,"avg":182,"response":182,"trial_type":"training_avg","trial_index":14,"time_elapsed":440266,"internal_node_id":"0.0-14.0"},{"responses":[{"value":0,"offby":-1,"category":"$115 - $130","category_index":0},{"value":10,"offby":5,"category":"$131 - $145","category_index":1},{"value":15,"offby":3,"category":"$146 - $160","category_index":2},{"value":34,"offby":12,"category":"$161 - $175","category_index":3},{"value":28,"offby":-6,"category":"$176 - $190","category_index":4},{"value":10,"offby":-5,"category":"$191 - $205","category_index":5},{"value":3,"offby":-8,"category":"$206 - $220","category_index":6}],"phase":0,"number":0,"trial_type":"bar-choose","trial_index":15,"time_elapsed":536457,"internal_node_id":"0.0-15.0"},{"rt":13714,"url":"\/christiane\/tickets\/utils\/testing.html","trial_type":"html","trial_index":16,"time_elapsed":551445,"internal_node_id":"0.0-16.0"},{"phase":0,"order":[12,27,42,48,37,35,32,7,20,0,23,38,9,4,8,46,11,5,21,36,16,39,19,18,24,43,26,49,31,15,1,2,17,22,30,14,10,29,40,47,41,45,33,44,28,13,34,6,25,3],"trial_type":"store_order","trial_index":17,"time_elapsed":552469,"internal_node_id":"0.0-17.0"},{"result":146,"points":3,"place":0,"phase":0,"sequence":-1,"prices":[184,180,224,165,181,199,185,193,218,146],"times":[8102,840,713,2656,1104,653,626,1666,727,1581],"next_num":10,"trial_type":"ticket-choose","trial_index":18,"time_elapsed":577070,"internal_node_id":"0.0-18.0"},{"rt":10458,"url":"\/christiane\/tickets\/utils\/testing_after.html","trial_type":"html","trial_index":19,"time_elapsed":589198,"internal_node_id":"0.0-19.0"},{"result":148,"points":3,"place":0,"phase":0,"sequence":0,"prices":[173,163,185,181,166,148,160,185,176,184],"times":[2271,1364,791,1345,636,1381],"next_num":6,"trial_type":"ticket-choose","trial_index":20,"time_elapsed":601693,"internal_node_id":"0.0-20.0"},{"result":159,"points":3,"place":0,"phase":0,"sequence":1,"prices":[183,179,188,165,168,173,205,159,187,191],"times":[1348,1282,896,1188,4844,977,802,1779],"next_num":8,"trial_type":"ticket-choose","trial_index":21,"time_elapsed":618733,"internal_node_id":"0.0-21.0"},{"result":153,"points":3,"place":0,"phase":0,"sequence":2,"prices":[163,175,186,214,176,179,187,166,153,208],"times":[2659,659,591,654,1555,753,1197,1706,1029],"next_num":9,"trial_type":"ticket-choose","trial_index":22,"time_elapsed":634006,"internal_node_id":"0.0-22.0"},{"result":156,"points":3,"place":0,"phase":0,"sequence":3,"prices":[178,174,186,217,167,181,188,168,208,156],"times":[716,1312,555,634,608,605,593,1124,820,1081],"next_num":10,"trial_type":"ticket-choose","trial_index":23,"time_elapsed":647257,"internal_node_id":"0.0-23.0"},{"result":154,"points":3,"place":0,"phase":0,"sequence":4,"prices":[176,187,179,209,163,180,188,165,154,208],"times":[2315,1161,637,559,1885,781,590,1023,1105],"next_num":9,"trial_type":"ticket-choose","trial_index":24,"time_elapsed":662755,"internal_node_id":"0.0-24.0"},{"result":150,"points":3,"place":0,"phase":0,"sequence":5,"prices":[185,179,191,165,161,173,199,150,188,168],"times":[1277,1045,953,800,568,608,762,1008],"next_num":8,"trial_type":"ticket-choose","trial_index":25,"time_elapsed":674477,"internal_node_id":"0.0-25.0"},{"result":156,"points":3,"place":0,"phase":0,"sequence":6,"prices":[201,204,179,166,185,165,214,156,202,165],"times":[1023,1338,983,704,589,1339,619,966],"next_num":8,"trial_type":"ticket-choose","trial_index":26,"time_elapsed":687093,"internal_node_id":"0.0-26.0"},{"result":156,"points":2,"place":1,"phase":0,"sequence":7,"prices":[180,156,149,160,168,186,172,198,176,195],"times":[891,1151],"next_num":2,"trial_type":"ticket-choose","trial_index":27,"time_elapsed":691853,"internal_node_id":"0.0-27.0"},{"result":153,"points":3,"place":0,"phase":0,"sequence":8,"prices":[176,175,186,210,163,179,187,166,153,208],"times":[1544,662,1321,584,604,624,1002,1165,974],"next_num":9,"trial_type":"ticket-choose","trial_index":28,"time_elapsed":704141,"internal_node_id":"0.0-28.0"},{"result":158,"points":2,"place":1,"phase":0,"sequence":9,"prices":[158,175,186,209,177,181,188,167,208,154],"times":[1043],"next_num":1,"trial_type":"ticket-choose","trial_index":29,"time_elapsed":708253,"internal_node_id":"0.0-29.0"},{"result":152,"points":3,"place":0,"phase":0,"sequence":10,"prices":[200,180,203,152,175,170,160,154,176,191],"times":[733,728,656,1006],"next_num":4,"trial_type":"ticket-choose","trial_index":30,"time_elapsed":714317,"internal_node_id":"0.0-30.0"},{"result":176,"points":1,"place":2,"phase":0,"sequence":11,"prices":[181,214,169,147,182,193,178,184,176,179],"times":[1657,630,1136,539,1313,846,630,987,2380],"next_num":9,"trial_type":"ticket-choose","trial_index":31,"time_elapsed":730760,"internal_node_id":"0.0-31.0"},{"result":158,"points":2,"place":1,"phase":0,"sequence":12,"prices":[177,175,186,209,158,181,188,167,208,154],"times":[1270,838,1054,562,1040],"next_num":5,"trial_type":"ticket-choose","trial_index":32,"time_elapsed":739286,"internal_node_id":"0.0-32.0"},{"result":157,"points":3,"place":0,"phase":0,"sequence":13,"prices":[201,187,157,184,198,179,188,185,178,170],"times":[529,592,1708],"next_num":3,"trial_type":"ticket-choose","trial_index":33,"time_elapsed":744565,"internal_node_id":"0.0-33.0"},{"result":153,"points":3,"place":0,"phase":0,"sequence":14,"prices":[178,175,186,212,167,179,187,169,209,153],"times":[653,925,813,1097,1019,654,1307,894,1512,734],"next_num":10,"trial_type":"ticket-choose","trial_index":34,"time_elapsed":758909,"internal_node_id":"0.0-34.0"},{"result":153,"points":3,"place":0,"phase":0,"sequence":15,"prices":[165,174,186,212,177,181,187,166,153,209],"times":[1575,574,586,1373,1035,1030,623,950,1947],"next_num":9,"trial_type":"ticket-choose","trial_index":35,"time_elapsed":772317,"internal_node_id":"0.0-35.0"},{"result":170,"points":1,"place":2,"phase":0,"sequence":16,"prices":[199,191,188,174,167,193,189,164,176,170],"times":[975,704,914,1187,658,678,1676,1861,772,1081],"next_num":10,"trial_type":"ticket-choose","trial_index":36,"time_elapsed":787573,"internal_node_id":"0.0-36.0"},{"result":159,"points":1,"place":2,"phase":0,"sequence":17,"prices":[181,159,149,175,185,151,163,174,178,207],"times":[935,2197],"next_num":2,"trial_type":"ticket-choose","trial_index":37,"time_elapsed":793356,"internal_node_id":"0.0-37.0"},{"result":153,"points":3,"place":0,"phase":0,"sequence":18,"prices":[177,174,186,217,165,181,187,166,153,209],"times":[1119,922,612,520,559,567,1174,935,1256],"next_num":9,"trial_type":"ticket-choose","trial_index":38,"time_elapsed":805781,"internal_node_id":"0.0-38.0"},{"result":157,"points":3,"place":0,"phase":0,"sequence":19,"prices":[191,170,182,165,175,182,203,157,195,200],"times":[1181,651,551,1128,555,625,1199,1327],"next_num":8,"trial_type":"ticket-choose","trial_index":39,"time_elapsed":817772,"internal_node_id":"0.0-39.0"},{"result":184,"points":1,"place":4,"phase":0,"sequence":20,"prices":[193,181,175,181,185,165,224,199,218,184],"times":[1144,772,741,664,544,845,672,609,1076,736],"next_num":10,"trial_type":"ticket-choose","trial_index":40,"time_elapsed":830900,"internal_node_id":"0.0-40.0"},{"result":153,"points":3,"place":0,"phase":0,"sequence":21,"prices":[176,186,178,217,163,181,187,166,153,209],"times":[783,556,1201,929,722,557,604,1127,982],"next_num":9,"trial_type":"ticket-choose","trial_index":41,"time_elapsed":842828,"internal_node_id":"0.0-41.0"},{"result":195,"points":0,"place":7,"phase":0,"sequence":22,"prices":[193,174,224,165,187,190,224,161,194,195],"times":[770,1054,528,1158,557,757,623,1207,553,756],"next_num":10,"trial_type":"ticket-choose","trial_index":42,"time_elapsed":856632,"internal_node_id":"0.0-42.0"},{"result":166,"points":1,"place":2,"phase":0,"sequence":23,"prices":[163,199,196,199,185,195,227,163,177,166],"times":[1147,512,751,686,771,567,604,1501,578,663],"next_num":10,"trial_type":"ticket-choose","trial_index":43,"time_elapsed":869486,"internal_node_id":"0.0-43.0"},{"result":153,"points":3,"place":0,"phase":0,"sequence":24,"prices":[167,175,186,225,178,179,187,169,209,153],"times":[865,733,622,1427,568,598,839,1538,598,598],"next_num":10,"trial_type":"ticket-choose","trial_index":44,"time_elapsed":884334,"internal_node_id":"0.0-44.0"},{"result":158,"points":2,"place":1,"phase":0,"sequence":25,"prices":[177,176,187,225,158,181,187,165,208,153],"times":[1139,572,655,931,1290],"next_num":5,"trial_type":"ticket-choose","trial_index":45,"time_elapsed":892972,"internal_node_id":"0.0-45.0"},{"result":158,"points":2,"place":1,"phase":0,"sequence":26,"prices":[177,175,186,221,158,180,187,166,209,153],"times":[758,674,568,1254,831],"next_num":5,"trial_type":"ticket-choose","trial_index":46,"time_elapsed":901063,"internal_node_id":"0.0-46.0"},{"result":153,"points":3,"place":0,"phase":0,"sequence":27,"prices":[165,175,186,214,177,179,187,166,153,208],"times":[824,589,582,1503,716,541,1178,1245,1079],"next_num":9,"trial_type":"ticket-choose","trial_index":47,"time_elapsed":913634,"internal_node_id":"0.0-47.0"},{"result":158,"points":3,"place":0,"phase":0,"sequence":28,"prices":[214,184,226,192,215,158,199,175,176,208],"times":[1388,626,1102,549,962,1800],"next_num":6,"trial_type":"ticket-choose","trial_index":48,"time_elapsed":923644,"internal_node_id":"0.0-48.0"},{"result":155,"points":2,"place":1,"phase":0,"sequence":29,"prices":[200,207,155,158,156,168,167,135,178,177],"times":[935,931,993],"next_num":3,"trial_type":"ticket-choose","trial_index":49,"time_elapsed":929556,"internal_node_id":"0.0-49.0"},{"result":156,"points":3,"place":0,"phase":0,"sequence":30,"prices":[178,175,185,215,167,181,186,168,208,156],"times":[596,569,582,590,1415,596,590,2015,899,1077],"next_num":10,"trial_type":"ticket-choose","trial_index":50,"time_elapsed":943149,"internal_node_id":"0.0-50.0"},{"result":154,"points":3,"place":0,"phase":0,"sequence":31,"prices":[187,201,165,172,196,174,178,154,172,180],"times":[854,845,989,558,558,971,1865,984],"next_num":8,"trial_type":"ticket-choose","trial_index":51,"time_elapsed":954851,"internal_node_id":"0.0-51.0"},{"result":202,"points":0,"place":8,"phase":0,"sequence":32,"prices":[196,171,170,184,187,165,211,169,201,202],"times":[1547,653,1009,824,552,863,641,701,913,812],"next_num":10,"trial_type":"ticket-choose","trial_index":52,"time_elapsed":968716,"internal_node_id":"0.0-52.0"},{"result":154,"points":3,"place":0,"phase":0,"sequence":33,"prices":[163,175,187,209,176,180,188,165,154,208],"times":[994,750,547,502,715,5877,838,1069,1101],"next_num":9,"trial_type":"ticket-choose","trial_index":53,"time_elapsed":986827,"internal_node_id":"0.0-53.0"},{"result":156,"points":3,"place":0,"phase":0,"sequence":34,"prices":[167,175,185,224,178,181,186,168,208,156],"times":[827,630,964,974,554,709,638,1872,630,1069],"next_num":10,"trial_type":"ticket-choose","trial_index":54,"time_elapsed":1000253,"internal_node_id":"0.0-54.0"},{"result":153,"points":3,"place":0,"phase":0,"sequence":35,"prices":[177,175,186,210,165,179,187,166,153,208],"times":[1009,1510,582,1107,892,522,592,1036,1117],"next_num":9,"trial_type":"ticket-choose","trial_index":55,"time_elapsed":1013742,"internal_node_id":"0.0-55.0"},{"result":154,"points":3,"place":0,"phase":0,"sequence":36,"prices":[177,175,187,209,165,180,188,165,154,208],"times":[1248,931,574,543,1391,1059,757,1184,1230],"next_num":9,"trial_type":"ticket-choose","trial_index":56,"time_elapsed":1027060,"internal_node_id":"0.0-56.0"},{"result":153,"points":3,"place":0,"phase":0,"sequence":37,"prices":[163,174,186,212,176,181,187,166,153,209],"times":[1148,1033,635,549,1279,527,869,1173,894],"next_num":9,"trial_type":"ticket-choose","trial_index":57,"time_elapsed":1039204,"internal_node_id":"0.0-57.0"},{"result":171,"points":1,"place":3,"phase":0,"sequence":38,"prices":[189,167,180,197,165,168,172,213,178,171],"times":[464,1303,1222,579,759,1357,1452,817,1088,1246],"next_num":10,"trial_type":"ticket-choose","trial_index":58,"time_elapsed":1054540,"internal_node_id":"0.0-58.0"},{"result":151,"points":3,"place":0,"phase":0,"sequence":39,"prices":[199,193,169,165,202,182,151,164,176,171],"times":[1598,590,1129,809,702,630,1181],"next_num":7,"trial_type":"ticket-choose","trial_index":59,"time_elapsed":1065347,"internal_node_id":"0.0-59.0"},{"result":153,"points":2,"place":1,"phase":0,"sequence":40,"prices":[167,153,172,185,195,143,184,211,177,227],"times":[1107,1084],"next_num":2,"trial_type":"ticket-choose","trial_index":60,"time_elapsed":1069851,"internal_node_id":"0.0-60.0"},{"result":154,"points":3,"place":0,"phase":0,"sequence":41,"prices":[165,175,187,209,177,180,188,167,154,208],"times":[1175,952,499,706,868,1238,558,765,1035],"next_num":9,"trial_type":"ticket-choose","trial_index":61,"time_elapsed":1081939,"internal_node_id":"0.0-61.0"},{"result":197,"points":0,"place":8,"phase":0,"sequence":42,"prices":[192,172,171,178,188,165,217,168,195,197],"times":[1160,540,1089,507,1226,688,919,874,815,1363],"next_num":10,"trial_type":"ticket-choose","trial_index":62,"time_elapsed":1094876,"internal_node_id":"0.0-62.0"},{"result":156,"points":3,"place":0,"phase":0,"sequence":43,"prices":[167,174,186,211,178,181,188,168,208,156],"times":[876,549,2127,1366,694,549,1182,883,1011,846],"next_num":10,"trial_type":"ticket-choose","trial_index":63,"time_elapsed":1109484,"internal_node_id":"0.0-63.0"},{"result":158,"points":2,"place":1,"phase":0,"sequence":44,"prices":[158,175,186,211,177,180,187,166,209,153],"times":[1115],"next_num":1,"trial_type":"ticket-choose","trial_index":64,"time_elapsed":1112891,"internal_node_id":"0.0-64.0"},{"result":148,"points":3,"place":0,"phase":0,"sequence":45,"prices":[171,169,186,165,163,167,220,148,187,165],"times":[704,1170,1503,1074,606,640,1218,1036],"next_num":8,"trial_type":"ticket-choose","trial_index":65,"time_elapsed":1125956,"internal_node_id":"0.0-65.0"},{"result":186,"points":1,"place":4,"phase":0,"sequence":46,"prices":[220,173,201,197,169,205,198,183,178,186],"times":[885,725,1814,523,710,628,558,1612,647,727],"next_num":10,"trial_type":"ticket-choose","trial_index":66,"time_elapsed":1140170,"internal_node_id":"0.0-66.0"},{"result":158,"points":2,"place":1,"phase":0,"sequence":47,"prices":[158,176,187,210,177,181,187,165,208,153],"times":[1253],"next_num":1,"trial_type":"ticket-choose","trial_index":67,"time_elapsed":1143236,"internal_node_id":"0.0-67.0"},{"result":152,"points":3,"place":0,"phase":0,"sequence":48,"prices":[200,173,182,169,207,165,152,202,161,204],"times":[2914,1032,624,1026,584,1083,888],"next_num":7,"trial_type":"ticket-choose","trial_index":68,"time_elapsed":1155291,"internal_node_id":"0.0-68.0"},{"result":150,"points":3,"place":0,"phase":0,"sequence":49,"prices":[190,150,175,161,188,207,157,194,178,199],"times":[867,1101],"next_num":2,"trial_type":"ticket-choose","trial_index":69,"time_elapsed":1159883,"internal_node_id":"0.0-69.0"},{"responses":[{"value":5,"offby":4,"category":"$115 - $130","category_index":0},{"value":15,"offby":10,"category":"$131 - $145","category_index":1},{"value":15,"offby":3,"category":"$146 - $160","category_index":2},{"value":20,"offby":-2,"category":"$161 - $175","category_index":3},{"value":15,"offby":-19,"category":"$176 - $190","category_index":4},{"value":15,"offby":0,"category":"$191 - $205","category_index":5},{"value":15,"offby":4,"category":"$206 - $220","category_index":6}],"phase":1,"number":1,"trial_type":"bar-choose","trial_index":70,"time_elapsed":1198870,"internal_node_id":"0.0-70.0"},{"rt":20455,"url":"\/christiane\/tickets\/utils\/testing2.html","trial_type":"point_update","trial_index":71,"time_elapsed":1221424,"internal_node_id":"0.0-71.0"},{"phase":1,"order":[49,33,12,3,16,29,25,34,15,19,47,48,22,43,5,8,45,44,11,30,24,17,32,38,2,23,21,6,46,41,4,36,28,13,1,9,10,14,39,37,35,7,27,0,18,31,42,20,26,40],"trial_type":"store_order","trial_index":72,"time_elapsed":1222431,"internal_node_id":"0.0-72.0"},{"result":153,"points":3,"place":0,"phase":1,"sequence":0,"prices":[175,186,163,214,179,187,176,166,153,208],"times":[1021,1035,669,509,595,632,1058,1440,910],"next_num":9,"trial_type":"ticket-choose","trial_index":73,"time_elapsed":1234579,"internal_node_id":"0.0-73.0"},{"result":186,"points":1,"place":4,"phase":1,"sequence":1,"prices":[192,165,171,178,188,217,172,195,197,186],"times":[860,542,590,494,492,583,580,947,595,567],"next_num":10,"trial_type":"ticket-choose","trial_index":74,"time_elapsed":1245051,"internal_node_id":"0.0-74.0"},{"result":143,"points":3,"place":0,"phase":1,"sequence":2,"prices":[222,173,202,197,143,205,198,183,178,186],"times":[1552,608,518,556,1514],"next_num":5,"trial_type":"ticket-choose","trial_index":75,"time_elapsed":1252579,"internal_node_id":"0.0-75.0"},{"result":176,"points":1,"place":2,"phase":1,"sequence":3,"prices":[181,215,169,147,182,193,177,184,176,179],"times":[1916,801,1467,1025,916,572,668,1222,1488],"next_num":9,"trial_type":"ticket-choose","trial_index":76,"time_elapsed":1266915,"internal_node_id":"0.0-76.0"},{"result":152,"points":3,"place":0,"phase":1,"sequence":4,"prices":[198,193,169,163,202,182,152,164,177,171],"times":[634,629,1724,735,590,662,1110],"next_num":7,"trial_type":"ticket-choose","trial_index":77,"time_elapsed":1276394,"internal_node_id":"0.0-77.0"},{"result":154,"points":2,"place":1,"phase":1,"sequence":5,"prices":[168,154,172,185,195,144,184,211,177,227],"times":[1558,1157],"next_num":2,"trial_type":"ticket-choose","trial_index":78,"time_elapsed":1282099,"internal_node_id":"0.0-78.0"},{"result":188,"points":0,"place":5,"phase":1,"sequence":6,"prices":[193,169,171,187,190,224,174,194,165,188],"times":[794,519,1502,1117,543,783,588,674,1168,677],"next_num":10,"trial_type":"ticket-choose","trial_index":79,"time_elapsed":1297010,"internal_node_id":"0.0-79.0"},{"result":154,"points":3,"place":0,"phase":1,"sequence":7,"prices":[175,187,165,209,180,188,177,166,154,208],"times":[1234,583,1084,484,1053,524,658,900,970],"next_num":9,"trial_type":"ticket-choose","trial_index":80,"time_elapsed":1308642,"internal_node_id":"0.0-80.0"},{"result":158,"points":2,"place":1,"phase":1,"sequence":8,"prices":[176,187,158,210,181,187,177,165,208,153],"times":[1209,773,1165],"next_num":3,"trial_type":"ticket-choose","trial_index":81,"time_elapsed":1314387,"internal_node_id":"0.0-81.0"},{"result":156,"points":3,"place":0,"phase":1,"sequence":9,"prices":[174,186,167,211,181,188,178,168,208,156],"times":[2148,1148,608,812,650,541,517,1351,641,569],"next_num":10,"trial_type":"ticket-choose","trial_index":82,"time_elapsed":1329427,"internal_node_id":"0.0-82.0"},{"result":158,"points":2,"place":1,"phase":1,"sequence":10,"prices":[176,187,177,225,181,187,158,165,208,153],"times":[3536,724,1170,654,572,527,1109],"next_num":7,"trial_type":"ticket-choose","trial_index":83,"time_elapsed":1341618,"internal_node_id":"0.0-83.0"},{"result":163,"points":3,"place":0,"phase":1,"sequence":11,"prices":[168,199,196,198,185,195,227,163,177,166],"times":[5563,655,650,1489,735,638,858,1534],"next_num":8,"trial_type":"ticket-choose","trial_index":84,"time_elapsed":1358027,"internal_node_id":"0.0-84.0"},{"result":153,"points":3,"place":0,"phase":1,"sequence":12,"prices":[175,186,177,210,179,187,165,166,153,208],"times":[1423,542,539,500,1276,569,1050,1173,1247],"next_num":9,"trial_type":"ticket-choose","trial_index":85,"time_elapsed":1372236,"internal_node_id":"0.0-85.0"},{"result":156,"points":3,"place":0,"phase":1,"sequence":13,"prices":[175,185,178,215,181,186,167,168,208,156],"times":[2318,1355,569,729,509,1347,526,1078,583,854],"next_num":10,"trial_type":"ticket-choose","trial_index":86,"time_elapsed":1386747,"internal_node_id":"0.0-86.0"},{"result":153,"points":3,"place":0,"phase":1,"sequence":14,"prices":[174,186,165,212,181,187,177,167,153,209],"times":[1187,678,1269,735,669,487,1986,995,901],"next_num":9,"trial_type":"ticket-choose","trial_index":87,"time_elapsed":1399887,"internal_node_id":"0.0-87.0"},{"result":158,"points":3,"place":0,"phase":1,"sequence":15,"prices":[210,184,226,193,215,158,199,175,176,208],"times":[1054,554,683,487,1228,1070],"next_num":6,"trial_type":"ticket-choose","trial_index":88,"time_elapsed":1408322,"internal_node_id":"0.0-88.0"},{"result":153,"points":3,"place":0,"phase":1,"sequence":16,"prices":[174,186,177,217,181,187,165,166,153,209],"times":[1410,495,1285,519,983,1070,1874,669,1110],"next_num":9,"trial_type":"ticket-choose","trial_index":89,"time_elapsed":1422198,"internal_node_id":"0.0-89.0"},{"result":153,"points":3,"place":0,"phase":1,"sequence":17,"prices":[175,186,178,212,179,187,167,169,209,153],"times":[6012,612,1342,560,605,555,1097,1001,687,1281],"next_num":10,"trial_type":"ticket-choose","trial_index":90,"time_elapsed":1439642,"internal_node_id":"0.0-90.0"},{"result":158,"points":2,"place":1,"phase":1,"sequence":18,"prices":[175,186,177,221,180,187,158,166,209,153],"times":[4621,868,484,677,540,644,1037],"next_num":7,"trial_type":"ticket-choose","trial_index":91,"time_elapsed":1453051,"internal_node_id":"0.0-91.0"},{"result":154,"points":3,"place":0,"phase":1,"sequence":19,"prices":[188,200,165,172,198,174,177,154,177,180],"times":[1554,915,577,615,3717,678,694,1315],"next_num":8,"trial_type":"ticket-choose","trial_index":92,"time_elapsed":1466823,"internal_node_id":"0.0-92.0"},{"result":154,"points":3,"place":0,"phase":1,"sequence":20,"prices":[175,187,176,209,180,188,163,165,154,208],"times":[854,588,1519,1169,479,825,706,691,1446],"next_num":9,"trial_type":"ticket-choose","trial_index":93,"time_elapsed":1479458,"internal_node_id":"0.0-93.0"},{"result":171,"points":1,"place":3,"phase":1,"sequence":21,"prices":[189,167,180,197,165,168,172,213,178,171],"times":[792,485,908,504,675,876,1295,598,615,629],"next_num":10,"trial_type":"ticket-choose","trial_index":94,"time_elapsed":1491824,"internal_node_id":"0.0-94.0"},{"result":154,"points":3,"place":0,"phase":1,"sequence":22,"prices":[175,186,158,209,181,188,177,167,208,154],"times":[1838,1561,438,789,628,754,893,1116,605,676],"next_num":10,"trial_type":"ticket-choose","trial_index":95,"time_elapsed":1505755,"internal_node_id":"0.0-95.0"},{"result":158,"points":2,"place":1,"phase":1,"sequence":23,"prices":[175,186,158,211,180,187,177,166,209,153],"times":[1136,513,1443],"next_num":3,"trial_type":"ticket-choose","trial_index":96,"time_elapsed":1511848,"internal_node_id":"0.0-96.0"},{"result":184,"points":1,"place":4,"phase":1,"sequence":24,"prices":[193,165,175,181,185,224,180,199,218,184],"times":[1157,677,531,604,566,1187,618,607,1271,851],"next_num":11,"trial_type":"ticket-choose","trial_index":97,"time_elapsed":1526836,"internal_node_id":"0.0-97.0"},{"result":157,"points":3,"place":0,"phase":1,"sequence":25,"prices":[201,187,157,184,198,179,188,185,178,170],"times":[1199,769,952],"next_num":3,"trial_type":"ticket-choose","trial_index":98,"time_elapsed":1533178,"internal_node_id":"0.0-98.0"},{"result":180,"points":1,"place":4,"phase":1,"sequence":26,"prices":[200,165,165,173,182,207,161,202,204,180],"times":[1075,1219,517,749,540,930,1594,589,1061,713],"next_num":10,"trial_type":"ticket-choose","trial_index":99,"time_elapsed":1547246,"internal_node_id":"0.0-99.0"},{"result":148,"points":3,"place":0,"phase":1,"sequence":27,"prices":[183,163,185,180,166,148,160,186,176,184],"times":[753,469,1572,570,550,1289],"next_num":6,"trial_type":"ticket-choose","trial_index":100,"time_elapsed":1555637,"internal_node_id":"0.0-100.0"},{"result":165,"points":3,"place":0,"phase":1,"sequence":28,"prices":[171,203,175,170,167,220,192,186,165,165],"times":[1105,542,645,650,1360,564,888,772,957],"next_num":9,"trial_type":"ticket-choose","trial_index":101,"time_elapsed":1567857,"internal_node_id":"0.0-101.0"},{"result":153,"points":3,"place":0,"phase":1,"sequence":29,"prices":[175,186,176,210,179,187,163,166,153,208],"times":[708,1113,565,515,1079,519,1368,513,1557],"next_num":9,"trial_type":"ticket-choose","trial_index":102,"time_elapsed":1580018,"internal_node_id":"0.0-102.0"},{"result":156,"points":3,"place":0,"phase":1,"sequence":30,"prices":[175,185,167,224,181,186,178,168,208,156],"times":[718,1170,516,967,1293,519,1129,976,836,605],"next_num":10,"trial_type":"ticket-choose","trial_index":103,"time_elapsed":1593786,"internal_node_id":"0.0-103.0"},{"result":153,"points":3,"place":0,"phase":1,"sequence":31,"prices":[175,186,167,225,179,187,178,169,209,153],"times":[1453,1150,522,1425,2196,578,1020,1377,589,582],"next_num":10,"trial_type":"ticket-choose","trial_index":104,"time_elapsed":1610245,"internal_node_id":"0.0-104.0"},{"result":163,"points":2,"place":1,"phase":1,"sequence":32,"prices":[174,186,176,217,181,187,163,166,153,209],"times":[525,649,541,1135,1025,495,1175],"next_num":7,"trial_type":"ticket-choose","trial_index":105,"time_elapsed":1619585,"internal_node_id":"0.0-105.0"},{"result":158,"points":2,"place":1,"phase":1,"sequence":33,"prices":[175,186,177,209,181,188,158,167,208,154],"times":[1501,474,1146,430,1341,466,1242],"next_num":7,"trial_type":"ticket-choose","trial_index":106,"time_elapsed":1629425,"internal_node_id":"0.0-106.0"},{"result":165,"points":3,"place":0,"phase":1,"sequence":34,"prices":[191,172,169,175,182,203,170,195,165,176],"times":[851,565,580,543,1176,943,672,1200,1097],"next_num":9,"trial_type":"ticket-choose","trial_index":107,"time_elapsed":1642537,"internal_node_id":"0.0-107.0"},{"result":153,"points":3,"place":0,"phase":1,"sequence":35,"prices":[174,186,163,212,181,187,176,166,153,209],"times":[894,955,1884,798,572,946,1284,892,902],"next_num":9,"trial_type":"ticket-choose","trial_index":108,"time_elapsed":1655257,"internal_node_id":"0.0-108.0"},{"result":154,"points":3,"place":0,"phase":1,"sequence":36,"prices":[175,187,177,209,180,188,165,165,154,208],"times":[606,1272,451,1217,527,518,1394,1305,936],"next_num":9,"trial_type":"ticket-choose","trial_index":109,"time_elapsed":1668304,"internal_node_id":"0.0-109.0"},{"result":168,"points":2,"place":1,"phase":1,"sequence":37,"prices":[185,170,182,201,173,199,171,188,165,168],"times":[632,886,541,606,530,1350,853,560,1123,659],"next_num":10,"trial_type":"ticket-choose","trial_index":110,"time_elapsed":1682547,"internal_node_id":"0.0-110.0"},{"result":160,"points":1,"place":2,"phase":1,"sequence":38,"prices":[189,150,175,160,188,207,158,194,178,199],"times":[848,619,1463,1059],"next_num":4,"trial_type":"ticket-choose","trial_index":111,"time_elapsed":1689698,"internal_node_id":"0.0-111.0"},{"result":152,"points":3,"place":0,"phase":1,"sequence":39,"prices":[200,181,203,152,175,171,160,154,176,191],"times":[544,678,511,1295],"next_num":4,"trial_type":"ticket-choose","trial_index":112,"time_elapsed":1696041,"internal_node_id":"0.0-112.0"},{"result":155,"points":2,"place":1,"phase":1,"sequence":40,"prices":[201,207,155,158,156,165,167,135,178,177],"times":[691,891,856],"next_num":3,"trial_type":"ticket-choose","trial_index":113,"time_elapsed":1701177,"internal_node_id":"0.0-113.0"},{"result":164,"points":3,"place":0,"phase":1,"sequence":41,"prices":[212,192,188,184,167,193,189,164,176,170],"times":[552,1278,1197,569,564,1362,568,1246],"next_num":8,"trial_type":"ticket-choose","trial_index":114,"time_elapsed":1712889,"internal_node_id":"0.0-114.0"},{"result":165,"points":3,"place":0,"phase":1,"sequence":42,"prices":[183,182,192,168,173,205,167,187,165,170],"times":[828,609,565,1002,510,1184,1465,621,1063],"next_num":9,"trial_type":"ticket-choose","trial_index":115,"time_elapsed":1725314,"internal_node_id":"0.0-115.0"},{"result":159,"points":1,"place":2,"phase":1,"sequence":43,"prices":[180,159,149,175,185,141,163,174,178,207],"times":[593,1214],"next_num":2,"trial_type":"ticket-choose","trial_index":116,"time_elapsed":1729498,"internal_node_id":"0.0-116.0"},{"result":185,"points":1,"place":4,"phase":1,"sequence":44,"prices":[196,165,170,184,187,211,171,201,202,185],"times":[524,959,926,493,713,530,1200,621,602,819],"next_num":10,"trial_type":"ticket-choose","trial_index":117,"time_elapsed":1741849,"internal_node_id":"0.0-117.0"},{"result":154,"points":3,"place":0,"phase":1,"sequence":45,"prices":[175,187,163,209,180,188,176,165,154,208],"times":[891,536,629,724,498,1230,584,2165,1045],"next_num":9,"trial_type":"ticket-choose","trial_index":118,"time_elapsed":1755070,"internal_node_id":"0.0-118.0"},{"result":155,"points":2,"place":1,"phase":1,"sequence":46,"prices":[181,155,148,161,168,187,172,199,176,194],"times":[1210,1270],"next_num":2,"trial_type":"ticket-choose","trial_index":119,"time_elapsed":1759817,"internal_node_id":"0.0-119.0"},{"result":153,"points":3,"place":0,"phase":1,"sequence":47,"prices":[175,186,165,214,179,187,177,166,153,208],"times":[1200,515,1060,541,949,543,983,620,1307],"next_num":9,"trial_type":"ticket-choose","trial_index":120,"time_elapsed":1771585,"internal_node_id":"0.0-120.0"},{"result":179,"points":1,"place":4,"phase":1,"sequence":48,"prices":[201,165,162,166,185,214,165,202,204,179],"times":[920,1260,1422,500,510,1246,527,1370,746,528],"next_num":10,"trial_type":"ticket-choose","trial_index":121,"time_elapsed":1784633,"internal_node_id":"0.0-121.0"},{"result":156,"points":3,"place":0,"phase":1,"sequence":49,"prices":[174,186,178,217,181,188,167,168,208,156],"times":[2347,1083,1086,515,501,557,527,909,631,655],"next_num":10,"trial_type":"ticket-choose","trial_index":122,"time_elapsed":1799241,"internal_node_id":"0.0-122.0"},{"responses":[{"value":5,"offby":4,"category":"$115 - $130","category_index":0},{"value":15,"offby":10,"category":"$131 - $145","category_index":1},{"value":15,"offby":3,"category":"$146 - $160","category_index":2},{"value":20,"offby":-2,"category":"$161 - $175","category_index":3},{"value":15,"offby":-19,"category":"$176 - $190","category_index":4},{"value":15,"offby":0,"category":"$191 - $205","category_index":5},{"value":15,"offby":4,"category":"$206 - $220","category_index":6}],"phase":1,"number":1,"trial_type":"bar-choose","trial_index":123,"time_elapsed":1824810,"internal_node_id":"0.0-123.0"},{"special_comment":"Most of them had a ticket in the 150s","trial_type":"special_sequence","trial_index":124,"time_elapsed":1841578,"internal_node_id":"0.0-124.0"},{"during":"Nothing","bonus":316,"trial_type":"final","trial_index":125,"time_elapsed":1866654,"internal_node_id":"0.0-125.0"}],"bonus":316}