{"start_time":"2017-05-24 15:28:26","end_time":"2017-05-24 15:50:00","points_phase0":106,"points_phase1":125,"phase_order":1,"age":25,"gender":"f","tries":1,"during":"Nothing","worker_id":"AWTGJ45ZWUCHH","assignment_id":"3ON104KXQLP3FWTUE8TEHNF99GT4W7","data":[{"rt":10336,"url":"\/christiane\/tickets\/utils\/consent.html","trial_type":"html","trial_index":0,"time_elapsed":10422,"internal_node_id":"0.0-0.0"},{"age":25,"gender":"f","trial_type":"age","trial_index":1,"time_elapsed":18248,"internal_node_id":"0.0-1.0"},{"worker_id":"AWTGJ45ZWUCHH","trial_type":"workerid","trial_index":2,"time_elapsed":29976,"internal_node_id":"0.0-2.0"},{"tries":1,"trial_type":"instructions_check","trial_index":3,"time_elapsed":36306,"internal_node_id":"0.0-3.0"},{"rt":1732,"url":"\/christiane\/tickets\/utils\/start.html","trial_type":"html","trial_index":4,"time_elapsed":39176,"internal_node_id":"0.0-4.0"},{"trial_type":"number-animation","trial_index":5,"time_elapsed":48420,"internal_node_id":"0.0-5.0"},{"phase":0,"sequence":0,"avg":181,"response":185,"trial_type":"training_avg","trial_index":6,"time_elapsed":54306,"internal_node_id":"0.0-6.0"},{"trial_type":"number-animation","trial_index":7,"time_elapsed":60789,"internal_node_id":"0.0-7.0"},{"phase":0,"sequence":1,"avg":188,"response":187,"trial_type":"training_avg","trial_index":8,"time_elapsed":65516,"internal_node_id":"0.0-8.0"},{"trial_type":"number-animation","trial_index":9,"time_elapsed":72781,"internal_node_id":"0.0-9.0"},{"phase":0,"sequence":2,"avg":188,"response":189,"trial_type":"training_avg","trial_index":10,"time_elapsed":77101,"internal_node_id":"0.0-10.0"},{"trial_type":"number-animation","trial_index":11,"time_elapsed":84338,"internal_node_id":"0.0-11.0"},{"phase":0,"sequence":3,"avg":177,"response":177,"trial_type":"training_avg","trial_index":12,"time_elapsed":91011,"internal_node_id":"0.0-12.0"},{"trial_type":"number-animation","trial_index":13,"time_elapsed":98612,"internal_node_id":"0.0-13.0"},{"phase":0,"sequence":4,"avg":182,"response":180,"trial_type":"training_avg","trial_index":14,"time_elapsed":103001,"internal_node_id":"0.0-14.0"},{"responses":[{"value":0,"offby":-1,"category":"$115 - $130","category_index":0},{"value":0,"offby":-5,"category":"$131 - $145","category_index":1},{"value":0,"offby":-12,"category":"$146 - $160","category_index":2},{"value":0,"offby":-22,"category":"$161 - $175","category_index":3},{"value":100,"offby":66,"category":"$176 - $190","category_index":4},{"value":0,"offby":-15,"category":"$191 - $205","category_index":5},{"value":0,"offby":-11,"category":"$206 - $220","category_index":6}],"phase":0,"number":0,"trial_type":"bar-choose","trial_index":15,"time_elapsed":114792,"internal_node_id":"0.0-15.0"},{"rt":1307,"url":"\/christiane\/tickets\/utils\/testing.html","trial_type":"html","trial_index":16,"time_elapsed":117250,"internal_node_id":"0.0-16.0"},{"phase":0,"order":[42,34,17,40,16,43,47,10,28,38,33,4,29,11,20,19,46,2,7,3,12,49,9,36,18,21,32,6,37,45,15,22,14,48,41,13,25,26,8,1,24,35,23,0,31,30,39,44,27,5],"trial_type":"store_order","trial_index":17,"time_elapsed":118436,"internal_node_id":"0.0-17.0"},{"result":146,"points":3,"place":0,"phase":0,"sequence":-1,"prices":[184,180,224,165,181,199,185,193,218,146],"times":[2061,445,360,817,560,742,557,550,660,735],"next_num":10,"trial_type":"ticket-choose","trial_index":18,"time_elapsed":129884,"internal_node_id":"0.0-18.0"},{"rt":671,"url":"\/christiane\/tickets\/utils\/testing_after.html","trial_type":"html","trial_index":19,"time_elapsed":131714,"internal_node_id":"0.0-19.0"},{"result":158,"points":2,"place":1,"phase":0,"sequence":0,"prices":[177,175,186,209,158,181,188,167,208,154],"times":[762,576,554,554,864],"next_num":5,"trial_type":"ticket-choose","trial_index":20,"time_elapsed":137652,"internal_node_id":"0.0-20.0"},{"result":167,"points":2,"place":1,"phase":0,"sequence":1,"prices":[178,175,185,215,167,181,186,168,208,156],"times":[1258,336,448,403,865],"next_num":5,"trial_type":"ticket-choose","trial_index":21,"time_elapsed":143446,"internal_node_id":"0.0-21.0"},{"result":158,"points":2,"place":1,"phase":0,"sequence":2,"prices":[158,175,186,209,177,181,188,167,208,154],"times":[2055],"next_num":1,"trial_type":"ticket-choose","trial_index":22,"time_elapsed":147321,"internal_node_id":"0.0-22.0"},{"result":154,"points":2,"place":1,"phase":0,"sequence":3,"prices":[200,180,203,152,175,170,160,154,176,191],"times":[1752,522,526,397,469,470,477,837],"next_num":8,"trial_type":"ticket-choose","trial_index":23,"time_elapsed":156081,"internal_node_id":"0.0-23.0"},{"result":165,"points":1,"place":2,"phase":0,"sequence":4,"prices":[176,187,179,209,163,180,188,165,154,208],"times":[1432,510,654,578,463,576,508,915],"next_num":8,"trial_type":"ticket-choose","trial_index":24,"time_elapsed":165040,"internal_node_id":"0.0-24.0"},{"result":164,"points":3,"place":0,"phase":0,"sequence":5,"prices":[199,191,188,174,167,193,189,164,176,170],"times":[1520,539,374,360,855,479,554,1299],"next_num":8,"trial_type":"ticket-choose","trial_index":25,"time_elapsed":174317,"internal_node_id":"0.0-25.0"},{"result":165,"points":2,"place":1,"phase":0,"sequence":6,"prices":[177,175,187,209,165,180,188,165,154,208],"times":[1428,509,522,520,795],"next_num":5,"trial_type":"ticket-choose","trial_index":26,"time_elapsed":180623,"internal_node_id":"0.0-26.0"},{"result":176,"points":1,"place":2,"phase":0,"sequence":7,"prices":[181,214,169,147,182,193,178,184,176,179],"times":[508,405,776,550,597,574,569,558,751],"next_num":9,"trial_type":"ticket-choose","trial_index":27,"time_elapsed":189249,"internal_node_id":"0.0-27.0"},{"result":151,"points":3,"place":0,"phase":0,"sequence":8,"prices":[199,193,169,165,202,182,151,164,176,171],"times":[1333,569,831,1559,568,606,951],"next_num":7,"trial_type":"ticket-choose","trial_index":28,"time_elapsed":198673,"internal_node_id":"0.0-28.0"},{"result":159,"points":1,"place":2,"phase":0,"sequence":9,"prices":[181,159,149,175,185,151,163,174,178,207],"times":[1445,1223],"next_num":2,"trial_type":"ticket-choose","trial_index":29,"time_elapsed":203257,"internal_node_id":"0.0-29.0"},{"result":184,"points":1,"place":4,"phase":0,"sequence":10,"prices":[193,181,175,181,185,165,224,199,218,184],"times":[1107,586,473,546,519,1260,538,522,537,619],"next_num":10,"trial_type":"ticket-choose","trial_index":30,"time_elapsed":213554,"internal_node_id":"0.0-30.0"},{"result":166,"points":1,"place":2,"phase":0,"sequence":11,"prices":[165,175,186,214,177,179,187,166,153,208],"times":[1082,506,514,539,535,535,513,860],"next_num":8,"trial_type":"ticket-choose","trial_index":31,"time_elapsed":221827,"internal_node_id":"0.0-31.0"},{"result":165,"points":1,"place":2,"phase":0,"sequence":12,"prices":[163,175,187,209,176,180,188,165,154,208],"times":[1496,519,457,559,631,525,624,901],"next_num":8,"trial_type":"ticket-choose","trial_index":32,"time_elapsed":230693,"internal_node_id":"0.0-32.0"},{"result":158,"points":2,"place":1,"phase":0,"sequence":13,"prices":[177,176,187,225,158,181,187,165,208,153],"times":[1995,641,529,519,917],"next_num":5,"trial_type":"ticket-choose","trial_index":33,"time_elapsed":237838,"internal_node_id":"0.0-33.0"},{"result":153,"points":3,"place":0,"phase":0,"sequence":14,"prices":[167,175,186,225,178,179,187,169,209,153],"times":[1996,504,508,551,545,558,512,929,649,617],"next_num":10,"trial_type":"ticket-choose","trial_index":34,"time_elapsed":248802,"internal_node_id":"0.0-34.0"},{"result":160,"points":2,"place":1,"phase":0,"sequence":15,"prices":[173,163,185,181,166,148,160,185,176,184],"times":[1307,1026,477,516,435,503,653],"next_num":7,"trial_type":"ticket-choose","trial_index":35,"time_elapsed":256710,"internal_node_id":"0.0-35.0"},{"result":163,"points":2,"place":1,"phase":0,"sequence":16,"prices":[171,169,186,165,163,167,220,148,187,165],"times":[1875,734,536,1530,1167],"next_num":5,"trial_type":"ticket-choose","trial_index":36,"time_elapsed":265049,"internal_node_id":"0.0-36.0"},{"result":197,"points":0,"place":8,"phase":0,"sequence":17,"prices":[192,172,171,178,188,165,217,168,195,197],"times":[1246,577,671,602,608,1666,565,538,1126,599],"next_num":10,"trial_type":"ticket-choose","trial_index":37,"time_elapsed":277217,"internal_node_id":"0.0-37.0"},{"result":150,"points":3,"place":0,"phase":0,"sequence":18,"prices":[190,150,175,161,188,207,157,194,178,199],"times":[1003,886],"next_num":2,"trial_type":"ticket-choose","trial_index":38,"time_elapsed":281144,"internal_node_id":"0.0-38.0"},{"result":167,"points":2,"place":1,"phase":0,"sequence":19,"prices":[178,175,186,212,167,179,187,169,209,153],"times":[479,554,636,525,856],"next_num":5,"trial_type":"ticket-choose","trial_index":39,"time_elapsed":286745,"internal_node_id":"0.0-39.0"},{"result":167,"points":2,"place":1,"phase":0,"sequence":20,"prices":[189,167,180,197,165,168,172,213,178,171],"times":[2012,856],"next_num":2,"trial_type":"ticket-choose","trial_index":40,"time_elapsed":291648,"internal_node_id":"0.0-40.0"},{"result":169,"points":3,"place":0,"phase":0,"sequence":21,"prices":[220,173,201,197,169,205,198,183,178,186],"times":[1243,582,503,502,840],"next_num":5,"trial_type":"ticket-choose","trial_index":41,"time_elapsed":298049,"internal_node_id":"0.0-41.0"},{"result":165,"points":3,"place":0,"phase":0,"sequence":22,"prices":[196,171,170,184,187,165,211,169,201,202],"times":[1457,754,1251,563,572,1011],"next_num":6,"trial_type":"ticket-choose","trial_index":42,"time_elapsed":306408,"internal_node_id":"0.0-42.0"},{"result":156,"points":3,"place":0,"phase":0,"sequence":23,"prices":[178,174,186,217,167,181,188,168,208,156],"times":[1491,581,601,610,1581,617,575,495,791,558],"next_num":10,"trial_type":"ticket-choose","trial_index":43,"time_elapsed":317916,"internal_node_id":"0.0-43.0"},{"result":158,"points":2,"place":1,"phase":0,"sequence":24,"prices":[177,175,186,221,158,180,187,166,209,153],"times":[1101,641,545,616,963],"next_num":5,"trial_type":"ticket-choose","trial_index":44,"time_elapsed":324980,"internal_node_id":"0.0-44.0"},{"result":159,"points":3,"place":0,"phase":0,"sequence":25,"prices":[183,179,188,165,168,173,205,159,187,191],"times":[1496,517,514,952,562,529,586,807],"next_num":8,"trial_type":"ticket-choose","trial_index":45,"time_elapsed":334167,"internal_node_id":"0.0-45.0"},{"result":154,"points":3,"place":0,"phase":0,"sequence":26,"prices":[187,201,165,172,196,174,178,154,172,180],"times":[1637,504,852,566,561,559,549,858],"next_num":8,"trial_type":"ticket-choose","trial_index":46,"time_elapsed":343467,"internal_node_id":"0.0-46.0"},{"result":163,"points":3,"place":0,"phase":0,"sequence":27,"prices":[163,199,196,199,185,195,227,163,177,166],"times":[2526],"next_num":1,"trial_type":"ticket-choose","trial_index":47,"time_elapsed":347727,"internal_node_id":"0.0-47.0"},{"result":163,"points":2,"place":1,"phase":0,"sequence":28,"prices":[163,175,186,214,176,179,187,166,153,208],"times":[1271],"next_num":1,"trial_type":"ticket-choose","trial_index":48,"time_elapsed":350800,"internal_node_id":"0.0-48.0"},{"result":158,"points":2,"place":1,"phase":0,"sequence":29,"prices":[158,175,186,211,177,180,187,166,209,153],"times":[1077],"next_num":1,"trial_type":"ticket-choose","trial_index":49,"time_elapsed":353582,"internal_node_id":"0.0-49.0"},{"result":170,"points":2,"place":1,"phase":0,"sequence":30,"prices":[201,187,157,184,198,179,188,185,178,170],"times":[792,607,1103,531,507,539,528,548,564,601],"next_num":10,"trial_type":"ticket-choose","trial_index":50,"time_elapsed":363518,"internal_node_id":"0.0-50.0"},{"result":158,"points":3,"place":0,"phase":0,"sequence":31,"prices":[214,184,226,192,215,158,199,175,176,208],"times":[1772,548,525,511,613,905],"next_num":6,"trial_type":"ticket-choose","trial_index":51,"time_elapsed":371123,"internal_node_id":"0.0-51.0"},{"result":167,"points":1,"place":2,"phase":0,"sequence":32,"prices":[165,175,187,209,177,180,188,167,154,208],"times":[1786,531,515,520,528,531,548,906],"next_num":8,"trial_type":"ticket-choose","trial_index":52,"time_elapsed":380156,"internal_node_id":"0.0-52.0"},{"result":166,"points":1,"place":2,"phase":0,"sequence":33,"prices":[165,174,186,212,177,181,187,166,153,209],"times":[1720,611,936,528,617,503,519,787],"next_num":8,"trial_type":"ticket-choose","trial_index":53,"time_elapsed":389519,"internal_node_id":"0.0-53.0"},{"result":156,"points":3,"place":0,"phase":0,"sequence":34,"prices":[167,174,186,211,178,181,188,168,208,156],"times":[1689,540,562,534,499,521,543,799,734,619],"next_num":10,"trial_type":"ticket-choose","trial_index":54,"time_elapsed":400414,"internal_node_id":"0.0-54.0"},{"result":153,"points":3,"place":0,"phase":0,"sequence":35,"prices":[163,174,186,212,176,181,187,166,153,209],"times":[1423,483,547,562,514,523,548,874,921],"next_num":9,"trial_type":"ticket-choose","trial_index":55,"time_elapsed":410228,"internal_node_id":"0.0-55.0"},{"result":156,"points":3,"place":0,"phase":0,"sequence":36,"prices":[167,175,185,224,178,181,186,168,208,156],"times":[1483,499,526,470,525,652,618,923,734,629],"next_num":10,"trial_type":"ticket-choose","trial_index":56,"time_elapsed":420860,"internal_node_id":"0.0-56.0"},{"result":153,"points":2,"place":1,"phase":0,"sequence":37,"prices":[167,153,172,185,195,143,184,211,177,227],"times":[1245,880],"next_num":2,"trial_type":"ticket-choose","trial_index":57,"time_elapsed":424994,"internal_node_id":"0.0-57.0"},{"result":153,"points":3,"place":0,"phase":0,"sequence":38,"prices":[177,175,186,210,165,179,187,166,153,208],"times":[1373,570,605,566,841,495,606,760,801],"next_num":9,"trial_type":"ticket-choose","trial_index":58,"time_elapsed":435231,"internal_node_id":"0.0-58.0"},{"result":155,"points":2,"place":1,"phase":0,"sequence":39,"prices":[200,207,155,158,156,168,167,135,178,177],"times":[2804,555,970],"next_num":3,"trial_type":"ticket-choose","trial_index":59,"time_elapsed":441755,"internal_node_id":"0.0-59.0"},{"result":161,"points":3,"place":0,"phase":0,"sequence":40,"prices":[193,174,224,165,187,190,224,161,194,195],"times":[1377,537,535,536,647,623,575,809],"next_num":8,"trial_type":"ticket-choose","trial_index":60,"time_elapsed":450557,"internal_node_id":"0.0-60.0"},{"result":165,"points":1,"place":2,"phase":0,"sequence":41,"prices":[200,173,182,169,207,165,152,202,161,204],"times":[9372,566,563,1503,544,989],"next_num":6,"trial_type":"ticket-choose","trial_index":61,"time_elapsed":466911,"internal_node_id":"0.0-61.0"},{"result":163,"points":2,"place":1,"phase":0,"sequence":42,"prices":[176,186,178,217,163,181,187,166,153,209],"times":[2104,499,507,516,995],"next_num":5,"trial_type":"ticket-choose","trial_index":62,"time_elapsed":474100,"internal_node_id":"0.0-62.0"},{"result":163,"points":2,"place":1,"phase":0,"sequence":43,"prices":[176,175,186,210,163,179,187,166,153,208],"times":[708,7687,593,552,828],"next_num":5,"trial_type":"ticket-choose","trial_index":63,"time_elapsed":486977,"internal_node_id":"0.0-63.0"},{"result":156,"points":2,"place":1,"phase":0,"sequence":44,"prices":[180,156,149,160,168,186,172,198,176,195],"times":[1168,815],"next_num":2,"trial_type":"ticket-choose","trial_index":64,"time_elapsed":490967,"internal_node_id":"0.0-64.0"},{"result":161,"points":2,"place":1,"phase":0,"sequence":45,"prices":[185,179,191,165,161,173,199,150,188,168],"times":[1818,525,512,982,861],"next_num":5,"trial_type":"ticket-choose","trial_index":65,"time_elapsed":498336,"internal_node_id":"0.0-65.0"},{"result":165,"points":2,"place":1,"phase":0,"sequence":46,"prices":[201,204,179,166,185,165,214,156,202,165],"times":[1693,486,504,656,645,940,598,523,936,761],"next_num":10,"trial_type":"ticket-choose","trial_index":66,"time_elapsed":509708,"internal_node_id":"0.0-66.0"},{"result":153,"points":3,"place":0,"phase":0,"sequence":47,"prices":[177,174,186,217,165,181,187,166,153,209],"times":[1500,842,794,552,918,595,538,783,795],"next_num":9,"trial_type":"ticket-choose","trial_index":67,"time_elapsed":520448,"internal_node_id":"0.0-67.0"},{"result":158,"points":2,"place":1,"phase":0,"sequence":48,"prices":[158,176,187,210,177,181,187,165,208,153],"times":[1608],"next_num":1,"trial_type":"ticket-choose","trial_index":68,"time_elapsed":523810,"internal_node_id":"0.0-68.0"},{"result":165,"points":2,"place":1,"phase":0,"sequence":49,"prices":[191,170,182,165,175,182,203,157,195,200],"times":[1140,543,8591,734],"next_num":4,"trial_type":"ticket-choose","trial_index":69,"time_elapsed":537908,"internal_node_id":"0.0-69.0"},{"responses":[{"value":0,"offby":-1,"category":"$115 - $130","category_index":0},{"value":0,"offby":-5,"category":"$131 - $145","category_index":1},{"value":0,"offby":-12,"category":"$146 - $160","category_index":2},{"value":100,"offby":78,"category":"$161 - $175","category_index":3},{"value":0,"offby":-34,"category":"$176 - $190","category_index":4},{"value":0,"offby":-15,"category":"$191 - $205","category_index":5},{"value":0,"offby":-11,"category":"$206 - $220","category_index":6}],"phase":1,"number":1,"trial_type":"bar-choose","trial_index":70,"time_elapsed":548722,"internal_node_id":"0.0-70.0"},{"rt":85781,"url":"\/christiane\/tickets\/utils\/testing2.html","trial_type":"point_update","trial_index":71,"time_elapsed":635786,"internal_node_id":"0.0-71.0"},{"phase":1,"order":[22,4,19,47,16,45,10,48,37,44,24,6,13,23,2,49,31,27,40,5,39,42,28,3,21,33,36,38,12,18,43,46,7,8,0,14,1,35,9,41,32,26,17,15,34,29,25,11,20,30],"trial_type":"store_order","trial_index":72,"time_elapsed":636812,"internal_node_id":"0.0-72.0"},{"result":143,"points":3,"place":0,"phase":1,"sequence":0,"prices":[222,173,202,197,143,205,198,183,178,186],"times":[2148,1683,515,528,849],"next_num":5,"trial_type":"ticket-choose","trial_index":73,"time_elapsed":645263,"internal_node_id":"0.0-73.0"},{"result":155,"points":2,"place":1,"phase":1,"sequence":1,"prices":[181,155,148,161,168,187,172,199,176,194],"times":[1733,1583],"next_num":2,"trial_type":"ticket-choose","trial_index":74,"time_elapsed":650520,"internal_node_id":"0.0-74.0"},{"result":153,"points":3,"place":0,"phase":1,"sequence":2,"prices":[174,186,176,217,181,187,163,166,153,209],"times":[2054,538,526,528,600,523,1437,711,698],"next_num":9,"trial_type":"ticket-choose","trial_index":75,"time_elapsed":661503,"internal_node_id":"0.0-75.0"},{"result":150,"points":3,"place":0,"phase":1,"sequence":3,"prices":[189,150,175,160,188,207,158,194,178,199],"times":[1193,1286],"next_num":2,"trial_type":"ticket-choose","trial_index":76,"time_elapsed":666026,"internal_node_id":"0.0-76.0"},{"result":154,"points":3,"place":0,"phase":1,"sequence":4,"prices":[175,187,176,209,180,188,163,165,154,208],"times":[994,568,692,544,546,1020,1504,685,724],"next_num":9,"trial_type":"ticket-choose","trial_index":77,"time_elapsed":677945,"internal_node_id":"0.0-77.0"},{"result":170,"points":2,"place":1,"phase":1,"sequence":5,"prices":[201,187,157,184,198,179,188,185,178,170],"times":[1271,547,2021,469,489,516,486,559,532,615],"next_num":10,"trial_type":"ticket-choose","trial_index":78,"time_elapsed":689120,"internal_node_id":"0.0-78.0"},{"result":152,"points":3,"place":0,"phase":1,"sequence":6,"prices":[200,181,203,152,175,171,160,154,176,191],"times":[1056,577,535,954],"next_num":4,"trial_type":"ticket-choose","trial_index":79,"time_elapsed":694541,"internal_node_id":"0.0-79.0"},{"result":165,"points":2,"place":1,"phase":1,"sequence":7,"prices":[175,187,177,209,180,188,165,165,154,208],"times":[1143,553,562,543,684,553,857],"next_num":7,"trial_type":"ticket-choose","trial_index":80,"time_elapsed":702505,"internal_node_id":"0.0-80.0"},{"result":165,"points":3,"place":0,"phase":1,"sequence":8,"prices":[196,165,170,184,187,211,171,201,202,185],"times":[787,922],"next_num":2,"trial_type":"ticket-choose","trial_index":81,"time_elapsed":706297,"internal_node_id":"0.0-81.0"},{"result":163,"points":3,"place":0,"phase":1,"sequence":9,"prices":[168,199,196,198,185,195,227,163,177,166],"times":[950,471,528,536,549,552,526,896],"next_num":8,"trial_type":"ticket-choose","trial_index":82,"time_elapsed":714575,"internal_node_id":"0.0-82.0"},{"result":168,"points":1,"place":2,"phase":1,"sequence":10,"prices":[183,182,192,168,173,205,167,187,165,170],"times":[1386,460,498,1089],"next_num":4,"trial_type":"ticket-choose","trial_index":83,"time_elapsed":720357,"internal_node_id":"0.0-83.0"},{"result":156,"points":3,"place":0,"phase":1,"sequence":11,"prices":[175,185,178,215,181,186,167,168,208,156],"times":[609,434,461,643,669,580,499,690,564,559],"next_num":10,"trial_type":"ticket-choose","trial_index":84,"time_elapsed":729693,"internal_node_id":"0.0-84.0"},{"result":165,"points":3,"place":0,"phase":1,"sequence":12,"prices":[185,170,182,201,173,199,171,188,165,168],"times":[2426,503,486,496,503,546,966,590,885],"next_num":9,"trial_type":"ticket-choose","trial_index":85,"time_elapsed":740560,"internal_node_id":"0.0-85.0"},{"result":153,"points":3,"place":0,"phase":1,"sequence":13,"prices":[174,186,177,217,181,187,165,166,153,209],"times":[1837,475,473,467,539,515,809,1071,835],"next_num":9,"trial_type":"ticket-choose","trial_index":86,"time_elapsed":752615,"internal_node_id":"0.0-86.0"},{"result":158,"points":2,"place":1,"phase":1,"sequence":14,"prices":[176,187,158,210,181,187,177,165,208,153],"times":[730,515,921],"next_num":3,"trial_type":"ticket-choose","trial_index":87,"time_elapsed":756937,"internal_node_id":"0.0-87.0"},{"result":158,"points":2,"place":1,"phase":1,"sequence":15,"prices":[175,186,158,209,181,188,177,167,208,154],"times":[1451,514,899],"next_num":3,"trial_type":"ticket-choose","trial_index":88,"time_elapsed":761857,"internal_node_id":"0.0-88.0"},{"result":158,"points":3,"place":0,"phase":1,"sequence":16,"prices":[210,184,226,193,215,158,199,175,176,208],"times":[1051,437,472,585,497,850],"next_num":6,"trial_type":"ticket-choose","trial_index":89,"time_elapsed":768634,"internal_node_id":"0.0-89.0"},{"result":153,"points":3,"place":0,"phase":1,"sequence":17,"prices":[175,186,167,225,179,187,178,169,209,153],"times":[1459,453,430,577,557,516,523,783,625,502],"next_num":10,"trial_type":"ticket-choose","trial_index":90,"time_elapsed":778616,"internal_node_id":"0.0-90.0"},{"result":154,"points":3,"place":0,"phase":1,"sequence":18,"prices":[175,187,165,209,180,188,177,166,154,208],"times":[2126,472,1036,486,533,534,547,638,688],"next_num":9,"trial_type":"ticket-choose","trial_index":91,"time_elapsed":789157,"internal_node_id":"0.0-91.0"},{"result":156,"points":3,"place":0,"phase":1,"sequence":19,"prices":[174,186,178,217,181,188,167,168,208,156],"times":[1667,476,499,481,542,568,485,671,641,577],"next_num":10,"trial_type":"ticket-choose","trial_index":92,"time_elapsed":801005,"internal_node_id":"0.0-92.0"},{"result":153,"points":3,"place":0,"phase":1,"sequence":20,"prices":[175,186,163,214,179,187,176,166,153,208],"times":[1204,374,345,454,412,459,594,725,1090],"next_num":9,"trial_type":"ticket-choose","trial_index":93,"time_elapsed":810411,"internal_node_id":"0.0-93.0"},{"result":160,"points":2,"place":1,"phase":1,"sequence":21,"prices":[183,163,185,180,166,148,160,186,176,184],"times":[1062,878,381,328,434,512,689],"next_num":7,"trial_type":"ticket-choose","trial_index":94,"time_elapsed":817681,"internal_node_id":"0.0-94.0"},{"result":153,"points":3,"place":0,"phase":1,"sequence":22,"prices":[175,186,177,210,179,187,165,166,153,208],"times":[633,474,519,525,587,682,990,711,770],"next_num":9,"trial_type":"ticket-choose","trial_index":95,"time_elapsed":826925,"internal_node_id":"0.0-95.0"},{"result":154,"points":3,"place":0,"phase":1,"sequence":23,"prices":[188,200,165,172,198,174,177,154,177,180],"times":[573,615,580,590,536,577,565,880],"next_num":8,"trial_type":"ticket-choose","trial_index":96,"time_elapsed":835055,"internal_node_id":"0.0-96.0"},{"result":153,"points":3,"place":0,"phase":1,"sequence":24,"prices":[175,186,158,211,180,187,177,166,209,153],"times":[2807,1378,1533,602,529,567,688,783,627,576],"next_num":10,"trial_type":"ticket-choose","trial_index":97,"time_elapsed":848647,"internal_node_id":"0.0-97.0"},{"result":153,"points":3,"place":0,"phase":1,"sequence":25,"prices":[175,186,177,221,180,187,158,166,209,153],"times":[832,494,544,548,475,517,580,531,514,527],"next_num":10,"trial_type":"ticket-choose","trial_index":98,"time_elapsed":857880,"internal_node_id":"0.0-98.0"},{"result":188,"points":0,"place":5,"phase":1,"sequence":26,"prices":[193,169,171,187,190,224,174,194,165,188],"times":[5369,858,461,496,496,510,516,753,1061,1008],"next_num":10,"trial_type":"ticket-choose","trial_index":99,"time_elapsed":874862,"internal_node_id":"0.0-99.0"},{"result":153,"points":3,"place":0,"phase":1,"sequence":27,"prices":[175,186,165,214,179,187,177,166,153,208],"times":[2049,612,998,614,658,626,683,655,745],"next_num":9,"trial_type":"ticket-choose","trial_index":100,"time_elapsed":886352,"internal_node_id":"0.0-100.0"},{"result":163,"points":2,"place":1,"phase":1,"sequence":28,"prices":[198,193,169,163,202,182,152,164,177,171],"times":[1307,584,825,1002],"next_num":4,"trial_type":"ticket-choose","trial_index":101,"time_elapsed":892472,"internal_node_id":"0.0-101.0"},{"result":164,"points":3,"place":0,"phase":1,"sequence":29,"prices":[212,192,188,184,167,193,189,164,176,170],"times":[1328,507,602,633,925,635,546,891],"next_num":8,"trial_type":"ticket-choose","trial_index":102,"time_elapsed":901721,"internal_node_id":"0.0-102.0"},{"result":153,"points":3,"place":0,"phase":1,"sequence":30,"prices":[175,186,176,210,179,187,163,166,153,208],"times":[5260,524,531,515,531,510,530,493,768],"next_num":9,"trial_type":"ticket-choose","trial_index":103,"time_elapsed":914689,"internal_node_id":"0.0-103.0"},{"result":158,"points":2,"place":1,"phase":1,"sequence":31,"prices":[175,186,177,209,181,188,158,167,208,154],"times":[6820,552,495,516,591,522,1327],"next_num":7,"trial_type":"ticket-choose","trial_index":104,"time_elapsed":928481,"internal_node_id":"0.0-104.0"},{"result":153,"points":3,"place":0,"phase":1,"sequence":32,"prices":[174,186,163,212,181,187,176,166,153,209],"times":[1286,381,396,445,563,526,547,620,779],"next_num":9,"trial_type":"ticket-choose","trial_index":105,"time_elapsed":937559,"internal_node_id":"0.0-105.0"},{"result":147,"points":3,"place":0,"phase":1,"sequence":33,"prices":[181,215,169,147,182,193,177,184,176,179],"times":[2062,658,1032,1016],"next_num":4,"trial_type":"ticket-choose","trial_index":106,"time_elapsed":944634,"internal_node_id":"0.0-106.0"},{"result":155,"points":2,"place":1,"phase":1,"sequence":34,"prices":[201,207,155,158,156,165,167,135,178,177],"times":[1359,571,1805],"next_num":3,"trial_type":"ticket-choose","trial_index":107,"time_elapsed":950560,"internal_node_id":"0.0-107.0"},{"result":154,"points":3,"place":0,"phase":1,"sequence":35,"prices":[175,187,163,209,180,188,176,165,154,208],"times":[951,468,785,363,526,590,560,710,655],"next_num":9,"trial_type":"ticket-choose","trial_index":108,"time_elapsed":959463,"internal_node_id":"0.0-108.0"},{"result":162,"points":3,"place":0,"phase":1,"sequence":36,"prices":[201,165,162,166,185,214,165,202,204,179],"times":[1361,431,2018],"next_num":3,"trial_type":"ticket-choose","trial_index":109,"time_elapsed":965436,"internal_node_id":"0.0-109.0"},{"result":161,"points":3,"place":0,"phase":1,"sequence":37,"prices":[200,165,165,173,182,207,161,202,204,180],"times":[1051,1685,620,568,535,537,1115],"next_num":7,"trial_type":"ticket-choose","trial_index":110,"time_elapsed":974596,"internal_node_id":"0.0-110.0"},{"result":153,"points":3,"place":0,"phase":1,"sequence":38,"prices":[174,186,165,212,181,187,177,167,153,209],"times":[1231,1024,723,527,553,528,550,898,743],"next_num":9,"trial_type":"ticket-choose","trial_index":111,"time_elapsed":985010,"internal_node_id":"0.0-111.0"},{"result":156,"points":3,"place":0,"phase":1,"sequence":39,"prices":[175,185,167,224,181,186,178,168,208,156],"times":[1780,491,788,493,513,580,558,660,845,641],"next_num":10,"trial_type":"ticket-choose","trial_index":112,"time_elapsed":998468,"internal_node_id":"0.0-112.0"},{"result":184,"points":1,"place":4,"phase":1,"sequence":40,"prices":[193,165,175,181,185,224,180,199,218,184],"times":[1169,503,436,721,519,632,666,559,743,921],"next_num":10,"trial_type":"ticket-choose","trial_index":113,"time_elapsed":1009087,"internal_node_id":"0.0-113.0"},{"result":154,"points":2,"place":1,"phase":1,"sequence":41,"prices":[168,154,172,185,195,144,184,211,177,227],"times":[1100,967],"next_num":2,"trial_type":"ticket-choose","trial_index":114,"time_elapsed":1013024,"internal_node_id":"0.0-114.0"},{"result":158,"points":2,"place":1,"phase":1,"sequence":42,"prices":[176,187,177,225,181,187,158,165,208,153],"times":[994,511,489,471,509,516,792],"next_num":7,"trial_type":"ticket-choose","trial_index":115,"time_elapsed":1020387,"internal_node_id":"0.0-115.0"},{"result":156,"points":3,"place":0,"phase":1,"sequence":43,"prices":[174,186,167,211,181,188,178,168,208,156],"times":[2380,644,474,468,515,498,490,762,539,538],"next_num":10,"trial_type":"ticket-choose","trial_index":116,"time_elapsed":1032843,"internal_node_id":"0.0-116.0"},{"result":165,"points":3,"place":0,"phase":1,"sequence":44,"prices":[171,203,175,170,167,220,192,186,165,165],"times":[875,383,404,514,943,466,527,515,486,693],"next_num":10,"trial_type":"ticket-choose","trial_index":117,"time_elapsed":1042184,"internal_node_id":"0.0-117.0"},{"result":176,"points":0,"place":5,"phase":1,"sequence":45,"prices":[191,172,169,175,182,203,170,195,165,176],"times":[1899,660,445,591,519,18231,146767,558,470,474],"next_num":11,"trial_type":"ticket-choose","trial_index":118,"time_elapsed":1216717,"internal_node_id":"0.0-118.0"},{"result":165,"points":3,"place":0,"phase":1,"sequence":46,"prices":[189,167,180,197,165,168,172,213,178,171],"times":[877,438,515,473,847],"next_num":5,"trial_type":"ticket-choose","trial_index":119,"time_elapsed":1222596,"internal_node_id":"0.0-119.0"},{"result":159,"points":1,"place":2,"phase":1,"sequence":47,"prices":[180,159,149,175,185,141,163,174,178,207],"times":[2217,910],"next_num":2,"trial_type":"ticket-choose","trial_index":120,"time_elapsed":1227778,"internal_node_id":"0.0-120.0"},{"result":186,"points":1,"place":4,"phase":1,"sequence":48,"prices":[192,165,171,178,188,217,172,195,197,186],"times":[625,276,293,278,444,433,995,520,503,289],"next_num":11,"trial_type":"ticket-choose","trial_index":121,"time_elapsed":1238785,"internal_node_id":"0.0-121.0"},{"result":153,"points":3,"place":0,"phase":1,"sequence":49,"prices":[175,186,178,212,179,187,167,169,209,153],"times":[8766,747,322,391,526,367,550,529,491,511],"next_num":10,"trial_type":"ticket-choose","trial_index":122,"time_elapsed":1255685,"internal_node_id":"0.0-122.0"},{"responses":[{"value":0,"offby":-1,"category":"$115 - $130","category_index":0},{"value":0,"offby":-5,"category":"$131 - $145","category_index":1},{"value":100,"offby":88,"category":"$146 - $160","category_index":2},{"value":0,"offby":-22,"category":"$161 - $175","category_index":3},{"value":0,"offby":-34,"category":"$176 - $190","category_index":4},{"value":0,"offby":-15,"category":"$191 - $205","category_index":5},{"value":0,"offby":-11,"category":"$206 - $220","category_index":6}],"phase":1,"number":1,"trial_type":"bar-choose","trial_index":123,"time_elapsed":1265956,"internal_node_id":"0.0-123.0"},{"special_comment":"","trial_type":"special_sequence","trial_index":124,"time_elapsed":1269103,"internal_node_id":"0.0-124.0"},{"during":"Nothing","bonus":308,"trial_type":"final","trial_index":125,"time_elapsed":1291704,"internal_node_id":"0.0-125.0"}],"bonus":308}