{"start_time":"2017-05-24 12:18:57","end_time":"2017-05-24 12:47:27","points_phase0":107,"points_phase1":108,"phase_order":0,"age":24,"gender":"f","tries":1,"during":"Nothing","worker_id":"AX06ZUCRNSGB3","assignment_id":"3P4MQ7TPPY5VCSGSYW752N8U96BBBL","data":[{"rt":12180,"url":"\/christiane\/tickets\/utils\/consent.html","trial_type":"html","trial_index":0,"time_elapsed":12228,"internal_node_id":"0.0-0.0"},{"age":24,"gender":"f","trial_type":"age","trial_index":1,"time_elapsed":17892,"internal_node_id":"0.0-1.0"},{"worker_id":"AX06ZUCRNSGB3","trial_type":"workerid","trial_index":2,"time_elapsed":390196,"internal_node_id":"0.0-2.0"},{"tries":1,"trial_type":"instructions_check","trial_index":3,"time_elapsed":439683,"internal_node_id":"0.0-3.0"},{"rt":36785,"url":"\/christiane\/tickets\/utils\/start.html","trial_type":"html","trial_index":4,"time_elapsed":477539,"internal_node_id":"0.0-4.0"},{"trial_type":"number-animation","trial_index":5,"time_elapsed":485910,"internal_node_id":"0.0-5.0"},{"phase":0,"sequence":0,"avg":181,"response":163,"trial_type":"training_avg","trial_index":6,"time_elapsed":493091,"internal_node_id":"0.0-6.0"},{"trial_type":"number-animation","trial_index":7,"time_elapsed":503934,"internal_node_id":"0.0-7.0"},{"phase":0,"sequence":1,"avg":188,"response":174,"trial_type":"training_avg","trial_index":8,"time_elapsed":510602,"internal_node_id":"0.0-8.0"},{"trial_type":"number-animation","trial_index":9,"time_elapsed":521734,"internal_node_id":"0.0-9.0"},{"phase":0,"sequence":2,"avg":188,"response":179,"trial_type":"training_avg","trial_index":10,"time_elapsed":529291,"internal_node_id":"0.0-10.0"},{"trial_type":"number-animation","trial_index":11,"time_elapsed":542502,"internal_node_id":"0.0-11.0"},{"phase":0,"sequence":3,"avg":177,"response":185,"trial_type":"training_avg","trial_index":12,"time_elapsed":548379,"internal_node_id":"0.0-12.0"},{"trial_type":"number-animation","trial_index":13,"time_elapsed":558734,"internal_node_id":"0.0-13.0"},{"phase":0,"sequence":4,"avg":182,"response":176,"trial_type":"training_avg","trial_index":14,"time_elapsed":565939,"internal_node_id":"0.0-14.0"},{"responses":[{"value":2,"offby":1,"category":"$115 - $130","category_index":0},{"value":4,"offby":-1,"category":"$131 - $145","category_index":1},{"value":8,"offby":-4,"category":"$146 - $160","category_index":2},{"value":20,"offby":-2,"category":"$161 - $175","category_index":3},{"value":43,"offby":9,"category":"$176 - $190","category_index":4},{"value":15,"offby":0,"category":"$191 - $205","category_index":5},{"value":8,"offby":-3,"category":"$206 - $220","category_index":6}],"phase":0,"number":0,"trial_type":"bar-choose","trial_index":15,"time_elapsed":646404,"internal_node_id":"0.0-15.0"},{"rt":20248,"url":"\/christiane\/tickets\/utils\/testing.html","trial_type":"html","trial_index":16,"time_elapsed":667723,"internal_node_id":"0.0-16.0"},{"phase":0,"order":[27,46,39,10,41,30,13,25,3,12,24,35,5,4,11,45,8,26,34,40,21,9,38,44,31,32,28,29,15,42,49,48,0,37,20,23,33,2,14,6,47,16,17,22,36,43,18,7,19,1],"trial_type":"store_order","trial_index":17,"time_elapsed":668723,"internal_node_id":"0.0-17.0"},{"result":165,"points":2,"place":1,"phase":0,"sequence":-1,"prices":[184,180,224,165,181,199,185,193,218,146],"times":[2286,1366,727,911],"next_num":4,"trial_type":"ticket-choose","trial_index":18,"time_elapsed":677187,"internal_node_id":"0.0-18.0"},{"rt":32813,"url":"\/christiane\/tickets\/utils\/testing_after.html","trial_type":"html","trial_index":19,"time_elapsed":711075,"internal_node_id":"0.0-19.0"},{"result":165,"points":3,"place":0,"phase":0,"sequence":0,"prices":[192,165,171,178,188,217,172,195,197,186],"times":[1867,2885],"next_num":2,"trial_type":"ticket-choose","trial_index":20,"time_elapsed":719226,"internal_node_id":"0.0-20.0"},{"result":158,"points":3,"place":0,"phase":0,"sequence":1,"prices":[210,184,226,193,215,158,199,175,176,208],"times":[1470,1493,791,582,623,1092],"next_num":6,"trial_type":"ticket-choose","trial_index":21,"time_elapsed":728666,"internal_node_id":"0.0-21.0"},{"result":167,"points":2,"place":1,"phase":0,"sequence":2,"prices":[189,167,180,197,165,168,172,213,178,171],"times":[2694,5828],"next_num":2,"trial_type":"ticket-choose","trial_index":22,"time_elapsed":739802,"internal_node_id":"0.0-22.0"},{"result":165,"points":2,"place":1,"phase":0,"sequence":3,"prices":[175,187,177,209,180,188,165,165,154,208],"times":[764,712,621,646,671,527,1555],"next_num":7,"trial_type":"ticket-choose","trial_index":23,"time_elapsed":748642,"internal_node_id":"0.0-23.0"},{"result":155,"points":2,"place":1,"phase":0,"sequence":4,"prices":[201,207,155,158,156,165,167,135,178,177],"times":[708,534,1115],"next_num":3,"trial_type":"ticket-choose","trial_index":24,"time_elapsed":753651,"internal_node_id":"0.0-24.0"},{"result":165,"points":3,"place":0,"phase":0,"sequence":5,"prices":[191,172,169,175,182,203,170,195,165,176],"times":[508,718,1047,566,518,566,647,526,1108],"next_num":9,"trial_type":"ticket-choose","trial_index":25,"time_elapsed":763938,"internal_node_id":"0.0-25.0"},{"result":163,"points":2,"place":1,"phase":0,"sequence":6,"prices":[175,187,163,209,180,188,176,165,154,208],"times":[765,519,1204],"next_num":3,"trial_type":"ticket-choose","trial_index":26,"time_elapsed":768802,"internal_node_id":"0.0-26.0"},{"result":162,"points":3,"place":0,"phase":0,"sequence":7,"prices":[201,165,162,166,185,214,165,202,204,179],"times":[1308,462,1468],"next_num":3,"trial_type":"ticket-choose","trial_index":27,"time_elapsed":774458,"internal_node_id":"0.0-27.0"},{"result":167,"points":2,"place":1,"phase":0,"sequence":8,"prices":[174,186,178,217,181,188,167,168,208,156],"times":[8813,599,613,638,895,487,987],"next_num":7,"trial_type":"ticket-choose","trial_index":28,"time_elapsed":790700,"internal_node_id":"0.0-28.0"},{"result":166,"points":1,"place":2,"phase":0,"sequence":9,"prices":[175,186,163,214,179,187,176,166,153,208],"times":[1034,718,1368,573,494,494,727,1547],"next_num":8,"trial_type":"ticket-choose","trial_index":29,"time_elapsed":801410,"internal_node_id":"0.0-29.0"},{"result":165,"points":3,"place":0,"phase":0,"sequence":10,"prices":[193,165,175,181,185,224,180,199,218,184],"times":[3357,2475],"next_num":2,"trial_type":"ticket-choose","trial_index":30,"time_elapsed":809762,"internal_node_id":"0.0-30.0"},{"result":154,"points":2,"place":1,"phase":0,"sequence":11,"prices":[168,154,172,185,195,144,184,211,177,227],"times":[716,1013],"next_num":2,"trial_type":"ticket-choose","trial_index":31,"time_elapsed":813578,"internal_node_id":"0.0-31.0"},{"result":167,"points":2,"place":1,"phase":0,"sequence":12,"prices":[175,186,178,212,179,187,167,169,209,153],"times":[796,688,877,1022,509,471,876],"next_num":7,"trial_type":"ticket-choose","trial_index":32,"time_elapsed":822090,"internal_node_id":"0.0-32.0"},{"result":167,"points":2,"place":1,"phase":0,"sequence":13,"prices":[175,185,178,215,181,186,167,168,208,156],"times":[532,558,590,599,655,581,915],"next_num":7,"trial_type":"ticket-choose","trial_index":33,"time_elapsed":829602,"internal_node_id":"0.0-33.0"},{"result":165,"points":2,"place":1,"phase":0,"sequence":14,"prices":[174,186,177,217,181,187,165,166,153,209],"times":[7677,710,503,582,646,751,892],"next_num":7,"trial_type":"ticket-choose","trial_index":34,"time_elapsed":844787,"internal_node_id":"0.0-34.0"},{"result":167,"points":2,"place":1,"phase":0,"sequence":15,"prices":[212,192,188,184,167,193,189,164,176,170],"times":[1205,4967,1445,590,1283],"next_num":5,"trial_type":"ticket-choose","trial_index":35,"time_elapsed":856811,"internal_node_id":"0.0-35.0"},{"result":165,"points":2,"place":1,"phase":0,"sequence":16,"prices":[174,186,165,212,181,187,177,167,153,209],"times":[2693,1343,3388],"next_num":3,"trial_type":"ticket-choose","trial_index":36,"time_elapsed":866539,"internal_node_id":"0.0-36.0"},{"result":161,"points":3,"place":0,"phase":0,"sequence":17,"prices":[200,165,165,173,182,207,161,202,204,180],"times":[1228,935,1352,775,407,503,941],"next_num":7,"trial_type":"ticket-choose","trial_index":37,"time_elapsed":875811,"internal_node_id":"0.0-37.0"},{"result":148,"points":3,"place":0,"phase":0,"sequence":18,"prices":[181,155,148,161,168,187,172,199,176,194],"times":[908,431,957],"next_num":3,"trial_type":"ticket-choose","trial_index":38,"time_elapsed":880387,"internal_node_id":"0.0-38.0"},{"result":150,"points":3,"place":0,"phase":0,"sequence":19,"prices":[189,150,175,160,188,207,158,194,178,199],"times":[5605,2099],"next_num":2,"trial_type":"ticket-choose","trial_index":39,"time_elapsed":890628,"internal_node_id":"0.0-39.0"},{"result":153,"points":3,"place":0,"phase":0,"sequence":20,"prices":[175,186,177,221,180,187,158,166,209,153],"times":[842,720,728,584,510,615,872,734,1216,909],"next_num":10,"trial_type":"ticket-choose","trial_index":40,"time_elapsed":902331,"internal_node_id":"0.0-40.0"},{"result":165,"points":2,"place":1,"phase":0,"sequence":21,"prices":[175,186,177,210,179,187,165,166,153,208],"times":[1123,1902,2297,774,1368,831,772],"next_num":7,"trial_type":"ticket-choose","trial_index":41,"time_elapsed":914427,"internal_node_id":"0.0-41.0"},{"result":163,"points":3,"place":0,"phase":0,"sequence":22,"prices":[168,199,196,198,185,195,227,163,177,166],"times":[659,576,608,583,624,589,703,1028],"next_num":8,"trial_type":"ticket-choose","trial_index":42,"time_elapsed":923114,"internal_node_id":"0.0-42.0"},{"result":159,"points":1,"place":2,"phase":0,"sequence":23,"prices":[180,159,149,175,185,141,163,174,178,207],"times":[965,1069],"next_num":2,"trial_type":"ticket-choose","trial_index":43,"time_elapsed":927258,"internal_node_id":"0.0-43.0"},{"result":165,"points":3,"place":0,"phase":0,"sequence":24,"prices":[171,203,175,170,167,220,192,186,165,165],"times":[859,1224,638,560,975,631,696,720,843],"next_num":9,"trial_type":"ticket-choose","trial_index":44,"time_elapsed":937812,"internal_node_id":"0.0-44.0"},{"result":165,"points":3,"place":0,"phase":0,"sequence":25,"prices":[193,169,171,187,190,224,174,194,165,188],"times":[8210,1174,543,487,567,600,824,799,1276],"next_num":9,"trial_type":"ticket-choose","trial_index":45,"time_elapsed":955826,"internal_node_id":"0.0-45.0"},{"result":185,"points":1,"place":4,"phase":0,"sequence":26,"prices":[196,165,170,184,187,211,171,201,202,185],"times":[709,2750,487,488,479,480,567,640,712,1766],"next_num":10,"trial_type":"ticket-choose","trial_index":46,"time_elapsed":968850,"internal_node_id":"0.0-46.0"},{"result":171,"points":1,"place":3,"phase":0,"sequence":27,"prices":[185,170,182,201,173,199,171,188,165,168],"times":[772,519,680,544,622,600,1180],"next_num":7,"trial_type":"ticket-choose","trial_index":47,"time_elapsed":976890,"internal_node_id":"0.0-47.0"},{"result":163,"points":2,"place":1,"phase":0,"sequence":28,"prices":[175,186,176,210,179,187,163,166,153,208],"times":[539,423,536,536,518,751,917],"next_num":7,"trial_type":"ticket-choose","trial_index":48,"time_elapsed":984130,"internal_node_id":"0.0-48.0"},{"result":143,"points":3,"place":0,"phase":0,"sequence":29,"prices":[222,173,202,197,143,205,198,183,178,186],"times":[564,527,448,536,836],"next_num":5,"trial_type":"ticket-choose","trial_index":49,"time_elapsed":989593,"internal_node_id":"0.0-49.0"},{"result":163,"points":1,"place":2,"phase":0,"sequence":30,"prices":[183,163,185,180,166,148,160,186,176,184],"times":[509,1267],"next_num":2,"trial_type":"ticket-choose","trial_index":50,"time_elapsed":993226,"internal_node_id":"0.0-50.0"},{"result":169,"points":2,"place":1,"phase":0,"sequence":31,"prices":[181,215,169,147,182,193,177,184,176,179],"times":[485,448,685],"next_num":3,"trial_type":"ticket-choose","trial_index":51,"time_elapsed":997291,"internal_node_id":"0.0-51.0"},{"result":167,"points":2,"place":1,"phase":0,"sequence":32,"prices":[174,186,167,211,181,188,178,168,208,156],"times":[434,529,939],"next_num":3,"trial_type":"ticket-choose","trial_index":52,"time_elapsed":1001539,"internal_node_id":"0.0-52.0"},{"result":169,"points":1,"place":3,"phase":0,"sequence":33,"prices":[198,193,169,163,202,182,152,164,177,171],"times":[315,671,836],"next_num":3,"trial_type":"ticket-choose","trial_index":53,"time_elapsed":1005458,"internal_node_id":"0.0-53.0"},{"result":165,"points":1,"place":2,"phase":0,"sequence":34,"prices":[176,187,158,210,181,187,177,165,208,153],"times":[788,293,408,566,616,598,574,981],"next_num":8,"trial_type":"ticket-choose","trial_index":54,"time_elapsed":1013746,"internal_node_id":"0.0-54.0"},{"result":158,"points":2,"place":1,"phase":0,"sequence":35,"prices":[176,187,177,225,181,187,158,165,208,153],"times":[515,424,487,567,640,552,789],"next_num":7,"trial_type":"ticket-choose","trial_index":55,"time_elapsed":1020794,"internal_node_id":"0.0-55.0"},{"result":167,"points":2,"place":1,"phase":0,"sequence":36,"prices":[183,182,192,168,173,205,167,187,165,170],"times":[621,384,752,839,839,544,980],"next_num":7,"trial_type":"ticket-choose","trial_index":56,"time_elapsed":1028738,"internal_node_id":"0.0-56.0"},{"result":167,"points":2,"place":1,"phase":0,"sequence":37,"prices":[175,186,167,225,179,187,178,169,209,153],"times":[674,1223,843],"next_num":3,"trial_type":"ticket-choose","trial_index":57,"time_elapsed":1033586,"internal_node_id":"0.0-57.0"},{"result":163,"points":2,"place":1,"phase":0,"sequence":38,"prices":[174,186,163,212,181,187,176,166,153,209],"times":[612,576,1460],"next_num":3,"trial_type":"ticket-choose","trial_index":58,"time_elapsed":1038330,"internal_node_id":"0.0-58.0"},{"result":165,"points":2,"place":1,"phase":0,"sequence":39,"prices":[175,186,165,214,179,187,177,166,153,208],"times":[572,816,956],"next_num":3,"trial_type":"ticket-choose","trial_index":59,"time_elapsed":1042745,"internal_node_id":"0.0-59.0"},{"result":152,"points":3,"place":0,"phase":0,"sequence":40,"prices":[200,181,203,152,175,171,160,154,176,191],"times":[436,887,512,804],"next_num":4,"trial_type":"ticket-choose","trial_index":60,"time_elapsed":1047658,"internal_node_id":"0.0-60.0"},{"result":163,"points":2,"place":1,"phase":0,"sequence":41,"prices":[175,187,176,209,180,188,163,165,154,208],"times":[405,479,759,496,568,655,1525],"next_num":7,"trial_type":"ticket-choose","trial_index":61,"time_elapsed":1055842,"internal_node_id":"0.0-61.0"},{"result":163,"points":2,"place":1,"phase":0,"sequence":42,"prices":[174,186,176,217,181,187,163,166,153,209],"times":[332,832,623,624,784,711,900],"next_num":7,"trial_type":"ticket-choose","trial_index":62,"time_elapsed":1063618,"internal_node_id":"0.0-62.0"},{"result":158,"points":2,"place":1,"phase":0,"sequence":43,"prices":[175,186,177,209,181,188,158,167,208,154],"times":[1196,1983,887,544,800,687,2813],"next_num":7,"trial_type":"ticket-choose","trial_index":63,"time_elapsed":1075837,"internal_node_id":"0.0-63.0"},{"result":165,"points":2,"place":1,"phase":0,"sequence":44,"prices":[188,200,165,172,198,174,177,154,177,180],"times":[2481,710,1420],"next_num":3,"trial_type":"ticket-choose","trial_index":64,"time_elapsed":1082890,"internal_node_id":"0.0-64.0"},{"result":178,"points":1,"place":2,"phase":0,"sequence":45,"prices":[201,187,157,184,198,179,188,185,178,170],"times":[1229,639,1088,800,511,567,528,584,1996],"next_num":9,"trial_type":"ticket-choose","trial_index":65,"time_elapsed":1094355,"internal_node_id":"0.0-65.0"},{"result":158,"points":2,"place":1,"phase":0,"sequence":46,"prices":[175,186,158,211,180,187,177,166,209,153],"times":[637,606,988],"next_num":3,"trial_type":"ticket-choose","trial_index":66,"time_elapsed":1099533,"internal_node_id":"0.0-66.0"},{"result":154,"points":3,"place":0,"phase":0,"sequence":47,"prices":[175,187,165,209,180,188,177,166,154,208],"times":[881,543,454,559,768,415,488,767,827],"next_num":9,"trial_type":"ticket-choose","trial_index":67,"time_elapsed":1108779,"internal_node_id":"0.0-67.0"},{"result":154,"points":3,"place":0,"phase":0,"sequence":48,"prices":[175,186,158,209,181,188,177,167,208,154],"times":[579,464,680,743,640,559,839,623,1145,588],"next_num":10,"trial_type":"ticket-choose","trial_index":68,"time_elapsed":1119659,"internal_node_id":"0.0-68.0"},{"result":168,"points":1,"place":2,"phase":0,"sequence":49,"prices":[175,185,167,224,181,186,178,168,208,156],"times":[530,967,639,520,542,583,903,1277],"next_num":8,"trial_type":"ticket-choose","trial_index":69,"time_elapsed":1128810,"internal_node_id":"0.0-69.0"},{"responses":[{"value":2,"offby":1,"category":"$115 - $130","category_index":0},{"value":4,"offby":-1,"category":"$131 - $145","category_index":1},{"value":20,"offby":8,"category":"$146 - $160","category_index":2},{"value":30,"offby":8,"category":"$161 - $175","category_index":3},{"value":41,"offby":7,"category":"$176 - $190","category_index":4},{"value":2,"offby":-13,"category":"$191 - $205","category_index":5},{"value":1,"offby":-10,"category":"$206 - $220","category_index":6}],"phase":1,"number":1,"trial_type":"bar-choose","trial_index":70,"time_elapsed":1166580,"internal_node_id":"0.0-70.0"},{"rt":12946,"url":"\/christiane\/tickets\/utils\/testing2.html","trial_type":"point_update","trial_index":71,"time_elapsed":1180693,"internal_node_id":"0.0-71.0"},{"phase":1,"order":[35,28,14,26,6,22,2,1,38,12,7,23,44,21,33,46,37,10,4,34,42,9,27,20,31,24,43,47,36,39,30,5,3,19,29,11,25,13,48,8,40,45,32,16,49,0,17,15,18,41],"trial_type":"store_order","trial_index":72,"time_elapsed":1181694,"internal_node_id":"0.0-72.0"},{"result":153,"points":2,"place":1,"phase":1,"sequence":0,"prices":[167,153,172,185,195,143,184,211,177,227],"times":[1513,1109],"next_num":2,"trial_type":"ticket-choose","trial_index":73,"time_elapsed":1186402,"internal_node_id":"0.0-73.0"},{"result":165,"points":3,"place":0,"phase":1,"sequence":1,"prices":[196,171,170,184,187,165,211,169,201,202],"times":[716,510,958,631,525,1157],"next_num":6,"trial_type":"ticket-choose","trial_index":74,"time_elapsed":1193690,"internal_node_id":"0.0-74.0"},{"result":166,"points":1,"place":2,"phase":1,"sequence":2,"prices":[163,174,186,212,176,181,187,166,153,209],"times":[763,590,607,591,814,926,624,1035],"next_num":8,"trial_type":"ticket-choose","trial_index":75,"time_elapsed":1202930,"internal_node_id":"0.0-75.0"},{"result":165,"points":1,"place":2,"phase":1,"sequence":3,"prices":[200,173,182,169,207,165,152,202,161,204],"times":[627,719,447,727,640,1173],"next_num":6,"trial_type":"ticket-choose","trial_index":76,"time_elapsed":1210210,"internal_node_id":"0.0-76.0"},{"result":166,"points":1,"place":2,"phase":1,"sequence":4,"prices":[165,175,186,214,177,179,187,166,153,208],"times":[565,389,382,484,519,606,560,1540],"next_num":8,"trial_type":"ticket-choose","trial_index":77,"time_elapsed":1218587,"internal_node_id":"0.0-77.0"},{"result":167,"points":1,"place":2,"phase":1,"sequence":5,"prices":[177,175,186,209,158,181,188,167,208,154],"times":[242,342,350,350,471,845,526,1269],"next_num":8,"trial_type":"ticket-choose","trial_index":78,"time_elapsed":1226083,"internal_node_id":"0.0-78.0"},{"result":169,"points":1,"place":2,"phase":1,"sequence":6,"prices":[167,175,186,225,178,179,187,169,209,153],"times":[441,511,552,568,637,510,487,2236],"next_num":8,"trial_type":"ticket-choose","trial_index":79,"time_elapsed":1235323,"internal_node_id":"0.0-79.0"},{"result":167,"points":2,"place":1,"phase":1,"sequence":7,"prices":[167,175,185,224,178,181,186,168,208,156],"times":[1033],"next_num":1,"trial_type":"ticket-choose","trial_index":80,"time_elapsed":1237970,"internal_node_id":"0.0-80.0"},{"result":163,"points":3,"place":0,"phase":1,"sequence":8,"prices":[163,199,196,199,185,195,227,163,177,166],"times":[668,438,350,503,510,504,543,1564],"next_num":8,"trial_type":"ticket-choose","trial_index":81,"time_elapsed":1246218,"internal_node_id":"0.0-81.0"},{"result":153,"points":3,"place":0,"phase":1,"sequence":9,"prices":[163,175,186,214,176,179,187,166,153,208],"times":[682,358,359,471,463,534,533,1103,1084],"next_num":9,"trial_type":"ticket-choose","trial_index":82,"time_elapsed":1255514,"internal_node_id":"0.0-82.0"},{"result":167,"points":1,"place":2,"phase":1,"sequence":10,"prices":[165,175,187,209,177,180,188,167,154,208],"times":[649,470,559,870,1038,487,558,1011],"next_num":8,"trial_type":"ticket-choose","trial_index":83,"time_elapsed":1264346,"internal_node_id":"0.0-83.0"},{"result":153,"points":3,"place":0,"phase":1,"sequence":11,"prices":[177,176,187,225,158,181,187,165,208,153],"times":[389,325,351,598,471,615,543,1438,518,700],"next_num":10,"trial_type":"ticket-choose","trial_index":84,"time_elapsed":1273906,"internal_node_id":"0.0-84.0"},{"result":159,"points":1,"place":2,"phase":1,"sequence":12,"prices":[181,159,149,175,185,151,163,174,178,207],"times":[636,1107],"next_num":2,"trial_type":"ticket-choose","trial_index":85,"time_elapsed":1277964,"internal_node_id":"0.0-85.0"},{"result":158,"points":2,"place":1,"phase":1,"sequence":13,"prices":[177,175,186,221,158,180,187,166,209,153],"times":[369,503,518,798,1163],"next_num":5,"trial_type":"ticket-choose","trial_index":86,"time_elapsed":1283914,"internal_node_id":"0.0-86.0"},{"result":159,"points":3,"place":0,"phase":1,"sequence":14,"prices":[183,179,188,165,168,173,205,159,187,191],"times":[436,407,445,782,662,550,591,869],"next_num":8,"trial_type":"ticket-choose","trial_index":87,"time_elapsed":1291921,"internal_node_id":"0.0-87.0"},{"result":158,"points":3,"place":0,"phase":1,"sequence":15,"prices":[214,184,226,192,215,158,199,175,176,208],"times":[363,295,358,422,518,1196],"next_num":6,"trial_type":"ticket-choose","trial_index":88,"time_elapsed":1297858,"internal_node_id":"0.0-88.0"},{"result":151,"points":3,"place":0,"phase":1,"sequence":16,"prices":[199,193,169,165,202,182,151,164,176,171],"times":[563,382,481,540,678,502,1340],"next_num":7,"trial_type":"ticket-choose","trial_index":89,"time_elapsed":1305227,"internal_node_id":"0.0-89.0"},{"result":154,"points":3,"place":0,"phase":1,"sequence":17,"prices":[177,175,187,209,165,180,188,165,154,208],"times":[434,413,446,430,630,627,643,790,860],"next_num":9,"trial_type":"ticket-choose","trial_index":90,"time_elapsed":1313811,"internal_node_id":"0.0-90.0"},{"result":156,"points":3,"place":0,"phase":1,"sequence":18,"prices":[178,175,185,215,167,181,186,168,208,156],"times":[440,687,439,477,479,566,518,526,792,629],"next_num":10,"trial_type":"ticket-choose","trial_index":91,"time_elapsed":1323083,"internal_node_id":"0.0-91.0"},{"result":149,"points":3,"place":0,"phase":1,"sequence":19,"prices":[180,156,149,160,168,186,172,198,176,195],"times":[474,407,1525],"next_num":3,"trial_type":"ticket-choose","trial_index":92,"time_elapsed":1327587,"internal_node_id":"0.0-92.0"},{"result":186,"points":1,"place":4,"phase":1,"sequence":20,"prices":[220,173,201,197,169,205,198,183,178,186],"times":[402,486,495,503,566,542,695,559,991,1580],"next_num":10,"trial_type":"ticket-choose","trial_index":93,"time_elapsed":1338211,"internal_node_id":"0.0-93.0"},{"result":153,"points":3,"place":0,"phase":1,"sequence":21,"prices":[177,175,186,210,165,179,187,166,153,208],"times":[586,855,542,574,894,590,709,798,1285],"next_num":9,"trial_type":"ticket-choose","trial_index":94,"time_elapsed":1348651,"internal_node_id":"0.0-94.0"},{"result":197,"points":0,"place":8,"phase":1,"sequence":22,"prices":[192,172,171,178,188,165,217,168,195,197],"times":[780,574,630,503,503,854,559,877,766,820],"next_num":10,"trial_type":"ticket-choose","trial_index":95,"time_elapsed":1359075,"internal_node_id":"0.0-95.0"},{"result":153,"points":3,"place":0,"phase":1,"sequence":23,"prices":[158,176,187,210,177,181,187,165,208,153],"times":[419,534,462,479,462,542,542,654,662,691],"next_num":10,"trial_type":"ticket-choose","trial_index":96,"time_elapsed":1368099,"internal_node_id":"0.0-96.0"},{"result":148,"points":3,"place":0,"phase":1,"sequence":24,"prices":[171,169,186,165,163,167,220,148,187,165],"times":[604,524,583,895,622,582,623,868],"next_num":8,"trial_type":"ticket-choose","trial_index":97,"time_elapsed":1376843,"internal_node_id":"0.0-97.0"},{"result":184,"points":1,"place":4,"phase":1,"sequence":25,"prices":[193,181,175,181,185,165,224,199,218,184],"times":[554,439,560,485,518,702,758,846,710,1856],"next_num":11,"trial_type":"ticket-choose","trial_index":98,"time_elapsed":1388850,"internal_node_id":"0.0-98.0"},{"result":157,"points":3,"place":0,"phase":1,"sequence":26,"prices":[201,187,157,184,198,179,188,185,178,170],"times":[885,532,1316],"next_num":3,"trial_type":"ticket-choose","trial_index":99,"time_elapsed":1394043,"internal_node_id":"0.0-99.0"},{"result":152,"points":3,"place":0,"phase":1,"sequence":27,"prices":[200,180,203,152,175,170,160,154,176,191],"times":[578,598,1279,1148],"next_num":4,"trial_type":"ticket-choose","trial_index":100,"time_elapsed":1399860,"internal_node_id":"0.0-100.0"},{"result":154,"points":3,"place":0,"phase":1,"sequence":28,"prices":[187,201,165,172,196,174,178,154,172,180],"times":[667,893,623,742,630,607,543,949],"next_num":8,"trial_type":"ticket-choose","trial_index":101,"time_elapsed":1446654,"internal_node_id":"0.0-101.0"},{"result":171,"points":1,"place":3,"phase":1,"sequence":29,"prices":[189,167,180,197,165,168,172,213,178,171],"times":[5975,846,495,574,911,694,622,574,1080,989],"next_num":10,"trial_type":"ticket-choose","trial_index":102,"time_elapsed":1463257,"internal_node_id":"0.0-102.0"},{"result":157,"points":3,"place":0,"phase":1,"sequence":30,"prices":[191,170,182,165,175,182,203,157,195,200],"times":[536,478,734,847,525,647,582,1149],"next_num":8,"trial_type":"ticket-choose","trial_index":103,"time_elapsed":1471905,"internal_node_id":"0.0-103.0"},{"result":153,"points":3,"place":0,"phase":1,"sequence":31,"prices":[178,175,186,212,167,179,187,169,209,153],"times":[579,438,519,919,550,543,686,1191,600,748],"next_num":10,"trial_type":"ticket-choose","trial_index":104,"time_elapsed":1482241,"internal_node_id":"0.0-104.0"},{"result":156,"points":3,"place":0,"phase":1,"sequence":32,"prices":[178,174,186,217,167,181,188,168,208,156],"times":[555,551,727,479,535,520,575,1039,615,685],"next_num":10,"trial_type":"ticket-choose","trial_index":105,"time_elapsed":1492153,"internal_node_id":"0.0-105.0"},{"result":154,"points":3,"place":0,"phase":1,"sequence":33,"prices":[158,175,186,209,177,181,188,167,208,154],"times":[659,632,519,558,496,512,560,519,703,767],"next_num":10,"trial_type":"ticket-choose","trial_index":106,"time_elapsed":1501873,"internal_node_id":"0.0-106.0"},{"result":150,"points":3,"place":0,"phase":1,"sequence":34,"prices":[185,179,191,165,161,173,199,150,188,168],"times":[613,487,616,1431,1200,369,471,1236],"next_num":8,"trial_type":"ticket-choose","trial_index":107,"time_elapsed":1511425,"internal_node_id":"0.0-107.0"},{"result":153,"points":3,"place":0,"phase":1,"sequence":35,"prices":[177,174,186,217,165,181,187,166,153,209],"times":[563,559,743,567,846,542,496,593,861],"next_num":9,"trial_type":"ticket-choose","trial_index":108,"time_elapsed":1520537,"internal_node_id":"0.0-108.0"},{"result":156,"points":3,"place":0,"phase":1,"sequence":36,"prices":[201,204,179,166,185,165,214,156,202,165],"times":[508,431,399,431,407,471,527,1059],"next_num":8,"trial_type":"ticket-choose","trial_index":109,"time_elapsed":1527866,"internal_node_id":"0.0-109.0"},{"result":154,"points":3,"place":0,"phase":1,"sequence":37,"prices":[163,175,187,209,176,180,188,165,154,208],"times":[701,542,559,671,528,831,599,1071,1023],"next_num":9,"trial_type":"ticket-choose","trial_index":110,"time_elapsed":1538002,"internal_node_id":"0.0-110.0"},{"result":147,"points":3,"place":0,"phase":1,"sequence":38,"prices":[181,214,169,147,182,193,178,184,176,179],"times":[2333,1127,735,1668],"next_num":4,"trial_type":"ticket-choose","trial_index":111,"time_elapsed":1546529,"internal_node_id":"0.0-111.0"},{"result":153,"points":3,"place":0,"phase":1,"sequence":39,"prices":[165,174,186,212,177,181,187,166,153,209],"times":[1680,326,462,582,568,632,536,631,984],"next_num":9,"trial_type":"ticket-choose","trial_index":112,"time_elapsed":1556282,"internal_node_id":"0.0-112.0"},{"result":190,"points":0,"place":6,"phase":1,"sequence":40,"prices":[190,150,175,161,188,207,157,194,178,199],"times":[679],"next_num":1,"trial_type":"ticket-choose","trial_index":113,"time_elapsed":1559361,"internal_node_id":"0.0-113.0"},{"result":170,"points":1,"place":2,"phase":1,"sequence":41,"prices":[199,191,188,174,167,193,189,164,176,170],"times":[1161,398,662,688,840,565,576,749,559,648],"next_num":11,"trial_type":"ticket-choose","trial_index":114,"time_elapsed":1570130,"internal_node_id":"0.0-114.0"},{"result":195,"points":0,"place":7,"phase":1,"sequence":42,"prices":[193,174,224,165,187,190,224,161,194,195],"times":[1104,400,416,568,472,431,519,559,678,599],"next_num":11,"trial_type":"ticket-choose","trial_index":115,"time_elapsed":1579658,"internal_node_id":"0.0-115.0"},{"result":165,"points":1,"place":2,"phase":1,"sequence":43,"prices":[176,187,179,209,163,180,188,165,154,208],"times":[911,359,353,487,415,672,583,1254],"next_num":8,"trial_type":"ticket-choose","trial_index":116,"time_elapsed":1587851,"internal_node_id":"0.0-116.0"},{"result":176,"points":0,"place":5,"phase":1,"sequence":44,"prices":[173,163,185,181,166,148,160,185,176,184],"times":[871,287,360,430,440,441,806,1287,710],"next_num":9,"trial_type":"ticket-choose","trial_index":117,"time_elapsed":1597178,"internal_node_id":"0.0-117.0"},{"result":156,"points":3,"place":0,"phase":1,"sequence":45,"prices":[167,174,186,211,178,181,188,168,208,156],"times":[745,367,623,464,537,606,680,816,765,975],"next_num":10,"trial_type":"ticket-choose","trial_index":118,"time_elapsed":1607306,"internal_node_id":"0.0-118.0"},{"result":153,"points":3,"place":0,"phase":1,"sequence":46,"prices":[176,186,178,217,163,181,187,166,153,209],"times":[896,527,488,574,839,609,566,799,959],"next_num":9,"trial_type":"ticket-choose","trial_index":119,"time_elapsed":1617171,"internal_node_id":"0.0-119.0"},{"result":153,"points":3,"place":0,"phase":1,"sequence":47,"prices":[176,175,186,210,163,179,187,166,153,208],"times":[1017,422,440,616,590,518,535,952,1135],"next_num":9,"trial_type":"ticket-choose","trial_index":120,"time_elapsed":1626682,"internal_node_id":"0.0-120.0"},{"result":158,"points":2,"place":1,"phase":1,"sequence":48,"prices":[158,175,186,211,177,180,187,166,209,153],"times":[1232],"next_num":1,"trial_type":"ticket-choose","trial_index":121,"time_elapsed":1629857,"internal_node_id":"0.0-121.0"},{"result":158,"points":1,"place":3,"phase":1,"sequence":49,"prices":[200,207,155,158,156,168,167,135,178,177],"times":[775,615,639,1448],"next_num":4,"trial_type":"ticket-choose","trial_index":122,"time_elapsed":1636083,"internal_node_id":"0.0-122.0"},{"responses":[{"value":5,"offby":4,"category":"$115 - $130","category_index":0},{"value":10,"offby":5,"category":"$131 - $145","category_index":1},{"value":16,"offby":4,"category":"$146 - $160","category_index":2},{"value":15,"offby":-7,"category":"$161 - $175","category_index":3},{"value":26,"offby":-8,"category":"$176 - $190","category_index":4},{"value":25,"offby":10,"category":"$191 - $205","category_index":5},{"value":3,"offby":-8,"category":"$206 - $220","category_index":6}],"phase":1,"number":1,"trial_type":"bar-choose","trial_index":123,"time_elapsed":1666708,"internal_node_id":"0.0-123.0"},{"special_comment":"no","trial_type":"special_sequence","trial_index":124,"time_elapsed":1671275,"internal_node_id":"0.0-124.0"},{"during":"Nothing","bonus":288,"trial_type":"final","trial_index":125,"time_elapsed":1708203,"internal_node_id":"0.0-125.0"}],"bonus":288}