{"start_time":"2017-05-24 13:20:47","end_time":"2017-05-24 13:43:29","points_phase0":107,"points_phase1":104,"phase_order":0,"age":50,"gender":"f","tries":1,"during":"Nothing","worker_id":"AYPOAY43REHC8","assignment_id":"30MVJZJNHN6I6IZ7O46Q95WHTBH9JU","data":[{"rt":112711,"url":"\/christiane\/tickets\/utils\/consent.html","trial_type":"html","trial_index":0,"time_elapsed":113916,"internal_node_id":"0.0-0.0"},{"age":50,"gender":"f","trial_type":"age","trial_index":1,"time_elapsed":119453,"internal_node_id":"0.0-1.0"},{"worker_id":"AYPOAY43REHC8","trial_type":"workerid","trial_index":2,"time_elapsed":127882,"internal_node_id":"0.0-2.0"},{"tries":1,"trial_type":"instructions_check","trial_index":3,"time_elapsed":135359,"internal_node_id":"0.0-3.0"},{"rt":2153,"url":"\/christiane\/tickets\/utils\/start.html","trial_type":"html","trial_index":4,"time_elapsed":139399,"internal_node_id":"0.0-4.0"},{"trial_type":"number-animation","trial_index":5,"time_elapsed":176675,"internal_node_id":"0.0-5.0"},{"phase":0,"sequence":0,"avg":181,"response":164,"trial_type":"training_avg","trial_index":6,"time_elapsed":183340,"internal_node_id":"0.0-6.0"},{"trial_type":"number-animation","trial_index":7,"time_elapsed":190773,"internal_node_id":"0.0-7.0"},{"phase":0,"sequence":1,"avg":188,"response":218,"trial_type":"training_avg","trial_index":8,"time_elapsed":198060,"internal_node_id":"0.0-8.0"},{"trial_type":"number-animation","trial_index":9,"time_elapsed":205068,"internal_node_id":"0.0-9.0"},{"phase":0,"sequence":2,"avg":188,"response":190,"trial_type":"training_avg","trial_index":10,"time_elapsed":210434,"internal_node_id":"0.0-10.0"},{"trial_type":"number-animation","trial_index":11,"time_elapsed":217447,"internal_node_id":"0.0-11.0"},{"phase":0,"sequence":3,"avg":177,"response":184,"trial_type":"training_avg","trial_index":12,"time_elapsed":222669,"internal_node_id":"0.0-12.0"},{"trial_type":"number-animation","trial_index":13,"time_elapsed":229426,"internal_node_id":"0.0-13.0"},{"phase":0,"sequence":4,"avg":182,"response":177,"trial_type":"training_avg","trial_index":14,"time_elapsed":234046,"internal_node_id":"0.0-14.0"},{"responses":[{"value":20,"offby":19,"category":"$115 - $130","category_index":0},{"value":20,"offby":15,"category":"$131 - $145","category_index":1},{"value":20,"offby":8,"category":"$146 - $160","category_index":2},{"value":20,"offby":-2,"category":"$161 - $175","category_index":3},{"value":20,"offby":-14,"category":"$176 - $190","category_index":4},{"value":0,"offby":-15,"category":"$191 - $205","category_index":5},{"value":0,"offby":-11,"category":"$206 - $220","category_index":6}],"phase":0,"number":0,"trial_type":"bar-choose","trial_index":15,"time_elapsed":247316,"internal_node_id":"0.0-15.0"},{"rt":772,"url":"\/christiane\/tickets\/utils\/testing.html","trial_type":"html","trial_index":16,"time_elapsed":249694,"internal_node_id":"0.0-16.0"},{"phase":0,"order":[37,44,43,17,31,10,19,40,18,48,23,21,42,29,7,14,25,49,36,33,41,28,8,1,39,6,4,9,38,12,34,5,27,2,46,20,15,30,26,16,24,11,35,45,22,0,3,13,47,32],"trial_type":"store_order","trial_index":17,"time_elapsed":250695,"internal_node_id":"0.0-17.0"},{"result":165,"points":2,"place":1,"phase":0,"sequence":-1,"prices":[184,180,224,165,181,199,185,193,218,146],"times":[2482,642,687,3325],"next_num":4,"trial_type":"ticket-choose","trial_index":18,"time_elapsed":261284,"internal_node_id":"0.0-18.0"},{"rt":1619,"url":"\/christiane\/tickets\/utils\/testing_after.html","trial_type":"html","trial_index":19,"time_elapsed":264619,"internal_node_id":"0.0-19.0"},{"result":163,"points":2,"place":1,"phase":0,"sequence":0,"prices":[198,193,169,163,202,182,152,164,177,171],"times":[1468,614,1841,978],"next_num":4,"trial_type":"ticket-choose","trial_index":20,"time_elapsed":272783,"internal_node_id":"0.0-20.0"},{"result":141,"points":3,"place":0,"phase":0,"sequence":1,"prices":[180,159,149,175,185,141,163,174,178,207],"times":[628,434,440,606,580,746],"next_num":6,"trial_type":"ticket-choose","trial_index":21,"time_elapsed":279441,"internal_node_id":"0.0-21.0"},{"result":157,"points":3,"place":0,"phase":0,"sequence":2,"prices":[201,187,157,184,198,179,188,185,178,170],"times":[887,523,1057],"next_num":3,"trial_type":"ticket-choose","trial_index":22,"time_elapsed":284742,"internal_node_id":"0.0-22.0"},{"result":163,"points":2,"place":1,"phase":0,"sequence":3,"prices":[174,186,176,217,181,187,163,166,153,209],"times":[1461,589,832,547,910,532,872],"next_num":7,"trial_type":"ticket-choose","trial_index":23,"time_elapsed":293925,"internal_node_id":"0.0-23.0"},{"result":167,"points":1,"place":2,"phase":0,"sequence":4,"prices":[171,203,175,170,167,220,192,186,165,165],"times":[1397,553,654,1491,1092],"next_num":5,"trial_type":"ticket-choose","trial_index":24,"time_elapsed":302101,"internal_node_id":"0.0-24.0"},{"result":165,"points":2,"place":1,"phase":0,"sequence":5,"prices":[175,187,177,209,180,188,165,165,154,208],"times":[606,559,583,527,540,538,895],"next_num":7,"trial_type":"ticket-choose","trial_index":25,"time_elapsed":309926,"internal_node_id":"0.0-25.0"},{"result":154,"points":3,"place":0,"phase":0,"sequence":6,"prices":[175,186,158,209,181,188,177,167,208,154],"times":[1361,607,566,545,576,524,498,1216,547,608],"next_num":10,"trial_type":"ticket-choose","trial_index":26,"time_elapsed":321188,"internal_node_id":"0.0-26.0"},{"result":150,"points":3,"place":0,"phase":0,"sequence":7,"prices":[189,150,175,160,188,207,158,194,178,199],"times":[1056,953],"next_num":2,"trial_type":"ticket-choose","trial_index":27,"time_elapsed":325591,"internal_node_id":"0.0-27.0"},{"result":158,"points":2,"place":1,"phase":0,"sequence":8,"prices":[175,186,158,211,180,187,177,166,209,153],"times":[769,562,861],"next_num":3,"trial_type":"ticket-choose","trial_index":28,"time_elapsed":330440,"internal_node_id":"0.0-28.0"},{"result":147,"points":3,"place":0,"phase":0,"sequence":9,"prices":[181,215,169,147,182,193,177,184,176,179],"times":[788,540,494,866],"next_num":4,"trial_type":"ticket-choose","trial_index":29,"time_elapsed":335974,"internal_node_id":"0.0-29.0"},{"result":158,"points":2,"place":1,"phase":0,"sequence":10,"prices":[176,187,177,225,181,187,158,165,208,153],"times":[623,664,587,511,632,521,786],"next_num":7,"trial_type":"ticket-choose","trial_index":30,"time_elapsed":343893,"internal_node_id":"0.0-30.0"},{"result":175,"points":1,"place":3,"phase":0,"sequence":11,"prices":[175,186,177,221,180,187,158,166,209,153],"times":[455],"next_num":1,"trial_type":"ticket-choose","trial_index":31,"time_elapsed":346800,"internal_node_id":"0.0-31.0"},{"result":143,"points":3,"place":0,"phase":0,"sequence":12,"prices":[222,173,202,197,143,205,198,183,178,186],"times":[746,676,524,527,822],"next_num":5,"trial_type":"ticket-choose","trial_index":32,"time_elapsed":353237,"internal_node_id":"0.0-32.0"},{"result":171,"points":1,"place":3,"phase":0,"sequence":13,"prices":[185,170,182,201,173,199,171,188,165,168],"times":[633,1582,587,593,1262,548,881],"next_num":7,"trial_type":"ticket-choose","trial_index":33,"time_elapsed":363575,"internal_node_id":"0.0-33.0"},{"result":165,"points":2,"place":1,"phase":0,"sequence":14,"prices":[175,187,165,209,180,188,177,166,154,208],"times":[657,546,783],"next_num":3,"trial_type":"ticket-choose","trial_index":34,"time_elapsed":368682,"internal_node_id":"0.0-34.0"},{"result":163,"points":2,"place":1,"phase":0,"sequence":15,"prices":[174,186,163,212,181,187,176,166,153,209],"times":[821,553,815],"next_num":3,"trial_type":"ticket-choose","trial_index":35,"time_elapsed":373445,"internal_node_id":"0.0-35.0"},{"result":165,"points":2,"place":1,"phase":0,"sequence":16,"prices":[201,165,162,166,185,214,165,202,204,179],"times":[1472,962],"next_num":2,"trial_type":"ticket-choose","trial_index":36,"time_elapsed":378350,"internal_node_id":"0.0-36.0"},{"result":163,"points":1,"place":2,"phase":0,"sequence":17,"prices":[183,163,185,180,166,148,160,186,176,184],"times":[1066,872],"next_num":2,"trial_type":"ticket-choose","trial_index":37,"time_elapsed":382981,"internal_node_id":"0.0-37.0"},{"result":154,"points":3,"place":0,"phase":0,"sequence":18,"prices":[188,200,165,172,198,174,177,154,177,180],"times":[668,642,1559,512,503,562,541,1257],"next_num":8,"trial_type":"ticket-choose","trial_index":38,"time_elapsed":394069,"internal_node_id":"0.0-38.0"},{"result":167,"points":2,"place":1,"phase":0,"sequence":19,"prices":[183,182,192,168,173,205,167,187,165,170],"times":[1651,645,892,1670,555,590,1181],"next_num":7,"trial_type":"ticket-choose","trial_index":39,"time_elapsed":405007,"internal_node_id":"0.0-39.0"},{"result":155,"points":2,"place":1,"phase":0,"sequence":20,"prices":[201,207,155,158,156,165,167,135,178,177],"times":[24861,598,1013],"next_num":3,"trial_type":"ticket-choose","trial_index":40,"time_elapsed":434078,"internal_node_id":"0.0-40.0"},{"result":185,"points":1,"place":4,"phase":0,"sequence":21,"prices":[196,165,170,184,187,211,171,201,202,185],"times":[827,765,659,716,543,618,554,586,554,713],"next_num":10,"trial_type":"ticket-choose","trial_index":41,"time_elapsed":444803,"internal_node_id":"0.0-41.0"},{"result":165,"points":2,"place":1,"phase":0,"sequence":22,"prices":[174,186,165,212,181,187,177,167,153,209],"times":[991,634,932],"next_num":3,"trial_type":"ticket-choose","trial_index":42,"time_elapsed":449968,"internal_node_id":"0.0-42.0"},{"result":168,"points":1,"place":2,"phase":0,"sequence":23,"prices":[175,185,167,224,181,186,178,168,208,156],"times":[1258,574,502,530,665,651,521,830],"next_num":8,"trial_type":"ticket-choose","trial_index":43,"time_elapsed":459489,"internal_node_id":"0.0-43.0"},{"result":165,"points":3,"place":0,"phase":0,"sequence":24,"prices":[189,167,180,197,165,168,172,213,178,171],"times":[2500,2267,694,548,973],"next_num":5,"trial_type":"ticket-choose","trial_index":44,"time_elapsed":469930,"internal_node_id":"0.0-44.0"},{"result":165,"points":2,"place":1,"phase":0,"sequence":25,"prices":[175,186,165,214,179,187,177,166,153,208],"times":[933,569,924],"next_num":3,"trial_type":"ticket-choose","trial_index":45,"time_elapsed":474994,"internal_node_id":"0.0-45.0"},{"result":168,"points":1,"place":2,"phase":0,"sequence":26,"prices":[175,185,178,215,181,186,167,168,208,156],"times":[722,548,626,575,551,522,559,781],"next_num":8,"trial_type":"ticket-choose","trial_index":46,"time_elapsed":483570,"internal_node_id":"0.0-46.0"},{"result":165,"points":2,"place":1,"phase":0,"sequence":27,"prices":[175,186,177,210,179,187,165,166,153,208],"times":[877,551,468,524,535,578,919],"next_num":7,"trial_type":"ticket-choose","trial_index":47,"time_elapsed":491710,"internal_node_id":"0.0-47.0"},{"result":163,"points":3,"place":0,"phase":0,"sequence":28,"prices":[168,199,196,198,185,195,227,163,177,166],"times":[859,497,471,500,587,606,526,876],"next_num":8,"trial_type":"ticket-choose","trial_index":48,"time_elapsed":500311,"internal_node_id":"0.0-48.0"},{"result":166,"points":1,"place":2,"phase":0,"sequence":29,"prices":[175,186,163,214,179,187,176,166,153,208],"times":[719,646,508,780,572,880,565,788],"next_num":8,"trial_type":"ticket-choose","trial_index":49,"time_elapsed":509472,"internal_node_id":"0.0-49.0"},{"result":155,"points":2,"place":1,"phase":0,"sequence":30,"prices":[181,155,148,161,168,187,172,199,176,194],"times":[750,962],"next_num":2,"trial_type":"ticket-choose","trial_index":50,"time_elapsed":513653,"internal_node_id":"0.0-50.0"},{"result":167,"points":2,"place":1,"phase":0,"sequence":31,"prices":[175,186,178,212,179,187,167,169,209,153],"times":[909,582,525,638,747,693,880],"next_num":7,"trial_type":"ticket-choose","trial_index":51,"time_elapsed":522205,"internal_node_id":"0.0-51.0"},{"result":165,"points":3,"place":0,"phase":0,"sequence":32,"prices":[192,165,171,178,188,217,172,195,197,186],"times":[628,820],"next_num":2,"trial_type":"ticket-choose","trial_index":52,"time_elapsed":525998,"internal_node_id":"0.0-52.0"},{"result":167,"points":2,"place":1,"phase":0,"sequence":33,"prices":[175,186,167,225,179,187,178,169,209,153],"times":[696,725,861],"next_num":3,"trial_type":"ticket-choose","trial_index":53,"time_elapsed":530837,"internal_node_id":"0.0-53.0"},{"result":158,"points":3,"place":0,"phase":0,"sequence":34,"prices":[210,184,226,193,215,158,199,175,176,208],"times":[941,628,583,576,598,886],"next_num":6,"trial_type":"ticket-choose","trial_index":54,"time_elapsed":538311,"internal_node_id":"0.0-54.0"},{"result":158,"points":2,"place":1,"phase":0,"sequence":35,"prices":[176,187,158,210,181,187,177,165,208,153],"times":[609,596,855],"next_num":3,"trial_type":"ticket-choose","trial_index":55,"time_elapsed":543311,"internal_node_id":"0.0-55.0"},{"result":163,"points":2,"place":1,"phase":0,"sequence":36,"prices":[175,186,176,210,179,187,163,166,153,208],"times":[691,577,505,525,547,662,820],"next_num":7,"trial_type":"ticket-choose","trial_index":56,"time_elapsed":551370,"internal_node_id":"0.0-56.0"},{"result":169,"points":2,"place":1,"phase":0,"sequence":37,"prices":[191,172,169,175,182,203,170,195,165,176],"times":[1051,557,889],"next_num":3,"trial_type":"ticket-choose","trial_index":57,"time_elapsed":556579,"internal_node_id":"0.0-57.0"},{"result":165,"points":2,"place":1,"phase":0,"sequence":38,"prices":[200,165,165,173,182,207,161,202,204,180],"times":[587,1395],"next_num":2,"trial_type":"ticket-choose","trial_index":58,"time_elapsed":562682,"internal_node_id":"0.0-58.0"},{"result":163,"points":2,"place":1,"phase":0,"sequence":39,"prices":[175,187,176,209,180,188,163,165,154,208],"times":[621,553,613,581,551,584,910],"next_num":7,"trial_type":"ticket-choose","trial_index":59,"time_elapsed":570624,"internal_node_id":"0.0-59.0"},{"result":165,"points":3,"place":0,"phase":0,"sequence":40,"prices":[193,165,175,181,185,224,180,199,218,184],"times":[1610,1010],"next_num":2,"trial_type":"ticket-choose","trial_index":60,"time_elapsed":575915,"internal_node_id":"0.0-60.0"},{"result":165,"points":2,"place":1,"phase":0,"sequence":41,"prices":[174,186,177,217,181,187,165,166,153,209],"times":[1115,558,552,556,812,537,854],"next_num":7,"trial_type":"ticket-choose","trial_index":61,"time_elapsed":584616,"internal_node_id":"0.0-61.0"},{"result":154,"points":2,"place":1,"phase":0,"sequence":42,"prices":[168,154,172,185,195,144,184,211,177,227],"times":[641,892],"next_num":2,"trial_type":"ticket-choose","trial_index":62,"time_elapsed":588770,"internal_node_id":"0.0-62.0"},{"result":167,"points":2,"place":1,"phase":0,"sequence":43,"prices":[212,192,188,184,167,193,189,164,176,170],"times":[688,584,612,661,946],"next_num":5,"trial_type":"ticket-choose","trial_index":63,"time_elapsed":595424,"internal_node_id":"0.0-63.0"},{"result":158,"points":2,"place":1,"phase":0,"sequence":44,"prices":[175,186,177,209,181,188,158,167,208,154],"times":[1165,576,615,551,677,568,833],"next_num":7,"trial_type":"ticket-choose","trial_index":64,"time_elapsed":603791,"internal_node_id":"0.0-64.0"},{"result":156,"points":3,"place":0,"phase":0,"sequence":45,"prices":[174,186,167,211,181,188,178,168,208,156],"times":[994,540,490,627,604,513,531,673,580,551],"next_num":10,"trial_type":"ticket-choose","trial_index":65,"time_elapsed":614380,"internal_node_id":"0.0-65.0"},{"result":167,"points":2,"place":1,"phase":0,"sequence":46,"prices":[174,186,178,217,181,188,167,168,208,156],"times":[790,530,537,546,616,566,878],"next_num":7,"trial_type":"ticket-choose","trial_index":66,"time_elapsed":622448,"internal_node_id":"0.0-66.0"},{"result":163,"points":2,"place":1,"phase":0,"sequence":47,"prices":[175,187,163,209,180,188,176,165,154,208],"times":[850,527,984],"next_num":3,"trial_type":"ticket-choose","trial_index":67,"time_elapsed":627427,"internal_node_id":"0.0-67.0"},{"result":152,"points":3,"place":0,"phase":0,"sequence":48,"prices":[200,181,203,152,175,171,160,154,176,191],"times":[556,502,503,869],"next_num":4,"trial_type":"ticket-choose","trial_index":68,"time_elapsed":632649,"internal_node_id":"0.0-68.0"},{"result":165,"points":3,"place":0,"phase":0,"sequence":49,"prices":[193,169,171,187,190,224,174,194,165,188],"times":[702,493,532,565,550,606,662,607,859],"next_num":9,"trial_type":"ticket-choose","trial_index":69,"time_elapsed":642433,"internal_node_id":"0.0-69.0"},{"responses":[{"value":0,"offby":-1,"category":"$115 - $130","category_index":0},{"value":0,"offby":-5,"category":"$131 - $145","category_index":1},{"value":0,"offby":-12,"category":"$146 - $160","category_index":2},{"value":40,"offby":18,"category":"$161 - $175","category_index":3},{"value":50,"offby":16,"category":"$176 - $190","category_index":4},{"value":10,"offby":-5,"category":"$191 - $205","category_index":5},{"value":0,"offby":-11,"category":"$206 - $220","category_index":6}],"phase":1,"number":1,"trial_type":"bar-choose","trial_index":70,"time_elapsed":666533,"internal_node_id":"0.0-70.0"},{"rt":980,"url":"\/christiane\/tickets\/utils\/testing2.html","trial_type":"point_update","trial_index":71,"time_elapsed":669810,"internal_node_id":"0.0-71.0"},{"phase":1,"order":[35,13,5,26,29,21,3,49,23,12,40,30,43,42,2,41,11,8,39,0,1,45,48,27,24,10,17,19,32,25,6,36,38,9,20,34,14,7,16,46,4,44,15,47,37,33,22,31,18,28],"trial_type":"store_order","trial_index":72,"time_elapsed":670817,"internal_node_id":"0.0-72.0"},{"result":153,"points":2,"place":1,"phase":1,"sequence":0,"prices":[167,153,172,185,195,143,184,211,177,227],"times":[1811,855],"next_num":2,"trial_type":"ticket-choose","trial_index":73,"time_elapsed":675844,"internal_node_id":"0.0-73.0"},{"result":165,"points":1,"place":2,"phase":1,"sequence":1,"prices":[163,175,187,209,176,180,188,165,154,208],"times":[1099,496,512,554,625,566,515,804],"next_num":8,"trial_type":"ticket-choose","trial_index":74,"time_elapsed":684658,"internal_node_id":"0.0-74.0"},{"result":167,"points":2,"place":1,"phase":1,"sequence":2,"prices":[178,175,186,212,167,179,187,169,209,153],"times":[484,471,460,580,874],"next_num":5,"trial_type":"ticket-choose","trial_index":75,"time_elapsed":690647,"internal_node_id":"0.0-75.0"},{"result":169,"points":1,"place":3,"phase":1,"sequence":3,"prices":[200,173,182,169,207,165,152,202,161,204],"times":[610,763,647,797],"next_num":4,"trial_type":"ticket-choose","trial_index":76,"time_elapsed":696271,"internal_node_id":"0.0-76.0"},{"result":165,"points":1,"place":2,"phase":1,"sequence":4,"prices":[185,179,191,165,161,173,199,150,188,168],"times":[967,527,505,816],"next_num":4,"trial_type":"ticket-choose","trial_index":77,"time_elapsed":701775,"internal_node_id":"0.0-77.0"},{"result":158,"points":2,"place":1,"phase":1,"sequence":5,"prices":[177,175,186,221,158,180,187,166,209,153],"times":[635,673,603,629,956],"next_num":5,"trial_type":"ticket-choose","trial_index":78,"time_elapsed":708368,"internal_node_id":"0.0-78.0"},{"result":156,"points":3,"place":0,"phase":1,"sequence":6,"prices":[178,174,186,217,167,181,188,168,208,156],"times":[775,619,605,481,799,533,559,836,625,718],"next_num":10,"trial_type":"ticket-choose","trial_index":79,"time_elapsed":718935,"internal_node_id":"0.0-79.0"},{"result":148,"points":3,"place":0,"phase":1,"sequence":7,"prices":[173,163,185,181,166,148,160,185,176,184],"times":[851,711,442,499,650,1073],"next_num":6,"trial_type":"ticket-choose","trial_index":80,"time_elapsed":726420,"internal_node_id":"0.0-80.0"},{"result":158,"points":2,"place":1,"phase":1,"sequence":8,"prices":[177,176,187,225,158,181,187,165,208,153],"times":[611,566,544,554,2076],"next_num":5,"trial_type":"ticket-choose","trial_index":81,"time_elapsed":734565,"internal_node_id":"0.0-81.0"},{"result":153,"points":3,"place":0,"phase":1,"sequence":9,"prices":[163,175,186,214,176,179,187,166,153,208],"times":[895,486,503,573,1454,539,565,761,888],"next_num":9,"trial_type":"ticket-choose","trial_index":82,"time_elapsed":745223,"internal_node_id":"0.0-82.0"},{"result":150,"points":3,"place":0,"phase":1,"sequence":10,"prices":[190,150,175,161,188,207,157,194,178,199],"times":[1073,1180],"next_num":2,"trial_type":"ticket-choose","trial_index":83,"time_elapsed":749894,"internal_node_id":"0.0-83.0"},{"result":157,"points":3,"place":0,"phase":1,"sequence":11,"prices":[191,170,182,165,175,182,203,157,195,200],"times":[720,532,655,1829,537,571,545,966],"next_num":8,"trial_type":"ticket-choose","trial_index":84,"time_elapsed":760000,"internal_node_id":"0.0-84.0"},{"result":157,"points":3,"place":0,"phase":1,"sequence":12,"prices":[201,187,157,184,198,179,188,185,178,170],"times":[644,571,1063],"next_num":3,"trial_type":"ticket-choose","trial_index":85,"time_elapsed":764869,"internal_node_id":"0.0-85.0"},{"result":169,"points":3,"place":0,"phase":1,"sequence":13,"prices":[220,173,201,197,169,205,198,183,178,186],"times":[751,647,553,549,966],"next_num":5,"trial_type":"ticket-choose","trial_index":86,"time_elapsed":771297,"internal_node_id":"0.0-86.0"},{"result":169,"points":1,"place":2,"phase":1,"sequence":14,"prices":[167,175,186,225,178,179,187,169,209,153],"times":[606,518,568,535,560,530,594,1075],"next_num":8,"trial_type":"ticket-choose","trial_index":87,"time_elapsed":780089,"internal_node_id":"0.0-87.0"},{"result":155,"points":2,"place":1,"phase":1,"sequence":15,"prices":[200,207,155,158,156,168,167,135,178,177],"times":[520,500,835],"next_num":3,"trial_type":"ticket-choose","trial_index":88,"time_elapsed":784649,"internal_node_id":"0.0-88.0"},{"result":153,"points":3,"place":0,"phase":1,"sequence":16,"prices":[177,174,186,217,165,181,187,166,153,209],"times":[551,551,566,507,777,579,516,899,863],"next_num":9,"trial_type":"ticket-choose","trial_index":89,"time_elapsed":794397,"internal_node_id":"0.0-89.0"},{"result":153,"points":3,"place":0,"phase":1,"sequence":17,"prices":[165,174,186,212,177,181,187,166,153,209],"times":[653,521,537,523,487,402,535,620,927],"next_num":9,"trial_type":"ticket-choose","trial_index":90,"time_elapsed":803501,"internal_node_id":"0.0-90.0"},{"result":171,"points":1,"place":3,"phase":1,"sequence":18,"prices":[189,167,180,197,165,168,172,213,178,171],"times":[1069,749,580,505,744,726,575,601,648,674],"next_num":10,"trial_type":"ticket-choose","trial_index":91,"time_elapsed":814563,"internal_node_id":"0.0-91.0"},{"result":168,"points":1,"place":2,"phase":1,"sequence":19,"prices":[167,174,186,211,178,181,188,168,208,156],"times":[1043,536,519,554,612,604,576,911],"next_num":8,"trial_type":"ticket-choose","trial_index":92,"time_elapsed":823504,"internal_node_id":"0.0-92.0"},{"result":156,"points":3,"place":0,"phase":1,"sequence":20,"prices":[167,175,185,224,178,181,186,168,208,156],"times":[446,486,548,518,622,708,625,567,546,731],"next_num":10,"trial_type":"ticket-choose","trial_index":93,"time_elapsed":833389,"internal_node_id":"0.0-93.0"},{"result":164,"points":3,"place":0,"phase":1,"sequence":21,"prices":[199,191,188,174,167,193,189,164,176,170],"times":[702,1116,549,514,849,565,549,978],"next_num":8,"trial_type":"ticket-choose","trial_index":94,"time_elapsed":842989,"internal_node_id":"0.0-94.0"},{"result":147,"points":3,"place":0,"phase":1,"sequence":22,"prices":[181,214,169,147,182,193,178,184,176,179],"times":[595,549,808,930],"next_num":4,"trial_type":"ticket-choose","trial_index":95,"time_elapsed":848671,"internal_node_id":"0.0-95.0"},{"result":165,"points":3,"place":0,"phase":1,"sequence":23,"prices":[192,172,171,178,188,165,217,168,195,197],"times":[690,449,470,525,496,1183],"next_num":6,"trial_type":"ticket-choose","trial_index":96,"time_elapsed":855811,"internal_node_id":"0.0-96.0"},{"result":165,"points":3,"place":0,"phase":1,"sequence":24,"prices":[193,181,175,181,185,165,224,199,218,184],"times":[981,462,943,591,916,911],"next_num":6,"trial_type":"ticket-choose","trial_index":97,"time_elapsed":863902,"internal_node_id":"0.0-97.0"},{"result":165,"points":2,"place":1,"phase":1,"sequence":25,"prices":[177,175,187,209,165,180,188,165,154,208],"times":[773,556,491,590,911,530,547,817],"next_num":8,"trial_type":"ticket-choose","trial_index":98,"time_elapsed":872792,"internal_node_id":"0.0-98.0"},{"result":166,"points":1,"place":2,"phase":1,"sequence":26,"prices":[176,186,178,217,163,181,187,166,153,209],"times":[601,611,592,611,861,588,530,986],"next_num":8,"trial_type":"ticket-choose","trial_index":99,"time_elapsed":881944,"internal_node_id":"0.0-99.0"},{"result":167,"points":1,"place":2,"phase":1,"sequence":27,"prices":[158,175,186,209,177,181,188,167,208,154],"times":[578,479,492,496,676,628,574,910],"next_num":8,"trial_type":"ticket-choose","trial_index":100,"time_elapsed":890399,"internal_node_id":"0.0-100.0"},{"result":161,"points":3,"place":0,"phase":1,"sequence":28,"prices":[193,174,224,165,187,190,224,161,194,195],"times":[774,519,995,1380,534,552,612,1045],"next_num":8,"trial_type":"ticket-choose","trial_index":101,"time_elapsed":1097871,"internal_node_id":"0.0-101.0"},{"result":166,"points":1,"place":3,"phase":1,"sequence":29,"prices":[201,204,179,166,185,165,214,156,202,165],"times":[1372,504,568,1624],"next_num":4,"trial_type":"ticket-choose","trial_index":102,"time_elapsed":1105205,"internal_node_id":"0.0-102.0"},{"result":166,"points":1,"place":2,"phase":1,"sequence":30,"prices":[165,175,186,214,177,179,187,166,153,208],"times":[963,493,482,507,666,468,576,774],"next_num":8,"trial_type":"ticket-choose","trial_index":103,"time_elapsed":1113781,"internal_node_id":"0.0-103.0"},{"result":154,"points":3,"place":0,"phase":1,"sequence":31,"prices":[187,201,165,172,196,174,178,154,172,180],"times":[667,463,912,455,477,624,481,861],"next_num":8,"trial_type":"ticket-choose","trial_index":104,"time_elapsed":1122491,"internal_node_id":"0.0-104.0"},{"result":166,"points":1,"place":2,"phase":1,"sequence":32,"prices":[163,199,196,199,185,195,227,163,177,166],"times":[817,511,322,264,472,476,682,1599,1495,788],"next_num":10,"trial_type":"ticket-choose","trial_index":105,"time_elapsed":1134570,"internal_node_id":"0.0-105.0"},{"result":165,"points":2,"place":1,"phase":1,"sequence":33,"prices":[177,175,186,210,165,179,187,166,153,208],"times":[778,565,522,645,1119],"next_num":5,"trial_type":"ticket-choose","trial_index":106,"time_elapsed":1141637,"internal_node_id":"0.0-106.0"},{"result":158,"points":2,"place":1,"phase":1,"sequence":34,"prices":[158,176,187,210,177,181,187,165,208,153],"times":[1353],"next_num":1,"trial_type":"ticket-choose","trial_index":107,"time_elapsed":1145226,"internal_node_id":"0.0-107.0"},{"result":160,"points":1,"place":2,"phase":1,"sequence":35,"prices":[180,156,149,160,168,186,172,198,176,195],"times":[742,403,421,714],"next_num":4,"trial_type":"ticket-choose","trial_index":108,"time_elapsed":1150303,"internal_node_id":"0.0-108.0"},{"result":153,"points":3,"place":0,"phase":1,"sequence":36,"prices":[163,174,186,212,176,181,187,166,153,209],"times":[666,600,510,543,477,519,483,1123,805],"next_num":9,"trial_type":"ticket-choose","trial_index":109,"time_elapsed":1159961,"internal_node_id":"0.0-109.0"},{"result":154,"points":3,"place":0,"phase":1,"sequence":37,"prices":[165,175,187,209,177,180,188,167,154,208],"times":[763,483,428,445,402,419,445,461,794],"next_num":9,"trial_type":"ticket-choose","trial_index":110,"time_elapsed":1168439,"internal_node_id":"0.0-110.0"},{"result":163,"points":2,"place":1,"phase":1,"sequence":38,"prices":[176,187,179,209,163,180,188,165,154,208],"times":[678,481,442,485,859],"next_num":5,"trial_type":"ticket-choose","trial_index":111,"time_elapsed":1174423,"internal_node_id":"0.0-111.0"},{"result":208,"points":0,"place":6,"phase":1,"sequence":39,"prices":[214,184,226,192,215,158,199,175,176,208],"times":[653,482,451,464,512,402,903,514,521,1694],"next_num":10,"trial_type":"ticket-choose","trial_index":112,"time_elapsed":1185603,"internal_node_id":"0.0-112.0"},{"result":167,"points":2,"place":1,"phase":1,"sequence":40,"prices":[178,175,185,215,167,181,186,168,208,156],"times":[579,624,728,595,903],"next_num":5,"trial_type":"ticket-choose","trial_index":113,"time_elapsed":1192043,"internal_node_id":"0.0-113.0"},{"result":159,"points":1,"place":2,"phase":1,"sequence":41,"prices":[181,159,149,175,185,151,163,174,178,207],"times":[680,801],"next_num":2,"trial_type":"ticket-choose","trial_index":114,"time_elapsed":1196160,"internal_node_id":"0.0-114.0"},{"result":163,"points":2,"place":1,"phase":1,"sequence":42,"prices":[176,175,186,210,163,179,187,166,153,208],"times":[682,504,538,525,822],"next_num":5,"trial_type":"ticket-choose","trial_index":115,"time_elapsed":1202210,"internal_node_id":"0.0-115.0"},{"result":152,"points":3,"place":0,"phase":1,"sequence":43,"prices":[200,180,203,152,175,170,160,154,176,191],"times":[987,549,526,782],"next_num":4,"trial_type":"ticket-choose","trial_index":116,"time_elapsed":1208095,"internal_node_id":"0.0-116.0"},{"result":165,"points":1,"place":2,"phase":1,"sequence":44,"prices":[199,193,169,165,202,182,151,164,176,171],"times":[622,583,944,1078],"next_num":4,"trial_type":"ticket-choose","trial_index":117,"time_elapsed":1214020,"internal_node_id":"0.0-117.0"},{"result":159,"points":3,"place":0,"phase":1,"sequence":45,"prices":[183,179,188,165,168,173,205,159,187,191],"times":[437,497,498,750,499,532,594,972],"next_num":8,"trial_type":"ticket-choose","trial_index":118,"time_elapsed":1222333,"internal_node_id":"0.0-118.0"},{"result":158,"points":2,"place":1,"phase":1,"sequence":46,"prices":[177,175,186,209,158,181,188,167,208,154],"times":[986,548,561,488,864],"next_num":5,"trial_type":"ticket-choose","trial_index":119,"time_elapsed":1229428,"internal_node_id":"0.0-119.0"},{"result":163,"points":2,"place":1,"phase":1,"sequence":47,"prices":[171,169,186,165,163,167,220,148,187,165],"times":[2422,24149,531,456,1020],"next_num":5,"trial_type":"ticket-choose","trial_index":120,"time_elapsed":1266426,"internal_node_id":"0.0-120.0"},{"result":166,"points":1,"place":2,"phase":1,"sequence":48,"prices":[158,175,186,211,177,180,187,166,209,153],"times":[1990,493,558,522,533,500,527,868],"next_num":8,"trial_type":"ticket-choose","trial_index":121,"time_elapsed":1277098,"internal_node_id":"0.0-121.0"},{"result":165,"points":3,"place":0,"phase":1,"sequence":49,"prices":[196,171,170,184,187,165,211,169,201,202],"times":[2461,460,580,515,523,900],"next_num":6,"trial_type":"ticket-choose","trial_index":122,"time_elapsed":1286452,"internal_node_id":"0.0-122.0"},{"responses":[{"value":0,"offby":-1,"category":"$115 - $130","category_index":0},{"value":0,"offby":-5,"category":"$131 - $145","category_index":1},{"value":0,"offby":-12,"category":"$146 - $160","category_index":2},{"value":50,"offby":28,"category":"$161 - $175","category_index":3},{"value":50,"offby":16,"category":"$176 - $190","category_index":4},{"value":0,"offby":-15,"category":"$191 - $205","category_index":5},{"value":0,"offby":-11,"category":"$206 - $220","category_index":6}],"phase":1,"number":1,"trial_type":"bar-choose","trial_index":123,"time_elapsed":1324641,"internal_node_id":"0.0-123.0"},{"special_comment":"no","trial_type":"special_sequence","trial_index":124,"time_elapsed":1331597,"internal_node_id":"0.0-124.0"},{"during":"Nothing","bonus":280,"trial_type":"final","trial_index":125,"time_elapsed":1357597,"internal_node_id":"0.0-125.0"}],"bonus":280}